%time,field.header.seq,field.header.stamp,field.header.frame_id,field.orientation.x,field.orientation.y,field.orientation.z,field.orientation.w,field.orientation_covariance0,field.orientation_covariance1,field.orientation_covariance2,field.orientation_covariance3,field.orientation_covariance4,field.orientation_covariance5,field.orientation_covariance6,field.orientation_covariance7,field.orientation_covariance8,field.angular_velocity.x,field.angular_velocity.y,field.angular_velocity.z,field.angular_velocity_covariance0,field.angular_velocity_covariance1,field.angular_velocity_covariance2,field.angular_velocity_covariance3,field.angular_velocity_covariance4,field.angular_velocity_covariance5,field.angular_velocity_covariance6,field.angular_velocity_covariance7,field.angular_velocity_covariance8,field.linear_acceleration.x,field.linear_acceleration.y,field.linear_acceleration.z,field.linear_acceleration_covariance0,field.linear_acceleration_covariance1,field.linear_acceleration_covariance2,field.linear_acceleration_covariance3,field.linear_acceleration_covariance4,field.linear_acceleration_covariance5,field.linear_acceleration_covariance6,field.linear_acceleration_covariance7,field.linear_acceleration_covariance8
1606827117786221682,1244225,1606827117779902273,imu_link,0.08010200411081314,0.0006894064717926085,0.046731721609830856,0.9956904053688049,0.0,0.0,0.0,0.0,0.0,0.0,0.0,0.0,0.0,5.346164703369141,-0.3502935767173767,9.182576179504395,0.0,0.0,0.0,0.0,0.0,0.0,0.0,0.0,0.0,0.007631958462297916,0.04774494841694832,0.31697025895118713,0.0,0.0,0.0,0.0,0.0,0.0,0.0,0.0,0.0
1606827117788036895,1244226,1606827117780091430,imu_link,0.08010200411081314,0.0006894064717926085,0.046731721609830856,0.9956904053688049,0.0,0.0,0.0,0.0,0.0,0.0,0.0,0.0,0.0,5.346164703369141,-0.3502935767173767,9.182576179504395,0.0,0.0,0.0,0.0,0.0,0.0,0.0,0.0,0.0,0.007631958462297916,0.04774494841694832,0.31697025895118713,0.0,0.0,0.0,0.0,0.0,0.0,0.0,0.0,0.0
1606827117788056899,1244227,1606827117780262084,imu_link,0.08010274916887283,0.0006890808581374586,0.046730950474739075,0.9956903457641602,0.0,0.0,0.0,0.0,0.0,0.0,0.0,0.0,0.0,5.346073150634766,-0.35032764077186584,9.182660102844238,0.0,0.0,0.0,0.0,0.0,0.0,0.0,0.0,0.0,0.014915632084012032,0.03408075124025345,0.32020634412765503,0.0,0.0,0.0,0.0,0.0,0.0,0.0,0.0,0.0
1606827117788072660,1244228,1606827117780501066,imu_link,0.08010274916887283,0.0006890808581374586,0.046730950474739075,0.9956903457641602,0.0,0.0,0.0,0.0,0.0,0.0,0.0,0.0,0.0,5.346073150634766,-0.35032764077186584,9.182660102844238,0.0,0.0,0.0,0.0,0.0,0.0,0.0,0.0,0.0,0.014915632084012032,0.03408075124025345,0.32020634412765503,0.0,0.0,0.0,0.0,0.0,0.0,0.0,0.0,0.0
1606827117788089195,1244229,1606827117780660614,imu_link,0.0801037847995758,0.0006927330396138132,0.04672751575708389,0.9956904649734497,0.0,0.0,0.0,0.0,0.0,0.0,0.0,0.0,0.0,5.345713138580322,-0.34988492727279663,9.18280029296875,0.0,0.0,0.0,0.0,0.0,0.0,0.0,0.0,0.0,0.026694735512137413,0.03868892788887024,0.32634830474853516,0.0,0.0,0.0,0.0,0.0,0.0,0.0,0.0,0.0
1606827117788112198,1244230,1606827117780841161,imu_link,0.0801037847995758,0.0006927330396138132,0.04672751575708389,0.9956904649734497,0.0,0.0,0.0,0.0,0.0,0.0,0.0,0.0,0.0,5.345713138580322,-0.34988492727279663,9.18280029296875,0.0,0.0,0.0,0.0,0.0,0.0,0.0,0.0,0.0,0.026694735512137413,0.03868892788887024,0.32634830474853516,0.0,0.0,0.0,0.0,0.0,0.0,0.0,0.0,0.0
1606827117788130168,1244231,1606827117780984070,imu_link,0.08010340481996536,0.0006929832161404192,0.04672551900148392,0.9956905841827393,0.0,0.0,0.0,0.0,0.0,0.0,0.0,0.0,0.0,5.345487117767334,-0.34983599185943604,9.182757377624512,0.0,0.0,0.0,0.0,0.0,0.0,0.0,0.0,0.0,0.023607805371284485,0.05657285824418068,0.3020401895046234,0.0,0.0,0.0,0.0,0.0,0.0,0.0,0.0,0.0
1606827117788154911,1244232,1606827117781144566,imu_link,0.08010340481996536,0.0006929832161404192,0.04672551900148392,0.9956905841827393,0.0,0.0,0.0,0.0,0.0,0.0,0.0,0.0,0.0,5.345487117767334,-0.34983599185943604,9.182757377624512,0.0,0.0,0.0,0.0,0.0,0.0,0.0,0.0,0.0,0.023607805371284485,0.05657285824418068,0.3020401895046234,0.0,0.0,0.0,0.0,0.0,0.0,0.0,0.0,0.0
1606827117788201636,1244233,1606827117781301959,imu_link,0.0801001638174057,0.0006970269023440778,0.04672171548008919,0.9956910014152527,0.0,0.0,0.0,0.0,0.0,0.0,0.0,0.0,0.0,5.345090389251709,-0.3493223190307617,9.182409286499023,0.0,0.0,0.0,0.0,0.0,0.0,0.0,0.0,0.0,-0.00621483288705349,0.06894584000110626,0.3155193328857422,0.0,0.0,0.0,0.0,0.0,0.0,0.0,0.0,0.0
1606827117788979727,1244234,1606827117781454802,imu_link,0.0801001638174057,0.0006970269023440778,0.04672171548008919,0.9956910014152527,0.0,0.0,0.0,0.0,0.0,0.0,0.0,0.0,0.0,5.345090389251709,-0.3493223190307617,9.182409286499023,0.0,0.0,0.0,0.0,0.0,0.0,0.0,0.0,0.0,-0.00621483288705349,0.06894584000110626,0.3155193328857422,0.0,0.0,0.0,0.0,0.0,0.0,0.0,0.0,0.0
1606827117788995273,1244235,1606827117781603184,imu_link,0.0801008865237236,0.0006974866264499724,0.04672162979841232,0.9956909418106079,0.0,0.0,0.0,0.0,0.0,0.0,0.0,0.0,0.0,5.3450846672058105,-0.3492729365825653,9.182494163513184,0.0,0.0,0.0,0.0,0.0,0.0,0.0,0.0,0.0,-0.01754980906844139,0.055282969027757645,0.3309548795223236,0.0,0.0,0.0,0.0,0.0,0.0,0.0,0.0,0.0
1606827117799515857,1244236,1606827117793361204,imu_link,0.0801008865237236,0.0006974866264499724,0.04672162979841232,0.9956909418106079,0.0,0.0,0.0,0.0,0.0,0.0,0.0,0.0,0.0,5.3450846672058105,-0.3492729365825653,9.182494163513184,0.0,0.0,0.0,0.0,0.0,0.0,0.0,0.0,0.0,-0.01754980906844139,0.055282969027757645,0.3309548795223236,0.0,0.0,0.0,0.0,0.0,0.0,0.0,0.0,0.0
1606827117800559520,1244237,1606827117793507982,imu_link,0.08010081946849823,0.0006939899758435786,0.046718500554561615,0.9956911206245422,0.0,0.0,0.0,0.0,0.0,0.0,0.0,0.0,0.0,5.344695091247559,-0.349642813205719,9.182469367980957,0.0,0.0,0.0,0.0,0.0,0.0,0.0,0.0,0.0,-0.005032031796872616,0.04301784932613373,0.3294316828250885,0.0,0.0,0.0,0.0,0.0,0.0,0.0,0.0,0.0
1606827117800595380,1244238,1606827117793621765,imu_link,0.08010081946849823,0.0006939899758435786,0.046718500554561615,0.9956911206245422,0.0,0.0,0.0,0.0,0.0,0.0,0.0,0.0,0.0,5.344695091247559,-0.349642813205719,9.182469367980957,0.0,0.0,0.0,0.0,0.0,0.0,0.0,0.0,0.0,-0.005032031796872616,0.04301784932613373,0.3294316828250885,0.0,0.0,0.0,0.0,0.0,0.0,0.0,0.0,0.0
1606827117800609282,1244239,1606827117793787496,imu_link,0.08010048419237137,0.0006932012620382011,0.046720538288354874,0.9956910610198975,0.0,0.0,0.0,0.0,0.0,0.0,0.0,0.0,0.0,5.3449201583862305,-0.34974971413612366,9.182425498962402,0.0,0.0,0.0,0.0,0.0,0.0,0.0,0.0,0.0,-0.00813886895775795,0.04505312815308571,0.3457934260368347,0.0,0.0,0.0,0.0,0.0,0.0,0.0,0.0,0.0
1606827117800625030,1244240,1606827117793923281,imu_link,0.08010048419237137,0.0006932012620382011,0.046720538288354874,0.9956910610198975,0.0,0.0,0.0,0.0,0.0,0.0,0.0,0.0,0.0,5.3449201583862305,-0.34974971413612366,9.182425498962402,0.0,0.0,0.0,0.0,0.0,0.0,0.0,0.0,0.0,-0.00813886895775795,0.04505312815308571,0.3457934260368347,0.0,0.0,0.0,0.0,0.0,0.0,0.0,0.0,0.0
1606827117800661112,1244241,1606827117794091922,imu_link,0.08010225743055344,0.0006914318655617535,0.046719010919332504,0.9956910014152527,0.0,0.0,0.0,0.0,0.0,0.0,0.0,0.0,0.0,5.344728946685791,-0.34994712471961975,9.182621002197266,0.0,0.0,0.0,0.0,0.0,0.0,0.0,0.0,0.0,0.005565213970839977,0.06081315502524376,0.3343901038169861,0.0,0.0,0.0,0.0,0.0,0.0,0.0,0.0,0.0
1606827117833697579,1244242,1606827117794210680,imu_link,0.08010225743055344,0.0006914318655617535,0.046719010919332504,0.9956910014152527,0.0,0.0,0.0,0.0,0.0,0.0,0.0,0.0,0.0,5.344728946685791,-0.34994712471961975,9.182621002197266,0.0,0.0,0.0,0.0,0.0,0.0,0.0,0.0,0.0,0.005565213970839977,0.06081315502524376,0.3343901038169861,0.0,0.0,0.0,0.0,0.0,0.0,0.0,0.0,0.0
1606827117833718759,1244243,1606827117794339842,imu_link,0.08010337501764297,0.0006913801189512014,0.046719957143068314,0.9956908822059631,0.0,0.0,0.0,0.0,0.0,0.0,0.0,0.0,0.0,5.344836235046387,-0.34996768832206726,9.182747840881348,0.0,0.0,0.0,0.0,0.0,0.0,0.0,0.0,0.0,0.011915504932403564,0.06446172297000885,0.33778852224349976,0.0,0.0,0.0,0.0,0.0,0.0,0.0,0.0,0.0
1606827117833735953,1244244,1606827117794468251,imu_link,0.08010337501764297,0.0006913801189512014,0.046719957143068314,0.9956908822059631,0.0,0.0,0.0,0.0,0.0,0.0,0.0,0.0,0.0,5.344836235046387,-0.34996768832206726,9.182747840881348,0.0,0.0,0.0,0.0,0.0,0.0,0.0,0.0,0.0,0.011915504932403564,0.06446172297000885,0.33778852224349976,0.0,0.0,0.0,0.0,0.0,0.0,0.0,0.0,0.0
1606827117833757888,1244245,1606827117794589010,imu_link,0.08010110259056091,0.0006937330472283065,0.046721599996089935,0.9956910014152527,0.0,0.0,0.0,0.0,0.0,0.0,0.0,0.0,0.0,5.345046520233154,-0.3497021198272705,9.18249797821045,0.0,0.0,0.0,0.0,0.0,0.0,0.0,0.0,0.0,0.016605155542492867,0.048298370093107224,0.329706072807312,0.0,0.0,0.0,0.0,0.0,0.0,0.0,0.0,0.0
1606827117833779409,1244246,1606827117807244456,imu_link,0.08010110259056091,0.0006937330472283065,0.046721599996089935,0.9956910014152527,0.0,0.0,0.0,0.0,0.0,0.0,0.0,0.0,0.0,5.345046520233154,-0.3497021198272705,9.18249797821045,0.0,0.0,0.0,0.0,0.0,0.0,0.0,0.0,0.0,0.016605155542492867,0.048298370093107224,0.329706072807312,0.0,0.0,0.0,0.0,0.0,0.0,0.0,0.0,0.0
1606827117833792206,1244247,1606827117807490148,imu_link,0.08010168373584747,0.0006934937555342913,0.04672134295105934,0.9956908822059631,0.0,0.0,0.0,0.0,0.0,0.0,0.0,0.0,0.0,5.345015048980713,-0.3497301936149597,9.182564735412598,0.0,0.0,0.0,0.0,0.0,0.0,0.0,0.0,0.0,0.023863479495048523,0.04706569015979767,0.31873124837875366,0.0,0.0,0.0,0.0,0.0,0.0,0.0,0.0,0.0
1606827117833807240,1244248,1606827117807648629,imu_link,0.08010168373584747,0.0006934937555342913,0.04672134295105934,0.9956908822059631,0.0,0.0,0.0,0.0,0.0,0.0,0.0,0.0,0.0,5.345015048980713,-0.3497301936149597,9.182564735412598,0.0,0.0,0.0,0.0,0.0,0.0,0.0,0.0,0.0,0.023863479495048523,0.04706569015979767,0.31873124837875366,0.0,0.0,0.0,0.0,0.0,0.0,0.0,0.0,0.0
1606827117833824480,1244249,1606827117807810938,imu_link,0.08010289072990417,0.0006969301030039787,0.04672382026910782,0.9956907033920288,0.0,0.0,0.0,0.0,0.0,0.0,0.0,0.0,0.0,5.345329284667969,-0.34936729073524475,9.182721138000488,0.0,0.0,0.0,0.0,0.0,0.0,0.0,0.0,0.0,0.002257242565974593,0.0518321730196476,0.33621111512184143,0.0,0.0,0.0,0.0,0.0,0.0,0.0,0.0,0.0
1606827117833866199,1244250,1606827117807970792,imu_link,0.08010289072990417,0.0006969301030039787,0.04672382026910782,0.9956907033920288,0.0,0.0,0.0,0.0,0.0,0.0,0.0,0.0,0.0,5.345329284667969,-0.34936729073524475,9.182721138000488,0.0,0.0,0.0,0.0,0.0,0.0,0.0,0.0,0.0,0.002257242565974593,0.0518321730196476,0.33621111512184143,0.0,0.0,0.0,0.0,0.0,0.0,0.0,0.0,0.0
1606827117833887462,1244251,1606827117808126567,imu_link,0.08010303974151611,0.0006963741616345942,0.04672498628497124,0.9956905841827393,0.0,0.0,0.0,0.0,0.0,0.0,0.0,0.0,0.0,5.345457553863525,-0.3494422435760498,9.182734489440918,0.0,0.0,0.0,0.0,0.0,0.0,0.0,0.0,0.0,0.0026048924773931503,0.04247993975877762,0.31253811717033386,0.0,0.0,0.0,0.0,0.0,0.0,0.0,0.0,0.0
1606827117833902735,1244252,1606827117808323311,imu_link,0.08010303974151611,0.0006963741616345942,0.04672498628497124,0.9956905841827393,0.0,0.0,0.0,0.0,0.0,0.0,0.0,0.0,0.0,5.345457553863525,-0.3494422435760498,9.182734489440918,0.0,0.0,0.0,0.0,0.0,0.0,0.0,0.0,0.0,0.0026048924773931503,0.04247993975877762,0.31253811717033386,0.0,0.0,0.0,0.0,0.0,0.0,0.0,0.0,0.0
1606827117833921419,1244253,1606827117808488903,imu_link,0.08010552823543549,0.000699332042131573,0.046727512031793594,0.9956902861595154,0.0,0.0,0.0,0.0,0.0,0.0,0.0,0.0,0.0,5.345772743225098,-0.34914129972457886,9.183034896850586,0.0,0.0,0.0,0.0,0.0,0.0,0.0,0.0,0.0,0.01552388072013855,0.03702140599489212,0.3094080090522766,0.0,0.0,0.0,0.0,0.0,0.0,0.0,0.0,0.0
1606827117833931949,1244254,1606827117808642593,imu_link,0.08010552823543549,0.000699332042131573,0.046727512031793594,0.9956902861595154,0.0,0.0,0.0,0.0,0.0,0.0,0.0,0.0,0.0,5.345772743225098,-0.34914129972457886,9.183034896850586,0.0,0.0,0.0,0.0,0.0,0.0,0.0,0.0,0.0,0.01552388072013855,0.03702140599489212,0.3094080090522766,0.0,0.0,0.0,0.0,0.0,0.0,0.0,0.0,0.0
1606827117833939781,1244255,1606827117808794223,imu_link,0.08010569214820862,0.0006998952012509108,0.04672747850418091,0.9956902861595154,0.0,0.0,0.0,0.0,0.0,0.0,0.0,0.0,0.0,5.345773696899414,-0.34907761216163635,9.18305778503418,0.0,0.0,0.0,0.0,0.0,0.0,0.0,0.0,0.0,0.011668260209262371,0.05087900906801224,0.3208422064781189,0.0,0.0,0.0,0.0,0.0,0.0,0.0,0.0,0.0
1606827117833948921,1244256,1606827117808946970,imu_link,0.08010569214820862,0.0006998952012509108,0.04672747850418091,0.9956902861595154,0.0,0.0,0.0,0.0,0.0,0.0,0.0,0.0,0.0,5.345773696899414,-0.34907761216163635,9.18305778503418,0.0,0.0,0.0,0.0,0.0,0.0,0.0,0.0,0.0,0.011668260209262371,0.05087900906801224,0.3208422064781189,0.0,0.0,0.0,0.0,0.0,0.0,0.0,0.0,0.0
1606827117833957423,1244257,1606827117820676288,imu_link,0.08010496199131012,0.00070090068038553,0.04672844335436821,0.9956902861595154,0.0,0.0,0.0,0.0,0.0,0.0,0.0,0.0,0.0,5.345893383026123,-0.3489678204059601,9.182978630065918,0.0,0.0,0.0,0.0,0.0,0.0,0.0,0.0,0.0,0.014540926553308964,0.06499402970075607,0.3273831903934479,0.0,0.0,0.0,0.0,0.0,0.0,0.0,0.0,0.0
1606827117833964717,1244258,1606827117820869699,imu_link,0.08010496199131012,0.00070090068038553,0.04672844335436821,0.9956902861595154,0.0,0.0,0.0,0.0,0.0,0.0,0.0,0.0,0.0,5.345893383026123,-0.3489678204059601,9.182978630065918,0.0,0.0,0.0,0.0,0.0,0.0,0.0,0.0,0.0,0.014540926553308964,0.06499402970075607,0.3273831903934479,0.0,0.0,0.0,0.0,0.0,0.0,0.0,0.0,0.0
1606827117834188181,1244259,1606827117821041190,imu_link,0.0801050066947937,0.000702395336702466,0.04673023521900177,0.9956902265548706,0.0,0.0,0.0,0.0,0.0,0.0,0.0,0.0,0.0,5.346112251281738,-0.3488139808177948,9.182990074157715,0.0,0.0,0.0,0.0,0.0,0.0,0.0,0.0,0.0,0.0014788182452321053,0.04780898243188858,0.3296594023704529,0.0,0.0,0.0,0.0,0.0,0.0,0.0,0.0,0.0
1606827117834199949,1244260,1606827117821206707,imu_link,0.0801050066947937,0.000702395336702466,0.04673023521900177,0.9956902265548706,0.0,0.0,0.0,0.0,0.0,0.0,0.0,0.0,0.0,5.346112251281738,-0.3488139808177948,9.182990074157715,0.0,0.0,0.0,0.0,0.0,0.0,0.0,0.0,0.0,0.0014788182452321053,0.04780898243188858,0.3296594023704529,0.0,0.0,0.0,0.0,0.0,0.0,0.0,0.0,0.0
1606827117834216168,1244261,1606827117821372324,imu_link,0.0801040306687355,0.0007015325827524066,0.04673232138156891,0.9956901669502258,0.0,0.0,0.0,0.0,0.0,0.0,0.0,0.0,0.0,5.346343517303467,-0.3489263653755188,9.182872772216797,0.0,0.0,0.0,0.0,0.0,0.0,0.0,0.0,0.0,-0.0067748501896858215,0.022394347935914993,0.3154672384262085,0.0,0.0,0.0,0.0,0.0,0.0,0.0,0.0,0.0
1606827117834229078,1244262,1606827117821531872,imu_link,0.0801040306687355,0.0007015325827524066,0.04673232138156891,0.9956901669502258,0.0,0.0,0.0,0.0,0.0,0.0,0.0,0.0,0.0,5.346343517303467,-0.3489263653755188,9.182872772216797,0.0,0.0,0.0,0.0,0.0,0.0,0.0,0.0,0.0,-0.0067748501896858215,0.022394347935914993,0.3154672384262085,0.0,0.0,0.0,0.0,0.0,0.0,0.0,0.0,0.0
1606827117840913865,1244263,1606827117821699865,imu_link,0.08010392636060715,0.0007015726296231151,0.046732012182474136,0.9956902265548706,0.0,0.0,0.0,0.0,0.0,0.0,0.0,0.0,0.0,5.34630823135376,-0.3489183783531189,9.182861328125,0.0,0.0,0.0,0.0,0.0,0.0,0.0,0.0,0.0,0.0047415741719305515,0.0356794111430645,0.3114390969276428,0.0,0.0,0.0,0.0,0.0,0.0,0.0,0.0,0.0
1606827117840940799,1244264,1606827117821853259,imu_link,0.08010392636060715,0.0007015726296231151,0.046732012182474136,0.9956902265548706,0.0,0.0,0.0,0.0,0.0,0.0,0.0,0.0,0.0,5.34630823135376,-0.3489183783531189,9.182861328125,0.0,0.0,0.0,0.0,0.0,0.0,0.0,0.0,0.0,0.0047415741719305515,0.0356794111430645,0.3114390969276428,0.0,0.0,0.0,0.0,0.0,0.0,0.0,0.0,0.0
1606827117840959410,1244265,1606827117822019949,imu_link,0.08010658621788025,0.0007036473252810538,0.046732258051633835,0.9956899881362915,0.0,0.0,0.0,0.0,0.0,0.0,0.0,0.0,0.0,5.3463544845581055,-0.3486981987953186,9.18317699432373,0.0,0.0,0.0,0.0,0.0,0.0,0.0,0.0,0.0,-0.003973775543272495,0.0688905194401741,0.3329430818557739,0.0,0.0,0.0,0.0,0.0,0.0,0.0,0.0,0.0
1606827117840975048,1244266,1606827117822172812,imu_link,0.08010658621788025,0.0007036473252810538,0.046732258051633835,0.9956899881362915,0.0,0.0,0.0,0.0,0.0,0.0,0.0,0.0,0.0,5.3463544845581055,-0.3486981987953186,9.18317699432373,0.0,0.0,0.0,0.0,0.0,0.0,0.0,0.0,0.0,-0.003973775543272495,0.0688905194401741,0.3329430818557739,0.0,0.0,0.0,0.0,0.0,0.0,0.0,0.0,0.0
1606827117840983600,1244267,1606827117822327378,imu_link,0.0801057443022728,0.0007046316168271005,0.046733174473047256,0.9956900477409363,0.0,0.0,0.0,0.0,0.0,0.0,0.0,0.0,0.0,5.346467971801758,-0.34858977794647217,9.183085441589355,0.0,0.0,0.0,0.0,0.0,0.0,0.0,0.0,0.0,-0.009872076101601124,0.06975717097520828,0.34573355317115784,0.0,0.0,0.0,0.0,0.0,0.0,0.0,0.0,0.0
1606827117841456357,1244268,1606827117834409983,imu_link,0.0801057443022728,0.0007046316168271005,0.046733174473047256,0.9956900477409363,0.0,0.0,0.0,0.0,0.0,0.0,0.0,0.0,0.0,5.346467971801758,-0.34858977794647217,9.183085441589355,0.0,0.0,0.0,0.0,0.0,0.0,0.0,0.0,0.0,-0.009872076101601124,0.06975717097520828,0.34573355317115784,0.0,0.0,0.0,0.0,0.0,0.0,0.0,0.0,0.0
1606827117841481144,1244269,1606827117834547494,imu_link,0.08010339736938477,0.0007037412724457681,0.04673513025045395,0.9956901669502258,0.0,0.0,0.0,0.0,0.0,0.0,0.0,0.0,0.0,5.346683979034424,-0.3486967384815216,9.18281078338623,0.0,0.0,0.0,0.0,0.0,0.0,0.0,0.0,0.0,0.0009177826577797532,0.06342360377311707,0.35039591789245605,0.0,0.0,0.0,0.0,0.0,0.0,0.0,0.0,0.0
1606827117841502188,1244270,1606827117834646978,imu_link,0.08010339736938477,0.0007037412724457681,0.04673513025045395,0.9956901669502258,0.0,0.0,0.0,0.0,0.0,0.0,0.0,0.0,0.0,5.346683979034424,-0.3486967384815216,9.18281078338623,0.0,0.0,0.0,0.0,0.0,0.0,0.0,0.0,0.0,0.0009177826577797532,0.06342360377311707,0.35039591789245605,0.0,0.0,0.0,0.0,0.0,0.0,0.0,0.0,0.0
1606827117841513121,1244271,1606827117834779728,imu_link,0.08010423928499222,0.0007036497700028121,0.0467376708984375,0.9956899285316467,0.0,0.0,0.0,0.0,0.0,0.0,0.0,0.0,0.0,5.346973896026611,-0.3487350344657898,9.182907104492188,0.0,0.0,0.0,0.0,0.0,0.0,0.0,0.0,0.0,0.007368049584329128,0.052739668637514114,0.3499617278575897,0.0,0.0,0.0,0.0,0.0,0.0,0.0,0.0,0.0
1606827117843900654,1244272,1606827117834904204,imu_link,0.08010423928499222,0.0007036497700028121,0.0467376708984375,0.9956899285316467,0.0,0.0,0.0,0.0,0.0,0.0,0.0,0.0,0.0,5.346973896026611,-0.3487350344657898,9.182907104492188,0.0,0.0,0.0,0.0,0.0,0.0,0.0,0.0,0.0,0.007368049584329128,0.052739668637514114,0.3499617278575897,0.0,0.0,0.0,0.0,0.0,0.0,0.0,0.0,0.0
1606827117843917360,1244273,1606827117835053323,imu_link,0.08010460436344147,0.000704992504324764,0.04673748090863228,0.9956899285316467,0.0,0.0,0.0,0.0,0.0,0.0,0.0,0.0,0.0,5.346964359283447,-0.34858205914497375,9.182953834533691,0.0,0.0,0.0,0.0,0.0,0.0,0.0,0.0,0.0,0.012216989882290363,0.03556566312909126,0.3221571147441864,0.0,0.0,0.0,0.0,0.0,0.0,0.0,0.0,0.0
1606827117843951860,1244274,1606827117835184487,imu_link,0.08010460436344147,0.000704992504324764,0.04673748090863228,0.9956899285316467,0.0,0.0,0.0,0.0,0.0,0.0,0.0,0.0,0.0,5.346964359283447,-0.34858205914497375,9.182953834533691,0.0,0.0,0.0,0.0,0.0,0.0,0.0,0.0,0.0,0.012216989882290363,0.03556566312909126,0.3221571147441864,0.0,0.0,0.0,0.0,0.0,0.0,0.0,0.0,0.0
1606827117843960435,1244275,1606827117835359607,imu_link,0.08010520040988922,0.0007035471498966217,0.046736422926187515,0.9956899285316467,0.0,0.0,0.0,0.0,0.0,0.0,0.0,0.0,0.0,5.346829891204834,-0.34874045848846436,9.183016777038574,0.0,0.0,0.0,0.0,0.0,0.0,0.0,0.0,0.0,0.015604948624968529,0.04007202386856079,0.3198726177215576,0.0,0.0,0.0,0.0,0.0,0.0,0.0,0.0,0.0
1606827117843972112,1244276,1606827117835505949,imu_link,0.08010520040988922,0.0007035471498966217,0.046736422926187515,0.9956899285316467,0.0,0.0,0.0,0.0,0.0,0.0,0.0,0.0,0.0,5.346829891204834,-0.34874045848846436,9.183016777038574,0.0,0.0,0.0,0.0,0.0,0.0,0.0,0.0,0.0,0.015604948624968529,0.04007202386856079,0.3198726177215576,0.0,0.0,0.0,0.0,0.0,0.0,0.0,0.0,0.0
1606827117843986337,1244277,1606827117835641333,imu_link,0.08010613918304443,0.0007056028116494417,0.04673327878117561,0.9956899881362915,0.0,0.0,0.0,0.0,0.0,0.0,0.0,0.0,0.0,5.3464884757995605,-0.34848204255104065,9.183136940002441,0.0,0.0,0.0,0.0,0.0,0.0,0.0,0.0,0.0,0.017865605652332306,0.05042937025427818,0.30646881461143494,0.0,0.0,0.0,0.0,0.0,0.0,0.0,0.0,0.0
1606827117844008886,1244278,1606827117835778574,imu_link,0.08010613918304443,0.0007056028116494417,0.04673327878117561,0.9956899881362915,0.0,0.0,0.0,0.0,0.0,0.0,0.0,0.0,0.0,5.3464884757995605,-0.34848204255104065,9.183136940002441,0.0,0.0,0.0,0.0,0.0,0.0,0.0,0.0,0.0,0.017865605652332306,0.05042937025427818,0.30646881461143494,0.0,0.0,0.0,0.0,0.0,0.0,0.0,0.0,0.0
1606827117855759882,1244279,1606827117847424854,imu_link,0.08010707050561905,0.000705965212546289,0.04673401266336441,0.995689868927002,0.0,0.0,0.0,0.0,0.0,0.0,0.0,0.0,0.0,5.34657621383667,-0.3484524190425873,9.183244705200195,0.0,0.0,0.0,0.0,0.0,0.0,0.0,0.0,0.0,0.01682993583381176,0.05174997076392174,0.2890336811542511,0.0,0.0,0.0,0.0,0.0,0.0,0.0,0.0,0.0
1606827117856530790,1244280,1606827117847592699,imu_link,0.08010707050561905,0.000705965212546289,0.04673401266336441,0.995689868927002,0.0,0.0,0.0,0.0,0.0,0.0,0.0,0.0,0.0,5.34657621383667,-0.3484524190425873,9.183244705200195,0.0,0.0,0.0,0.0,0.0,0.0,0.0,0.0,0.0,0.01682993583381176,0.05174997076392174,0.2890336811542511,0.0,0.0,0.0,0.0,0.0,0.0,0.0,0.0,0.0
1606827117856543645,1244281,1606827117847720862,imu_link,0.0801066979765892,0.0007078245980665088,0.04672970995306969,0.995690107345581,0.0,0.0,0.0,0.0,0.0,0.0,0.0,0.0,0.0,5.3461012840271,-0.3481987416744232,9.183212280273438,0.0,0.0,0.0,0.0,0.0,0.0,0.0,0.0,0.0,0.006498362869024277,0.051064908504486084,0.314276784658432,0.0,0.0,0.0,0.0,0.0,0.0,0.0,0.0,0.0
1606827117856555554,1244282,1606827117847860660,imu_link,0.0801066979765892,0.0007078245980665088,0.04672970995306969,0.995690107345581,0.0,0.0,0.0,0.0,0.0,0.0,0.0,0.0,0.0,5.3461012840271,-0.3481987416744232,9.183212280273438,0.0,0.0,0.0,0.0,0.0,0.0,0.0,0.0,0.0,0.006498362869024277,0.051064908504486084,0.314276784658432,0.0,0.0,0.0,0.0,0.0,0.0,0.0,0.0,0.0
1606827117856566134,1244283,1606827117848019699,imu_link,0.0801062062382698,0.0007098221103660762,0.04673049598932266,0.995690107345581,0.0,0.0,0.0,0.0,0.0,0.0,0.0,0.0,0.0,5.346209526062012,-0.34797540307044983,9.183167457580566,0.0,0.0,0.0,0.0,0.0,0.0,0.0,0.0,0.0,-0.004029596224427223,0.04941726103425026,0.32601338624954224,0.0,0.0,0.0,0.0,0.0,0.0,0.0,0.0,0.0
1606827117857599799,1244284,1606827117848190493,imu_link,0.0801062062382698,0.0007098221103660762,0.04673049598932266,0.995690107345581,0.0,0.0,0.0,0.0,0.0,0.0,0.0,0.0,0.0,5.346209526062012,-0.34797540307044983,9.183167457580566,0.0,0.0,0.0,0.0,0.0,0.0,0.0,0.0,0.0,-0.004029596224427223,0.04941726103425026,0.32601338624954224,0.0,0.0,0.0,0.0,0.0,0.0,0.0,0.0,0.0
1606827117857615352,1244285,1606827117848322455,imu_link,0.08010654896497726,0.000710474094375968,0.04672487452626228,0.9956903457641602,0.0,0.0,0.0,0.0,0.0,0.0,0.0,0.0,0.0,5.345572471618652,-0.3478512465953827,9.183212280273438,0.0,0.0,0.0,0.0,0.0,0.0,0.0,0.0,0.0,0.002582106040790677,0.04374685883522034,0.3128214478492737,0.0,0.0,0.0,0.0,0.0,0.0,0.0,0.0,0.0
1606827117857631197,1244286,1606827117848461130,imu_link,0.08010654896497726,0.000710474094375968,0.04672487452626228,0.9956903457641602,0.0,0.0,0.0,0.0,0.0,0.0,0.0,0.0,0.0,5.345572471618652,-0.3478512465953827,9.183212280273438,0.0,0.0,0.0,0.0,0.0,0.0,0.0,0.0,0.0,0.002582106040790677,0.04374685883522034,0.3128214478492737,0.0,0.0,0.0,0.0,0.0,0.0,0.0,0.0,0.0
1606827117857655738,1244287,1606827117848600372,imu_link,0.08010685443878174,0.0007109941216185689,0.046726442873477936,0.9956902265548706,0.0,0.0,0.0,0.0,0.0,0.0,0.0,0.0,0.0,5.345756530761719,-0.34780794382095337,9.183249473571777,0.0,0.0,0.0,0.0,0.0,0.0,0.0,0.0,0.0,0.017862292006611824,0.04915045201778412,0.3048933744430542,0.0,0.0,0.0,0.0,0.0,0.0,0.0,0.0,0.0
1606827117857664366,1244288,1606827117848735123,imu_link,0.08010685443878174,0.0007109941216185689,0.046726442873477936,0.9956902265548706,0.0,0.0,0.0,0.0,0.0,0.0,0.0,0.0,0.0,5.345756530761719,-0.34780794382095337,9.183249473571777,0.0,0.0,0.0,0.0,0.0,0.0,0.0,0.0,0.0,0.017862292006611824,0.04915045201778412,0.3048933744430542,0.0,0.0,0.0,0.0,0.0,0.0,0.0,0.0,0.0
1606827117878760611,1244289,1606827117857293966,imu_link,0.0801059901714325,0.0007142993272282183,0.04672268033027649,0.9956904649734497,0.0,0.0,0.0,0.0,0.0,0.0,0.0,0.0,0.0,5.3453569412231445,-0.34739163517951965,9.1831693649292,0.0,0.0,0.0,0.0,0.0,0.0,0.0,0.0,0.0,0.010445356369018555,0.054932884871959686,0.3210099935531616,0.0,0.0,0.0,0.0,0.0,0.0,0.0,0.0,0.0
1606827117878779800,1244290,1606827117857718889,imu_link,0.0801059901714325,0.0007142993272282183,0.04672268033027649,0.9956904649734497,0.0,0.0,0.0,0.0,0.0,0.0,0.0,0.0,0.0,5.3453569412231445,-0.34739163517951965,9.1831693649292,0.0,0.0,0.0,0.0,0.0,0.0,0.0,0.0,0.0,0.010445356369018555,0.054932884871959686,0.3210099935531616,0.0,0.0,0.0,0.0,0.0,0.0,0.0,0.0,0.0
1606827117878788626,1244291,1606827117857873115,imu_link,0.08010688424110413,0.0007159790256991982,0.046721454709768295,0.9956904649734497,0.0,0.0,0.0,0.0,0.0,0.0,0.0,0.0,0.0,5.345231533050537,-0.34719353914260864,9.183280944824219,0.0,0.0,0.0,0.0,0.0,0.0,0.0,0.0,0.0,-0.004298051819205284,0.04269435256719589,0.34204503893852234,0.0,0.0,0.0,0.0,0.0,0.0,0.0,0.0,0.0
1606827117878800319,1244292,1606827117858050611,imu_link,0.08010688424110413,0.0007159790256991982,0.046721454709768295,0.9956904649734497,0.0,0.0,0.0,0.0,0.0,0.0,0.0,0.0,0.0,5.345231533050537,-0.34719353914260864,9.183280944824219,0.0,0.0,0.0,0.0,0.0,0.0,0.0,0.0,0.0,-0.004298051819205284,0.04269435256719589,0.34204503893852234,0.0,0.0,0.0,0.0,0.0,0.0,0.0,0.0,0.0
1606827117878815931,1244293,1606827117858192743,imu_link,0.08011039346456528,0.0007146159769035876,0.04671880975365639,0.9956902861595154,0.0,0.0,0.0,0.0,0.0,0.0,0.0,0.0,0.0,5.344915390014648,-0.3473435640335083,9.183677673339844,0.0,0.0,0.0,0.0,0.0,0.0,0.0,0.0,0.0,0.0003931662067770958,0.033735327422618866,0.3410061001777649,0.0,0.0,0.0,0.0,0.0,0.0,0.0,0.0,0.0
1606827117878841845,1244294,1606827117858328140,imu_link,0.08011039346456528,0.0007146159769035876,0.04671880975365639,0.9956902861595154,0.0,0.0,0.0,0.0,0.0,0.0,0.0,0.0,0.0,5.344915390014648,-0.3473435640335083,9.183677673339844,0.0,0.0,0.0,0.0,0.0,0.0,0.0,0.0,0.0,0.0003931662067770958,0.033735327422618866,0.3410061001777649,0.0,0.0,0.0,0.0,0.0,0.0,0.0,0.0,0.0
1606827117878903516,1244295,1606827117858457255,imu_link,0.08010972291231155,0.0007138398941606283,0.04671793803572655,0.9956904053688049,0.0,0.0,0.0,0.0,0.0,0.0,0.0,0.0,0.0,5.344809055328369,-0.34742051362991333,9.183597564697266,0.0,0.0,0.0,0.0,0.0,0.0,0.0,0.0,0.0,0.007625860162079334,0.05135210603475571,0.3193591237068176,0.0,0.0,0.0,0.0,0.0,0.0,0.0,0.0,0.0
1606827117878913987,1244296,1606827117858599009,imu_link,0.08010972291231155,0.0007138398941606283,0.04671793803572655,0.9956904053688049,0.0,0.0,0.0,0.0,0.0,0.0,0.0,0.0,0.0,5.344809055328369,-0.34742051362991333,9.183597564697266,0.0,0.0,0.0,0.0,0.0,0.0,0.0,0.0,0.0,0.007625860162079334,0.05135210603475571,0.3193591237068176,0.0,0.0,0.0,0.0,0.0,0.0,0.0,0.0,0.0
1606827117878929601,1244297,1606827117870725269,imu_link,0.08010977506637573,0.0007143219700083137,0.04671783372759819,0.9956904053688049,0.0,0.0,0.0,0.0,0.0,0.0,0.0,0.0,0.0,5.344801425933838,-0.3473648428916931,9.183605194091797,0.0,0.0,0.0,0.0,0.0,0.0,0.0,0.0,0.0,-0.008330886252224445,0.0709981843829155,0.31408214569091797,0.0,0.0,0.0,0.0,0.0,0.0,0.0,0.0,0.0
1606827117878972527,1244298,1606827117870862582,imu_link,0.08010977506637573,0.0007143219700083137,0.04671783372759819,0.9956904053688049,0.0,0.0,0.0,0.0,0.0,0.0,0.0,0.0,0.0,5.344801425933838,-0.3473648428916931,9.183605194091797,0.0,0.0,0.0,0.0,0.0,0.0,0.0,0.0,0.0,-0.008330886252224445,0.0709981843829155,0.31408214569091797,0.0,0.0,0.0,0.0,0.0,0.0,0.0,0.0,0.0
1606827117878981270,1244299,1606827117870985780,imu_link,0.08010970056056976,0.0007150223245844245,0.04671885073184967,0.9956903457641602,0.0,0.0,0.0,0.0,0.0,0.0,0.0,0.0,0.0,5.344924449920654,-0.3472938537597656,9.183602333068848,0.0,0.0,0.0,0.0,0.0,0.0,0.0,0.0,0.0,-0.00618419935926795,0.0595817007124424,0.32241055369377136,0.0,0.0,0.0,0.0,0.0,0.0,0.0,0.0,0.0
1606827117879022696,1244300,1606827117871094765,imu_link,0.08010970056056976,0.0007150223245844245,0.04671885073184967,0.9956903457641602,0.0,0.0,0.0,0.0,0.0,0.0,0.0,0.0,0.0,5.344924449920654,-0.3472938537597656,9.183602333068848,0.0,0.0,0.0,0.0,0.0,0.0,0.0,0.0,0.0,-0.00618419935926795,0.0595817007124424,0.32241055369377136,0.0,0.0,0.0,0.0,0.0,0.0,0.0,0.0,0.0
1606827117879033207,1244301,1606827117871204495,imu_link,0.08010928332805634,0.0007134972838684916,0.0467195101082325,0.9956903457641602,0.0,0.0,0.0,0.0,0.0,0.0,0.0,0.0,0.0,5.3449859619140625,-0.347471684217453,9.183544158935547,0.0,0.0,0.0,0.0,0.0,0.0,0.0,0.0,0.0,0.0178799107670784,0.0486811101436615,0.31810203194618225,0.0,0.0,0.0,0.0,0.0,0.0,0.0,0.0,0.0
1606827117879052915,1244302,1606827117871373966,imu_link,0.08010928332805634,0.0007134972838684916,0.0467195101082325,0.9956903457641602,0.0,0.0,0.0,0.0,0.0,0.0,0.0,0.0,0.0,5.3449859619140625,-0.347471684217453,9.183544158935547,0.0,0.0,0.0,0.0,0.0,0.0,0.0,0.0,0.0,0.0178799107670784,0.0486811101436615,0.31810203194618225,0.0,0.0,0.0,0.0,0.0,0.0,0.0,0.0,0.0
1606827117879256308,1244303,1606827117871535026,imu_link,0.0801098570227623,0.0007127654971554875,0.04672011733055115,0.9956902861595154,0.0,0.0,0.0,0.0,0.0,0.0,0.0,0.0,0.0,5.345048427581787,-0.34756383299827576,9.183606147766113,0.0,0.0,0.0,0.0,0.0,0.0,0.0,0.0,0.0,0.022275498136878014,0.05304711312055588,0.3206798732280731,0.0,0.0,0.0,0.0,0.0,0.0,0.0,0.0,0.0
1606827117879265848,1244304,1606827117871658899,imu_link,0.0801098570227623,0.0007127654971554875,0.04672011733055115,0.9956902861595154,0.0,0.0,0.0,0.0,0.0,0.0,0.0,0.0,0.0,5.345048427581787,-0.34756383299827576,9.183606147766113,0.0,0.0,0.0,0.0,0.0,0.0,0.0,0.0,0.0,0.022275498136878014,0.05304711312055588,0.3206798732280731,0.0,0.0,0.0,0.0,0.0,0.0,0.0,0.0,0.0
1606827117879282185,1244305,1606827117871784530,imu_link,0.08010990172624588,0.0007166789146140218,0.04672042280435562,0.9956902861595154,0.0,0.0,0.0,0.0,0.0,0.0,0.0,0.0,0.0,5.345118999481201,-0.34712037444114685,9.183631896972656,0.0,0.0,0.0,0.0,0.0,0.0,0.0,0.0,0.0,0.005129258148372173,0.06171787530183792,0.3254755437374115,0.0,0.0,0.0,0.0,0.0,0.0,0.0,0.0,0.0
1606827117879286454,1244306,1606827117871926445,imu_link,0.08010990172624588,0.0007166789146140218,0.04672042280435562,0.9956902861595154,0.0,0.0,0.0,0.0,0.0,0.0,0.0,0.0,0.0,5.345118999481201,-0.34712037444114685,9.183631896972656,0.0,0.0,0.0,0.0,0.0,0.0,0.0,0.0,0.0,0.005129258148372173,0.06171787530183792,0.3254755437374115,0.0,0.0,0.0,0.0,0.0,0.0,0.0,0.0,0.0
1606827117882484825,1244307,1606827117872069833,imu_link,0.0801093801856041,0.0007169920136220753,0.04672194644808769,0.9956902265548706,0.0,0.0,0.0,0.0,0.0,0.0,0.0,0.0,0.0,5.345296859741211,-0.3470958471298218,9.183572769165039,0.0,0.0,0.0,0.0,0.0,0.0,0.0,0.0,0.0,-0.010799674317240715,0.04860851913690567,0.33417409658432007,0.0,0.0,0.0,0.0,0.0,0.0,0.0,0.0,0.0
1606827117891207514,1244308,1606827117884544711,imu_link,0.0801093801856041,0.0007169920136220753,0.04672194644808769,0.9956902265548706,0.0,0.0,0.0,0.0,0.0,0.0,0.0,0.0,0.0,5.345296859741211,-0.3470958471298218,9.183572769165039,0.0,0.0,0.0,0.0,0.0,0.0,0.0,0.0,0.0,-0.010799674317240715,0.04860851913690567,0.33417409658432007,0.0,0.0,0.0,0.0,0.0,0.0,0.0,0.0,0.0
1606827117891615845,1244309,1606827117884721132,imu_link,0.08011049032211304,0.0007142805261537433,0.04672588035464287,0.9956899881362915,0.0,0.0,0.0,0.0,0.0,0.0,0.0,0.0,0.0,5.345721244812012,-0.34744730591773987,9.183685302734375,0.0,0.0,0.0,0.0,0.0,0.0,0.0,0.0,0.0,-0.009638907387852669,0.041446637362241745,0.3359992802143097,0.0,0.0,0.0,0.0,0.0,0.0,0.0,0.0,0.0
1606827117891635189,1244310,1606827117884896906,imu_link,0.08011049032211304,0.0007142805261537433,0.04672588035464287,0.9956899881362915,0.0,0.0,0.0,0.0,0.0,0.0,0.0,0.0,0.0,5.345721244812012,-0.34744730591773987,9.183685302734375,0.0,0.0,0.0,0.0,0.0,0.0,0.0,0.0,0.0,-0.009638907387852669,0.041446637362241745,0.3359992802143097,0.0,0.0,0.0,0.0,0.0,0.0,0.0,0.0,0.0
1606827117891644874,1244311,1606827117885053632,imu_link,0.08011124283075333,0.0007125705596990883,0.04672626778483391,0.9956899285316467,0.0,0.0,0.0,0.0,0.0,0.0,0.0,0.0,0.0,5.345749378204346,-0.3476499915122986,9.183762550354004,0.0,0.0,0.0,0.0,0.0,0.0,0.0,0.0,0.0,-0.007006947882473469,0.06084698438644409,0.3276636302471161,0.0,0.0,0.0,0.0,0.0,0.0,0.0,0.0,0.0
1606827117891656725,1244312,1606827117885208354,imu_link,0.08011124283075333,0.0007125705596990883,0.04672626778483391,0.9956899285316467,0.0,0.0,0.0,0.0,0.0,0.0,0.0,0.0,0.0,5.345749378204346,-0.3476499915122986,9.183762550354004,0.0,0.0,0.0,0.0,0.0,0.0,0.0,0.0,0.0,-0.007006947882473469,0.06084698438644409,0.3276636302471161,0.0,0.0,0.0,0.0,0.0,0.0,0.0,0.0,0.0
1606827117892609714,1244313,1606827117885346072,imu_link,0.08010958135128021,0.0007096289773471653,0.04672705754637718,0.9956900477409363,0.0,0.0,0.0,0.0,0.0,0.0,0.0,0.0,0.0,5.345812797546387,-0.3479839861392975,9.183554649353027,0.0,0.0,0.0,0.0,0.0,0.0,0.0,0.0,0.0,-0.007950891740620136,0.0735434889793396,0.3310356140136719,0.0,0.0,0.0,0.0,0.0,0.0,0.0,0.0,0.0
1606827117892626359,1244314,1606827117885502553,imu_link,0.08010958135128021,0.0007096289773471653,0.04672705754637718,0.9956900477409363,0.0,0.0,0.0,0.0,0.0,0.0,0.0,0.0,0.0,5.345812797546387,-0.3479839861392975,9.183554649353027,0.0,0.0,0.0,0.0,0.0,0.0,0.0,0.0,0.0,-0.007950891740620136,0.0735434889793396,0.3310356140136719,0.0,0.0,0.0,0.0,0.0,0.0,0.0,0.0,0.0
1606827117892658859,1244315,1606827117885648673,imu_link,0.08010803908109665,0.0007074407767504454,0.046726297587156296,0.995690107345581,0.0,0.0,0.0,0.0,0.0,0.0,0.0,0.0,0.0,5.345706939697266,-0.3482183814048767,9.183367729187012,0.0,0.0,0.0,0.0,0.0,0.0,0.0,0.0,0.0,-0.0019022021442651749,0.06985852122306824,0.3341639041900635,0.0,0.0,0.0,0.0,0.0,0.0,0.0,0.0,0.0
1606827117892672631,1244316,1606827117885786172,imu_link,0.08010803908109665,0.0007074407767504454,0.046726297587156296,0.995690107345581,0.0,0.0,0.0,0.0,0.0,0.0,0.0,0.0,0.0,5.345706939697266,-0.3482183814048767,9.183367729187012,0.0,0.0,0.0,0.0,0.0,0.0,0.0,0.0,0.0,-0.0019022021442651749,0.06985852122306824,0.3341639041900635,0.0,0.0,0.0,0.0,0.0,0.0,0.0,0.0,0.0
1606827117894684037,1244317,1606827117885926875,imu_link,0.08010499179363251,0.0007065314566716552,0.046726521104574203,0.9956903457641602,0.0,0.0,0.0,0.0,0.0,0.0,0.0,0.0,0.0,5.345726013183594,-0.34830784797668457,9.183012962341309,0.0,0.0,0.0,0.0,0.0,0.0,0.0,0.0,0.0,-0.003588346764445305,0.06538577377796173,0.32774466276168823,0.0,0.0,0.0,0.0,0.0,0.0,0.0,0.0,0.0
1606827117894702102,1244318,1606827117886059518,imu_link,0.08010499179363251,0.0007065314566716552,0.046726521104574203,0.9956903457641602,0.0,0.0,0.0,0.0,0.0,0.0,0.0,0.0,0.0,5.345726013183594,-0.34830784797668457,9.183012962341309,0.0,0.0,0.0,0.0,0.0,0.0,0.0,0.0,0.0,-0.003588346764445305,0.06538577377796173,0.32774466276168823,0.0,0.0,0.0,0.0,0.0,0.0,0.0,0.0,0.0
1606827117903748909,1244319,1606827117897415885,imu_link,0.08010483533143997,0.0007065927493385971,0.04672796651721001,0.9956903457641602,0.0,0.0,0.0,0.0,0.0,0.0,0.0,0.0,0.0,5.345890998840332,-0.3483133018016815,9.18299388885498,0.0,0.0,0.0,0.0,0.0,0.0,0.0,0.0,0.0,-0.0060582347214221954,0.06132017821073532,0.3229482173919678,0.0,0.0,0.0,0.0,0.0,0.0,0.0,0.0,0.0
1606827117904821572,1244320,1606827117897578884,imu_link,0.08010483533143997,0.0007065927493385971,0.04672796651721001,0.9956903457641602,0.0,0.0,0.0,0.0,0.0,0.0,0.0,0.0,0.0,5.345890998840332,-0.3483133018016815,9.18299388885498,0.0,0.0,0.0,0.0,0.0,0.0,0.0,0.0,0.0,-0.0060582347214221954,0.06132017821073532,0.3229482173919678,0.0,0.0,0.0,0.0,0.0,0.0,0.0,0.0,0.0
1606827117904839822,1244321,1606827117897698230,imu_link,0.08010289818048477,0.0007056455360725522,0.04672407731413841,0.995690643787384,0.0,0.0,0.0,0.0,0.0,0.0,0.0,0.0,0.0,5.345438480377197,-0.34837526082992554,9.182767868041992,0.0,0.0,0.0,0.0,0.0,0.0,0.0,0.0,0.0,0.00424750754609704,0.05570821091532707,0.3263191878795624,0.0,0.0,0.0,0.0,0.0,0.0,0.0,0.0,0.0
1606827117904858677,1244322,1606827117897894795,imu_link,0.08010289818048477,0.0007056455360725522,0.04672407731413841,0.995690643787384,0.0,0.0,0.0,0.0,0.0,0.0,0.0,0.0,0.0,5.345438480377197,-0.34837526082992554,9.182767868041992,0.0,0.0,0.0,0.0,0.0,0.0,0.0,0.0,0.0,0.00424750754609704,0.05570821091532707,0.3263191878795624,0.0,0.0,0.0,0.0,0.0,0.0,0.0,0.0,0.0
1606827117904868251,1244323,1606827117898041752,imu_link,0.08010302484035492,0.0007053667213767767,0.04672276973724365,0.9956907033920288,0.0,0.0,0.0,0.0,0.0,0.0,0.0,0.0,0.0,5.3452863693237305,-0.34839576482772827,9.182781219482422,0.0,0.0,0.0,0.0,0.0,0.0,0.0,0.0,0.0,0.013479752466082573,0.04670989140868187,0.30951520800590515,0.0,0.0,0.0,0.0,0.0,0.0,0.0,0.0,0.0
1606827117904874939,1244324,1606827117898195983,imu_link,0.08010302484035492,0.0007053667213767767,0.04672276973724365,0.9956907033920288,0.0,0.0,0.0,0.0,0.0,0.0,0.0,0.0,0.0,5.3452863693237305,-0.34839576482772827,9.182781219482422,0.0,0.0,0.0,0.0,0.0,0.0,0.0,0.0,0.0,0.013479752466082573,0.04670989140868187,0.30951520800590515,0.0,0.0,0.0,0.0,0.0,0.0,0.0,0.0,0.0
1606827117904882599,1244325,1606827117898327437,imu_link,0.08010202646255493,0.0007080183131620288,0.04672140255570412,0.9956908822059631,0.0,0.0,0.0,0.0,0.0,0.0,0.0,0.0,0.0,5.345154285430908,-0.3480753004550934,9.182682037353516,0.0,0.0,0.0,0.0,0.0,0.0,0.0,0.0,0.0,-0.007565532810986042,0.041096281260252,0.2950332760810852,0.0,0.0,0.0,0.0,0.0,0.0,0.0,0.0,0.0
1606827117906283474,1244326,1606827117898468831,imu_link,0.08010202646255493,0.0007080183131620288,0.04672140255570412,0.9956908822059631,0.0,0.0,0.0,0.0,0.0,0.0,0.0,0.0,0.0,5.345154285430908,-0.3480753004550934,9.182682037353516,0.0,0.0,0.0,0.0,0.0,0.0,0.0,0.0,0.0,-0.007565532810986042,0.041096281260252,0.2950332760810852,0.0,0.0,0.0,0.0,0.0,0.0,0.0,0.0,0.0
1606827117906300177,1244327,1606827117898606522,imu_link,0.08010166883468628,0.0007074540480971336,0.046722378581762314,0.9956908226013184,0.0,0.0,0.0,0.0,0.0,0.0,0.0,0.0,0.0,5.345261573791504,-0.3481467366218567,9.182636260986328,0.0,0.0,0.0,0.0,0.0,0.0,0.0,0.0,0.0,-0.026460450142621994,0.05040512979030609,0.30128538608551025,0.0,0.0,0.0,0.0,0.0,0.0,0.0,0.0,0.0
1606827117906309802,1244328,1606827117898741108,imu_link,0.08010166883468628,0.0007074540480971336,0.046722378581762314,0.9956908226013184,0.0,0.0,0.0,0.0,0.0,0.0,0.0,0.0,0.0,5.345261573791504,-0.3481467366218567,9.182636260986328,0.0,0.0,0.0,0.0,0.0,0.0,0.0,0.0,0.0,-0.026460450142621994,0.05040512979030609,0.30128538608551025,0.0,0.0,0.0,0.0,0.0,0.0,0.0,0.0,0.0
1606827117906319285,1244329,1606827117898874055,imu_link,0.0801028311252594,0.0007000894984230399,0.04671945795416832,0.9956909418106079,0.0,0.0,0.0,0.0,0.0,0.0,0.0,0.0,0.0,5.344858646392822,-0.34896641969680786,9.182731628417969,0.0,0.0,0.0,0.0,0.0,0.0,0.0,0.0,0.0,-0.007038147654384375,0.04693205654621124,0.3244948983192444,0.0,0.0,0.0,0.0,0.0,0.0,0.0,0.0,0.0
1606827117916805289,1244330,1606827117910651172,imu_link,0.0801028311252594,0.0007000894984230399,0.04671945795416832,0.9956909418106079,0.0,0.0,0.0,0.0,0.0,0.0,0.0,0.0,0.0,5.344858646392822,-0.34896641969680786,9.182731628417969,0.0,0.0,0.0,0.0,0.0,0.0,0.0,0.0,0.0,-0.007038147654384375,0.04693205654621124,0.3244948983192444,0.0,0.0,0.0,0.0,0.0,0.0,0.0,0.0,0.0
1606827117918430605,1244331,1606827117910779485,imu_link,0.0801045224070549,0.0007015771116130054,0.04671986401081085,0.9956907629966736,0.0,0.0,0.0,0.0,0.0,0.0,0.0,0.0,0.0,5.344918727874756,-0.34880951046943665,9.182933807373047,0.0,0.0,0.0,0.0,0.0,0.0,0.0,0.0,0.0,0.007178878877311945,0.06101246550679207,0.33815428614616394,0.0,0.0,0.0,0.0,0.0,0.0,0.0,0.0,0.0
1606827117918492293,1244332,1606827117910907752,imu_link,0.0801045224070549,0.0007015771116130054,0.04671986401081085,0.9956907629966736,0.0,0.0,0.0,0.0,0.0,0.0,0.0,0.0,0.0,5.344918727874756,-0.34880951046943665,9.182933807373047,0.0,0.0,0.0,0.0,0.0,0.0,0.0,0.0,0.0,0.007178878877311945,0.06101246550679207,0.33815428614616394,0.0,0.0,0.0,0.0,0.0,0.0,0.0,0.0,0.0
1606827117918505930,1244333,1606827117911032553,imu_link,0.08010358363389969,0.0006996642332524061,0.04671693965792656,0.9956910014152527,0.0,0.0,0.0,0.0,0.0,0.0,0.0,0.0,0.0,5.344566822052002,-0.3489958941936493,9.182817459106445,0.0,0.0,0.0,0.0,0.0,0.0,0.0,0.0,0.0,0.012550531886518002,0.0758667066693306,0.3268474340438843,0.0,0.0,0.0,0.0,0.0,0.0,0.0,0.0,0.0
1606827117918520151,1244334,1606827117911156880,imu_link,0.08010358363389969,0.0006996642332524061,0.04671693965792656,0.9956910014152527,0.0,0.0,0.0,0.0,0.0,0.0,0.0,0.0,0.0,5.344566822052002,-0.3489958941936493,9.182817459106445,0.0,0.0,0.0,0.0,0.0,0.0,0.0,0.0,0.0,0.012550531886518002,0.0758667066693306,0.3268474340438843,0.0,0.0,0.0,0.0,0.0,0.0,0.0,0.0,0.0
1606827117918574367,1244335,1606827117911342509,imu_link,0.08010248094797134,0.000702813034877181,0.046717070043087006,0.9956910610198975,0.0,0.0,0.0,0.0,0.0,0.0,0.0,0.0,0.0,5.344611644744873,-0.34863191843032837,9.182706832885742,0.0,0.0,0.0,0.0,0.0,0.0,0.0,0.0,0.0,0.01736338809132576,0.06834079325199127,0.32535845041275024,0.0,0.0,0.0,0.0,0.0,0.0,0.0,0.0,0.0
1606827117918596619,1244336,1606827117911476646,imu_link,0.08010248094797134,0.000702813034877181,0.046717070043087006,0.9956910610198975,0.0,0.0,0.0,0.0,0.0,0.0,0.0,0.0,0.0,5.344611644744873,-0.34863191843032837,9.182706832885742,0.0,0.0,0.0,0.0,0.0,0.0,0.0,0.0,0.0,0.01736338809132576,0.06834079325199127,0.32535845041275024,0.0,0.0,0.0,0.0,0.0,0.0,0.0,0.0,0.0
1606827117918636591,1244337,1606827117911621745,imu_link,0.08009788393974304,0.0007071308209560812,0.04671955108642578,0.9956912994384766,0.0,0.0,0.0,0.0,0.0,0.0,0.0,0.0,0.0,5.344936370849609,-0.34813737869262695,9.182202339172363,0.0,0.0,0.0,0.0,0.0,0.0,0.0,0.0,0.0,0.015855420380830765,0.05670219659805298,0.3101382553577423,0.0,0.0,0.0,0.0,0.0,0.0,0.0,0.0,0.0
1606827117918653380,1244338,1606827117911761583,imu_link,0.08009788393974304,0.0007071308209560812,0.04671955108642578,0.9956912994384766,0.0,0.0,0.0,0.0,0.0,0.0,0.0,0.0,0.0,5.344936370849609,-0.34813737869262695,9.182202339172363,0.0,0.0,0.0,0.0,0.0,0.0,0.0,0.0,0.0,0.015855420380830765,0.05670219659805298,0.3101382553577423,0.0,0.0,0.0,0.0,0.0,0.0,0.0,0.0,0.0
1606827117919376925,1244339,1606827117911902013,imu_link,0.08009745180606842,0.0007092306623235345,0.04671783000230789,0.9956914186477661,0.0,0.0,0.0,0.0,0.0,0.0,0.0,0.0,0.0,5.3447585105896,-0.34787964820861816,9.182164192199707,0.0,0.0,0.0,0.0,0.0,0.0,0.0,0.0,0.0,0.01659325510263443,0.040245361626148224,0.3131977915763855,0.0,0.0,0.0,0.0,0.0,0.0,0.0,0.0,0.0
1606827117931059295,1244340,1606827117924693929,imu_link,0.08009745180606842,0.0007092306623235345,0.04671783000230789,0.9956914186477661,0.0,0.0,0.0,0.0,0.0,0.0,0.0,0.0,0.0,5.3447585105896,-0.34787964820861816,9.182164192199707,0.0,0.0,0.0,0.0,0.0,0.0,0.0,0.0,0.0,0.01659325510263443,0.040245361626148224,0.3131977915763855,0.0,0.0,0.0,0.0,0.0,0.0,0.0,0.0,0.0
1606827117931915808,1244341,1606827117924863708,imu_link,0.08009956032037735,0.0007131279562599957,0.046721648424863815,0.9956910610198975,0.0,0.0,0.0,0.0,0.0,0.0,0.0,0.0,0.0,5.345229625701904,-0.347481369972229,9.182425498962402,0.0,0.0,0.0,0.0,0.0,0.0,0.0,0.0,0.0,0.00692003546282649,0.04031810164451599,0.31154724955558777,0.0,0.0,0.0,0.0,0.0,0.0,0.0,0.0,0.0
1606827117931930697,1244342,1606827117924992610,imu_link,0.08009956032037735,0.0007131279562599957,0.046721648424863815,0.9956910610198975,0.0,0.0,0.0,0.0,0.0,0.0,0.0,0.0,0.0,5.345229625701904,-0.347481369972229,9.182425498962402,0.0,0.0,0.0,0.0,0.0,0.0,0.0,0.0,0.0,0.00692003546282649,0.04031810164451599,0.31154724955558777,0.0,0.0,0.0,0.0,0.0,0.0,0.0,0.0,0.0
1606827117931938612,1244343,1606827117925138844,imu_link,0.0800994485616684,0.000712853972800076,0.04672185704112053,0.9956910610198975,0.0,0.0,0.0,0.0,0.0,0.0,0.0,0.0,0.0,5.345251083374023,-0.34751391410827637,9.18241024017334,0.0,0.0,0.0,0.0,0.0,0.0,0.0,0.0,0.0,0.00013252894859761,0.06261041015386581,0.31478461623191833,0.0,0.0,0.0,0.0,0.0,0.0,0.0,0.0,0.0
1606827117931956217,1244344,1606827117925295817,imu_link,0.0800994485616684,0.000712853972800076,0.04672185704112053,0.9956910610198975,0.0,0.0,0.0,0.0,0.0,0.0,0.0,0.0,0.0,5.345251083374023,-0.34751391410827637,9.18241024017334,0.0,0.0,0.0,0.0,0.0,0.0,0.0,0.0,0.0,0.00013252894859761,0.06261041015386581,0.31478461623191833,0.0,0.0,0.0,0.0,0.0,0.0,0.0,0.0,0.0
1606827117935283580,1244345,1606827117925452191,imu_link,0.0800970271229744,0.0007125039701350033,0.04672348499298096,0.995691180229187,0.0,0.0,0.0,0.0,0.0,0.0,0.0,0.0,0.0,5.345436096191406,-0.34755581617355347,9.182129859924316,0.0,0.0,0.0,0.0,0.0,0.0,0.0,0.0,0.0,0.010504516772925854,0.06555880606174469,0.3343888521194458,0.0,0.0,0.0,0.0,0.0,0.0,0.0,0.0,0.0
1606827117935300661,1244346,1606827117925612217,imu_link,0.0800970271229744,0.0007125039701350033,0.04672348499298096,0.995691180229187,0.0,0.0,0.0,0.0,0.0,0.0,0.0,0.0,0.0,5.345436096191406,-0.34755581617355347,9.182129859924316,0.0,0.0,0.0,0.0,0.0,0.0,0.0,0.0,0.0,0.010504516772925854,0.06555880606174469,0.3343888521194458,0.0,0.0,0.0,0.0,0.0,0.0,0.0,0.0,0.0
1606827117935315150,1244347,1606827117925757491,imu_link,0.08009844273328781,0.0007132742903195322,0.046725913882255554,0.9956909418106079,0.0,0.0,0.0,0.0,0.0,0.0,0.0,0.0,0.0,5.345719814300537,-0.347497820854187,9.182294845581055,0.0,0.0,0.0,0.0,0.0,0.0,0.0,0.0,0.0,0.0143692996352911,0.04477451741695404,0.3073080778121948,0.0,0.0,0.0,0.0,0.0,0.0,0.0,0.0,0.0
1606827117935331327,1244348,1606827117925893466,imu_link,0.08009844273328781,0.0007132742903195322,0.046725913882255554,0.9956909418106079,0.0,0.0,0.0,0.0,0.0,0.0,0.0,0.0,0.0,5.345719814300537,-0.347497820854187,9.182294845581055,0.0,0.0,0.0,0.0,0.0,0.0,0.0,0.0,0.0,0.0143692996352911,0.04477451741695404,0.3073080778121948,0.0,0.0,0.0,0.0,0.0,0.0,0.0,0.0,0.0
1606827117936879225,1244349,1606827117926031804,imu_link,0.08009796589612961,0.000714547059033066,0.046728670597076416,0.9956908822059631,0.0,0.0,0.0,0.0,0.0,0.0,0.0,0.0,0.0,5.346046447753906,-0.34737536311149597,9.18224811553955,0.0,0.0,0.0,0.0,0.0,0.0,0.0,0.0,0.0,0.004911788739264011,0.03096124902367592,0.31091001629829407,0.0,0.0,0.0,0.0,0.0,0.0,0.0,0.0,0.0
1606827117936890180,1244350,1606827117926162046,imu_link,0.08009796589612961,0.000714547059033066,0.046728670597076416,0.9956908822059631,0.0,0.0,0.0,0.0,0.0,0.0,0.0,0.0,0.0,5.346046447753906,-0.34737536311149597,9.18224811553955,0.0,0.0,0.0,0.0,0.0,0.0,0.0,0.0,0.0,0.004911788739264011,0.03096124902367592,0.31091001629829407,0.0,0.0,0.0,0.0,0.0,0.0,0.0,0.0,0.0
1606827117944506333,1244351,1606827117938158363,imu_link,0.08009709417819977,0.0007142685353755951,0.046728141605854034,0.9956909418106079,0.0,0.0,0.0,0.0,0.0,0.0,0.0,0.0,0.0,5.345983505249023,-0.3473976254463196,9.182146072387695,0.0,0.0,0.0,0.0,0.0,0.0,0.0,0.0,0.0,-0.004190889187157154,0.04754157364368439,0.33005616068840027,0.0,0.0,0.0,0.0,0.0,0.0,0.0,0.0,0.0
1606827117945324737,1244352,1606827117938350808,imu_link,0.08009709417819977,0.0007142685353755951,0.046728141605854034,0.9956909418106079,0.0,0.0,0.0,0.0,0.0,0.0,0.0,0.0,0.0,5.345983505249023,-0.3473976254463196,9.182146072387695,0.0,0.0,0.0,0.0,0.0,0.0,0.0,0.0,0.0,-0.004190889187157154,0.04754157364368439,0.33005616068840027,0.0,0.0,0.0,0.0,0.0,0.0,0.0,0.0,0.0
1606827117945343460,1244353,1606827117938489653,imu_link,0.08009837567806244,0.0007131556048989296,0.04672854021191597,0.9956908226013184,0.0,0.0,0.0,0.0,0.0,0.0,0.0,0.0,0.0,5.346019268035889,-0.3475351333618164,9.182287216186523,0.0,0.0,0.0,0.0,0.0,0.0,0.0,0.0,0.0,-0.005282731261104345,0.06302793323993683,0.32566121220588684,0.0,0.0,0.0,0.0,0.0,0.0,0.0,0.0,0.0
1606827117945354071,1244354,1606827117938653015,imu_link,0.08009837567806244,0.0007131556048989296,0.04672854021191597,0.9956908226013184,0.0,0.0,0.0,0.0,0.0,0.0,0.0,0.0,0.0,5.346019268035889,-0.3475351333618164,9.182287216186523,0.0,0.0,0.0,0.0,0.0,0.0,0.0,0.0,0.0,-0.005282731261104345,0.06302793323993683,0.32566121220588684,0.0,0.0,0.0,0.0,0.0,0.0,0.0,0.0,0.0
1606827117945365458,1244355,1606827117938834569,imu_link,0.08009777218103409,0.0007154891500249505,0.04673217236995697,0.9956907033920288,0.0,0.0,0.0,0.0,0.0,0.0,0.0,0.0,0.0,5.346456050872803,-0.3472989797592163,9.182229042053223,0.0,0.0,0.0,0.0,0.0,0.0,0.0,0.0,0.0,-0.001105334609746933,0.06001516431570053,0.3318948447704315,0.0,0.0,0.0,0.0,0.0,0.0,0.0,0.0,0.0
1606827117946282646,1244356,1606827117939000267,imu_link,0.08009777218103409,0.0007154891500249505,0.04673217236995697,0.9956907033920288,0.0,0.0,0.0,0.0,0.0,0.0,0.0,0.0,0.0,5.346456050872803,-0.3472989797592163,9.182229042053223,0.0,0.0,0.0,0.0,0.0,0.0,0.0,0.0,0.0,-0.001105334609746933,0.06001516431570053,0.3318948447704315,0.0,0.0,0.0,0.0,0.0,0.0,0.0,0.0,0.0
1606827117946299628,1244357,1606827117939180337,imu_link,0.08009801059961319,0.0007153156329877675,0.04673149436712265,0.9956907629966736,0.0,0.0,0.0,0.0,0.0,0.0,0.0,0.0,0.0,5.346375942230225,-0.34731385111808777,9.182254791259766,0.0,0.0,0.0,0.0,0.0,0.0,0.0,0.0,0.0,0.003151520388200879,0.060537926852703094,0.33294063806533813,0.0,0.0,0.0,0.0,0.0,0.0,0.0,0.0,0.0
1606827117946313989,1244358,1606827117939379617,imu_link,0.08009801059961319,0.0007153156329877675,0.04673149436712265,0.9956907629966736,0.0,0.0,0.0,0.0,0.0,0.0,0.0,0.0,0.0,5.346375942230225,-0.34731385111808777,9.182254791259766,0.0,0.0,0.0,0.0,0.0,0.0,0.0,0.0,0.0,0.003151520388200879,0.060537926852703094,0.33294063806533813,0.0,0.0,0.0,0.0,0.0,0.0,0.0,0.0,0.0
1606827117946329811,1244359,1606827117939538709,imu_link,0.08009782433509827,0.0007164568523876369,0.04673198610544205,0.9956907033920288,0.0,0.0,0.0,0.0,0.0,0.0,0.0,0.0,0.0,5.346443176269531,-0.3471871614456177,9.18224048614502,0.0,0.0,0.0,0.0,0.0,0.0,0.0,0.0,0.0,0.0005632528336718678,0.07141100615262985,0.3261154294013977,0.0,0.0,0.0,0.0,0.0,0.0,0.0,0.0,0.0
1606827117946342518,1244360,1606827117939691267,imu_link,0.08009782433509827,0.0007164568523876369,0.04673198610544205,0.9956907033920288,0.0,0.0,0.0,0.0,0.0,0.0,0.0,0.0,0.0,5.346443176269531,-0.3471871614456177,9.18224048614502,0.0,0.0,0.0,0.0,0.0,0.0,0.0,0.0,0.0,0.0005632528336718678,0.07141100615262985,0.3261154294013977,0.0,0.0,0.0,0.0,0.0,0.0,0.0,0.0,0.0
1606827117946356640,1244361,1606827117939838592,imu_link,0.08009303361177444,0.000715307891368866,0.0467337965965271,0.9956910014152527,0.0,0.0,0.0,0.0,0.0,0.0,0.0,0.0,0.0,5.346642017364502,-0.3473091721534729,9.181682586669922,0.0,0.0,0.0,0.0,0.0,0.0,0.0,0.0,0.0,0.004844403825700283,0.07197988033294678,0.31123775243759155,0.0,0.0,0.0,0.0,0.0,0.0,0.0,0.0,0.0
1606827117958478359,1244362,1606827117951910068,imu_link,0.08009303361177444,0.000715307891368866,0.0467337965965271,0.9956910014152527,0.0,0.0,0.0,0.0,0.0,0.0,0.0,0.0,0.0,5.346642017364502,-0.3473091721534729,9.181682586669922,0.0,0.0,0.0,0.0,0.0,0.0,0.0,0.0,0.0,0.004844403825700283,0.07197988033294678,0.31123775243759155,0.0,0.0,0.0,0.0,0.0,0.0,0.0,0.0,0.0
1606827117959489054,1244363,1606827117952101004,imu_link,0.08009231835603714,0.0007149108569137752,0.04673691466450691,0.9956908822059631,0.0,0.0,0.0,0.0,0.0,0.0,0.0,0.0,0.0,5.346994400024414,-0.34737929701805115,9.181598663330078,0.0,0.0,0.0,0.0,0.0,0.0,0.0,0.0,0.0,0.011035836301743984,0.05444259196519852,0.3039534389972687,0.0,0.0,0.0,0.0,0.0,0.0,0.0,0.0,0.0
1606827117959512346,1244364,1606827117952255495,imu_link,0.08009231835603714,0.0007149108569137752,0.04673691466450691,0.9956908822059631,0.0,0.0,0.0,0.0,0.0,0.0,0.0,0.0,0.0,5.346994400024414,-0.34737929701805115,9.181598663330078,0.0,0.0,0.0,0.0,0.0,0.0,0.0,0.0,0.0,0.011035836301743984,0.05444259196519852,0.3039534389972687,0.0,0.0,0.0,0.0,0.0,0.0,0.0,0.0,0.0
1606827117959564109,1244365,1606827117952487937,imu_link,0.08009161055088043,0.0007177831139415503,0.04674003645777702,0.9956908226013184,0.0,0.0,0.0,0.0,0.0,0.0,0.0,0.0,0.0,5.347378253936768,-0.347076416015625,9.181530952453613,0.0,0.0,0.0,0.0,0.0,0.0,0.0,0.0,0.0,-0.006618768908083439,0.06567976623773575,0.3372887372970581,0.0,0.0,0.0,0.0,0.0,0.0,0.0,0.0,0.0
1606827117959586424,1244366,1606827117952652953,imu_link,0.08009161055088043,0.0007177831139415503,0.04674003645777702,0.9956908226013184,0.0,0.0,0.0,0.0,0.0,0.0,0.0,0.0,0.0,5.347378253936768,-0.347076416015625,9.181530952453613,0.0,0.0,0.0,0.0,0.0,0.0,0.0,0.0,0.0,-0.006618768908083439,0.06567976623773575,0.3372887372970581,0.0,0.0,0.0,0.0,0.0,0.0,0.0,0.0,0.0
1606827117959599113,1244367,1606827117952835604,imu_link,0.0800919160246849,0.0007199262618087232,0.046738069504499435,0.9956908822059631,0.0,0.0,0.0,0.0,0.0,0.0,0.0,0.0,0.0,5.347172737121582,-0.34681543707847595,9.1815767288208,0.0,0.0,0.0,0.0,0.0,0.0,0.0,0.0,0.0,-0.02832299843430519,0.07047858834266663,0.3281794786453247,0.0,0.0,0.0,0.0,0.0,0.0,0.0,0.0,0.0
1606827117959616790,1244368,1606827117952983165,imu_link,0.0800919160246849,0.0007199262618087232,0.046738069504499435,0.9956908822059631,0.0,0.0,0.0,0.0,0.0,0.0,0.0,0.0,0.0,5.347172737121582,-0.34681543707847595,9.1815767288208,0.0,0.0,0.0,0.0,0.0,0.0,0.0,0.0,0.0,-0.02832299843430519,0.07047858834266663,0.3281794786453247,0.0,0.0,0.0,0.0,0.0,0.0,0.0,0.0,0.0
1606827117960346316,1244369,1606827117953142904,imu_link,0.0800885334610939,0.0007125097909010947,0.04674120247364044,0.9956910014152527,0.0,0.0,0.0,0.0,0.0,0.0,0.0,0.0,0.0,5.347464561462402,-0.3476722836494446,9.18114948272705,0.0,0.0,0.0,0.0,0.0,0.0,0.0,0.0,0.0,-0.020288312807679176,0.060754552483558655,0.29324871301651,0.0,0.0,0.0,0.0,0.0,0.0,0.0,0.0,0.0
1606827117960362180,1244370,1606827117953299575,imu_link,0.0800885334610939,0.0007125097909010947,0.04674120247364044,0.9956910014152527,0.0,0.0,0.0,0.0,0.0,0.0,0.0,0.0,0.0,5.347464561462402,-0.3476722836494446,9.18114948272705,0.0,0.0,0.0,0.0,0.0,0.0,0.0,0.0,0.0,-0.020288312807679176,0.060754552483558655,0.29324871301651,0.0,0.0,0.0,0.0,0.0,0.0,0.0,0.0,0.0
1606827117960370873,1244371,1606827117953452358,imu_link,0.08008914440870285,0.0007141144596971571,0.046739812940359116,0.9956910014152527,0.0,0.0,0.0,0.0,0.0,0.0,0.0,0.0,0.0,5.347320556640625,-0.3474797308444977,9.181227684020996,0.0,0.0,0.0,0.0,0.0,0.0,0.0,0.0,0.0,-0.015808947384357452,0.048798952251672745,0.3243963420391083,0.0,0.0,0.0,0.0,0.0,0.0,0.0,0.0,0.0
1606827117960380375,1244372,1606827117953602615,imu_link,0.08008914440870285,0.0007141144596971571,0.046739812940359116,0.9956910014152527,0.0,0.0,0.0,0.0,0.0,0.0,0.0,0.0,0.0,5.347320556640625,-0.3474797308444977,9.181227684020996,0.0,0.0,0.0,0.0,0.0,0.0,0.0,0.0,0.0,-0.015808947384357452,0.048798952251672745,0.3243963420391083,0.0,0.0,0.0,0.0,0.0,0.0,0.0,0.0,0.0
1606827117971232647,1244373,1606827117964853057,imu_link,0.08009001612663269,0.0007107415585778654,0.04674132540822029,0.9956908822059631,0.0,0.0,0.0,0.0,0.0,0.0,0.0,0.0,0.0,5.347461700439453,-0.3478831350803375,9.181309700012207,0.0,0.0,0.0,0.0,0.0,0.0,0.0,0.0,0.0,-0.02160053327679634,0.04359886795282364,0.3324601650238037,0.0,0.0,0.0,0.0,0.0,0.0,0.0,0.0,0.0
1606827117973369273,1244374,1606827117965046699,imu_link,0.08009001612663269,0.0007107415585778654,0.04674132540822029,0.9956908822059631,0.0,0.0,0.0,0.0,0.0,0.0,0.0,0.0,0.0,5.347461700439453,-0.3478831350803375,9.181309700012207,0.0,0.0,0.0,0.0,0.0,0.0,0.0,0.0,0.0,-0.02160053327679634,0.04359886795282364,0.3324601650238037,0.0,0.0,0.0,0.0,0.0,0.0,0.0,0.0,0.0
1606827117973390841,1244375,1606827117965195417,imu_link,0.08009012788534164,0.0007111229933798313,0.04674331843852997,0.9956907629966736,0.0,0.0,0.0,0.0,0.0,0.0,0.0,0.0,0.0,5.347692966461182,-0.3478585183620453,9.181324005126953,0.0,0.0,0.0,0.0,0.0,0.0,0.0,0.0,0.0,-0.015524331480264664,0.051362983882427216,0.30333441495895386,0.0,0.0,0.0,0.0,0.0,0.0,0.0,0.0,0.0
1606827117973403163,1244376,1606827117965364026,imu_link,0.08009012788534164,0.0007111229933798313,0.04674331843852997,0.9956907629966736,0.0,0.0,0.0,0.0,0.0,0.0,0.0,0.0,0.0,5.347692966461182,-0.3478585183620453,9.181324005126953,0.0,0.0,0.0,0.0,0.0,0.0,0.0,0.0,0.0,-0.015524331480264664,0.051362983882427216,0.30333441495895386,0.0,0.0,0.0,0.0,0.0,0.0,0.0,0.0,0.0
1606827117973411313,1244377,1606827117965547429,imu_link,0.08008915930986404,0.0007057044422253966,0.04673874005675316,0.9956910610198975,0.0,0.0,0.0,0.0,0.0,0.0,0.0,0.0,0.0,5.347120761871338,-0.34842953085899353,9.181185722351074,0.0,0.0,0.0,0.0,0.0,0.0,0.0,0.0,0.0,-0.009819152764976025,0.050952065736055374,0.3047599494457245,0.0,0.0,0.0,0.0,0.0,0.0,0.0,0.0,0.0
1606827117973420425,1244378,1606827117965738225,imu_link,0.08008915930986404,0.0007057044422253966,0.04673874005675316,0.9956910610198975,0.0,0.0,0.0,0.0,0.0,0.0,0.0,0.0,0.0,5.347120761871338,-0.34842953085899353,9.181185722351074,0.0,0.0,0.0,0.0,0.0,0.0,0.0,0.0,0.0,-0.009819152764976025,0.050952065736055374,0.3047599494457245,0.0,0.0,0.0,0.0,0.0,0.0,0.0,0.0,0.0
1606827117975507443,1244379,1606827117965888025,imu_link,0.08008720725774765,0.0007069127168506384,0.04673919826745987,0.9956912398338318,0.0,0.0,0.0,0.0,0.0,0.0,0.0,0.0,0.0,5.347184658050537,-0.34828540682792664,9.180968284606934,0.0,0.0,0.0,0.0,0.0,0.0,0.0,0.0,0.0,-0.006435622461140156,0.04167669266462326,0.29858696460723877,0.0,0.0,0.0,0.0,0.0,0.0,0.0,0.0,0.0
1606827117975526261,1244380,1606827117966046586,imu_link,0.08008720725774765,0.0007069127168506384,0.04673919826745987,0.9956912398338318,0.0,0.0,0.0,0.0,0.0,0.0,0.0,0.0,0.0,5.347184658050537,-0.34828540682792664,9.180968284606934,0.0,0.0,0.0,0.0,0.0,0.0,0.0,0.0,0.0,-0.006435622461140156,0.04167669266462326,0.29858696460723877,0.0,0.0,0.0,0.0,0.0,0.0,0.0,0.0,0.0
1606827117975534668,1244381,1606827117966207613,imu_link,0.08008961379528046,0.0007060329080559313,0.046733107417821884,0.9956913590431213,0.0,0.0,0.0,0.0,0.0,0.0,0.0,0.0,0.0,5.3464789390563965,-0.34834274649620056,9.181241035461426,0.0,0.0,0.0,0.0,0.0,0.0,0.0,0.0,0.0,-0.0014447967987507582,0.038168564438819885,0.2909899652004242,0.0,0.0,0.0,0.0,0.0,0.0,0.0,0.0,0.0
1606827117975542865,1244382,1606827117966359408,imu_link,0.08008961379528046,0.0007060329080559313,0.046733107417821884,0.9956913590431213,0.0,0.0,0.0,0.0,0.0,0.0,0.0,0.0,0.0,5.3464789390563965,-0.34834274649620056,9.181241035461426,0.0,0.0,0.0,0.0,0.0,0.0,0.0,0.0,0.0,-0.0014447967987507582,0.038168564438819885,0.2909899652004242,0.0,0.0,0.0,0.0,0.0,0.0,0.0,0.0,0.0
1606827117984624637,1244383,1606827117978230512,imu_link,0.08009167015552521,0.0007065453683026135,0.04673437774181366,0.9956911206245422,0.0,0.0,0.0,0.0,0.0,0.0,0.0,0.0,0.0,5.346628189086914,-0.3483069837093353,9.181480407714844,0.0,0.0,0.0,0.0,0.0,0.0,0.0,0.0,0.0,0.003651235718280077,0.04888252913951874,0.3184697926044464,0.0,0.0,0.0,0.0,0.0,0.0,0.0,0.0,0.0
1606827117985993514,1244384,1606827117978420095,imu_link,0.08009167015552521,0.0007065453683026135,0.04673437774181366,0.9956911206245422,0.0,0.0,0.0,0.0,0.0,0.0,0.0,0.0,0.0,5.346628189086914,-0.3483069837093353,9.181480407714844,0.0,0.0,0.0,0.0,0.0,0.0,0.0,0.0,0.0,0.003651235718280077,0.04888252913951874,0.3184697926044464,0.0,0.0,0.0,0.0,0.0,0.0,0.0,0.0,0.0
1606827117986013363,1244385,1606827117978563275,imu_link,0.08009213209152222,0.000708503182977438,0.04672812670469284,0.9956913590431213,0.0,0.0,0.0,0.0,0.0,0.0,0.0,0.0,0.0,5.345931529998779,-0.34802868962287903,9.18154525756836,0.0,0.0,0.0,0.0,0.0,0.0,0.0,0.0,0.0,0.0013708642218261957,0.05085808411240578,0.3377612233161926,0.0,0.0,0.0,0.0,0.0,0.0,0.0,0.0,0.0
1606827117986027512,1244386,1606827117978722558,imu_link,0.08009213209152222,0.000708503182977438,0.04672812670469284,0.9956913590431213,0.0,0.0,0.0,0.0,0.0,0.0,0.0,0.0,0.0,5.345931529998779,-0.34802868962287903,9.18154525756836,0.0,0.0,0.0,0.0,0.0,0.0,0.0,0.0,0.0,0.0013708642218261957,0.05085808411240578,0.3377612233161926,0.0,0.0,0.0,0.0,0.0,0.0,0.0,0.0,0.0
1606827117986036732,1244387,1606827117978900058,imu_link,0.08009223639965057,0.0007065528770908713,0.04672907292842865,0.9956912994384766,0.0,0.0,0.0,0.0,0.0,0.0,0.0,0.0,0.0,5.346022129058838,-0.34826046228408813,9.18154525756836,0.0,0.0,0.0,0.0,0.0,0.0,0.0,0.0,0.0,0.006952849216759205,0.0426969975233078,0.3230478763580322,0.0,0.0,0.0,0.0,0.0,0.0,0.0,0.0,0.0
1606827117986045466,1244388,1606827117979072180,imu_link,0.08009223639965057,0.0007065528770908713,0.04672907292842865,0.9956912994384766,0.0,0.0,0.0,0.0,0.0,0.0,0.0,0.0,0.0,5.346022129058838,-0.34826046228408813,9.18154525756836,0.0,0.0,0.0,0.0,0.0,0.0,0.0,0.0,0.0,0.006952849216759205,0.0426969975233078,0.3230478763580322,0.0,0.0,0.0,0.0,0.0,0.0,0.0,0.0,0.0
1606827117988422786,1244389,1606827117979264138,imu_link,0.08009333908557892,0.0007060661446303129,0.0467258058488369,0.9956913590431213,0.0,0.0,0.0,0.0,0.0,0.0,0.0,0.0,0.0,5.345643043518066,-0.34829190373420715,9.181672096252441,0.0,0.0,0.0,0.0,0.0,0.0,0.0,0.0,0.0,0.004598097875714302,0.02602476440370083,0.3218967914581299,0.0,0.0,0.0,0.0,0.0,0.0,0.0,0.0,0.0
1606827117988443239,1244390,1606827117979490761,imu_link,0.08009333908557892,0.0007060661446303129,0.0467258058488369,0.9956913590431213,0.0,0.0,0.0,0.0,0.0,0.0,0.0,0.0,0.0,5.345643043518066,-0.34829190373420715,9.181672096252441,0.0,0.0,0.0,0.0,0.0,0.0,0.0,0.0,0.0,0.004598097875714302,0.02602476440370083,0.3218967914581299,0.0,0.0,0.0,0.0,0.0,0.0,0.0,0.0,0.0
1606827117988458207,1244391,1606827117979651091,imu_link,0.08009171485900879,0.0007056217291392386,0.04672623798251152,0.9956914782524109,0.0,0.0,0.0,0.0,0.0,0.0,0.0,0.0,0.0,5.345688819885254,-0.348337858915329,9.181483268737793,0.0,0.0,0.0,0.0,0.0,0.0,0.0,0.0,0.0,-0.012646263465285301,0.03221967816352844,0.3305116295814514,0.0,0.0,0.0,0.0,0.0,0.0,0.0,0.0,0.0
1606827117988472046,1244392,1606827117979807738,imu_link,0.08009171485900879,0.0007056217291392386,0.04672623798251152,0.9956914782524109,0.0,0.0,0.0,0.0,0.0,0.0,0.0,0.0,0.0,5.345688819885254,-0.348337858915329,9.181483268737793,0.0,0.0,0.0,0.0,0.0,0.0,0.0,0.0,0.0,-0.012646263465285301,0.03221967816352844,0.3305116295814514,0.0,0.0,0.0,0.0,0.0,0.0,0.0,0.0,0.0
1606827117988495218,1244393,1606827117979962440,imu_link,0.08009687066078186,0.0007020015618763864,0.04672480374574661,0.9956911206245422,0.0,0.0,0.0,0.0,0.0,0.0,0.0,0.0,0.0,5.345490455627441,-0.34876543283462524,9.182056427001953,0.0,0.0,0.0,0.0,0.0,0.0,0.0,0.0,0.0,0.002680170349776745,0.05012934282422066,0.3319093585014343,0.0,0.0,0.0,0.0,0.0,0.0,0.0,0.0,0.0
1606827118010469634,1244394,1606827117991885990,imu_link,0.08009687066078186,0.0007020015618763864,0.04672480374574661,0.9956911206245422,0.0,0.0,0.0,0.0,0.0,0.0,0.0,0.0,0.0,5.345490455627441,-0.34876543283462524,9.182056427001953,0.0,0.0,0.0,0.0,0.0,0.0,0.0,0.0,0.0,0.002680170349776745,0.05012934282422066,0.3319093585014343,0.0,0.0,0.0,0.0,0.0,0.0,0.0,0.0,0.0
1606827118010498287,1244395,1606827117992046340,imu_link,0.08009650558233261,0.0007001503836363554,0.046727247536182404,0.9956910610198975,0.0,0.0,0.0,0.0,0.0,0.0,0.0,0.0,0.0,5.345752716064453,-0.3489971160888672,9.182003021240234,0.0,0.0,0.0,0.0,0.0,0.0,0.0,0.0,0.0,0.027297206223011017,0.04902629554271698,0.33828288316726685,0.0,0.0,0.0,0.0,0.0,0.0,0.0,0.0,0.0
1606827118010507594,1244396,1606827117992208254,imu_link,0.08009650558233261,0.0007001503836363554,0.046727247536182404,0.9956910610198975,0.0,0.0,0.0,0.0,0.0,0.0,0.0,0.0,0.0,5.345752716064453,-0.3489971160888672,9.182003021240234,0.0,0.0,0.0,0.0,0.0,0.0,0.0,0.0,0.0,0.027297206223011017,0.04902629554271698,0.33828288316726685,0.0,0.0,0.0,0.0,0.0,0.0,0.0,0.0,0.0
1606827118010518885,1244397,1606827117992366334,imu_link,0.08009587228298187,0.0007063366938382387,0.04672374203801155,0.9956912398338318,0.0,0.0,0.0,0.0,0.0,0.0,0.0,0.0,0.0,5.345408916473389,-0.3482556939125061,9.181966781616211,0.0,0.0,0.0,0.0,0.0,0.0,0.0,0.0,0.0,0.022730465978384018,0.050289563834667206,0.3179171681404114,0.0,0.0,0.0,0.0,0.0,0.0,0.0,0.0,0.0
1606827118010532324,1244398,1606827117992521166,imu_link,0.08009587228298187,0.0007063366938382387,0.04672374203801155,0.9956912398338318,0.0,0.0,0.0,0.0,0.0,0.0,0.0,0.0,0.0,5.345408916473389,-0.3482556939125061,9.181966781616211,0.0,0.0,0.0,0.0,0.0,0.0,0.0,0.0,0.0,0.022730465978384018,0.050289563834667206,0.3179171681404114,0.0,0.0,0.0,0.0,0.0,0.0,0.0,0.0,0.0
1606827118010827254,1244399,1606827117992676495,imu_link,0.08009818941354752,0.0007056885515339673,0.046725064516067505,0.9956910014152527,0.0,0.0,0.0,0.0,0.0,0.0,0.0,0.0,0.0,5.345553398132324,-0.34835419058799744,9.182228088378906,0.0,0.0,0.0,0.0,0.0,0.0,0.0,0.0,0.0,0.005019430071115494,0.0567944161593914,0.3275696635246277,0.0,0.0,0.0,0.0,0.0,0.0,0.0,0.0,0.0
1606827118010869148,1244400,1606827117992847535,imu_link,0.08009818941354752,0.0007056885515339673,0.046725064516067505,0.9956910014152527,0.0,0.0,0.0,0.0,0.0,0.0,0.0,0.0,0.0,5.345553398132324,-0.34835419058799744,9.182228088378906,0.0,0.0,0.0,0.0,0.0,0.0,0.0,0.0,0.0,0.005019430071115494,0.0567944161593914,0.3275696635246277,0.0,0.0,0.0,0.0,0.0,0.0,0.0,0.0,0.0
1606827118010885317,1244401,1606827117993017778,imu_link,0.08009723573923111,0.0007061603828333318,0.04672950506210327,0.9956908822059631,0.0,0.0,0.0,0.0,0.0,0.0,0.0,0.0,0.0,5.346065998077393,-0.34833601117134094,9.18211841583252,0.0,0.0,0.0,0.0,0.0,0.0,0.0,0.0,0.0,0.010443742386996746,0.0399782732129097,0.3478476107120514,0.0,0.0,0.0,0.0,0.0,0.0,0.0,0.0,0.0
1606827118010912086,1244402,1606827117993168836,imu_link,0.08009723573923111,0.0007061603828333318,0.04672950506210327,0.9956908822059631,0.0,0.0,0.0,0.0,0.0,0.0,0.0,0.0,0.0,5.346065998077393,-0.34833601117134094,9.18211841583252,0.0,0.0,0.0,0.0,0.0,0.0,0.0,0.0,0.0,0.010443742386996746,0.0399782732129097,0.3478476107120514,0.0,0.0,0.0,0.0,0.0,0.0,0.0,0.0,0.0
1606827118012270307,1244403,1606827117993334935,imu_link,0.08009736984968185,0.0007050237036310136,0.04672948271036148,0.9956908822059631,0.0,0.0,0.0,0.0,0.0,0.0,0.0,0.0,0.0,5.346052646636963,-0.3484662175178528,9.18212890625,0.0,0.0,0.0,0.0,0.0,0.0,0.0,0.0,0.0,0.030554886907339096,0.026370514184236526,0.345695823431015,0.0,0.0,0.0,0.0,0.0,0.0,0.0,0.0,0.0
1606827118012306036,1244404,1606827117993495400,imu_link,0.08009736984968185,0.0007050237036310136,0.04672948271036148,0.9956908822059631,0.0,0.0,0.0,0.0,0.0,0.0,0.0,0.0,0.0,5.346052646636963,-0.3484662175178528,9.18212890625,0.0,0.0,0.0,0.0,0.0,0.0,0.0,0.0,0.0,0.030554886907339096,0.026370514184236526,0.345695823431015,0.0,0.0,0.0,0.0,0.0,0.0,0.0,0.0,0.0
1606827118012324843,1244405,1606827118005415692,imu_link,0.08010243624448776,0.0007084253011271358,0.04673300310969353,0.9956903457641602,0.0,0.0,0.0,0.0,0.0,0.0,0.0,0.0,0.0,5.346484184265137,-0.34813758730888367,9.18272590637207,0.0,0.0,0.0,0.0,0.0,0.0,0.0,0.0,0.0,0.013693977147340775,0.0507299080491066,0.34676796197891235,0.0,0.0,0.0,0.0,0.0,0.0,0.0,0.0,0.0
1606827118012343755,1244406,1606827118005586933,imu_link,0.08010243624448776,0.0007084253011271358,0.04673300310969353,0.9956903457641602,0.0,0.0,0.0,0.0,0.0,0.0,0.0,0.0,0.0,5.346484184265137,-0.34813758730888367,9.18272590637207,0.0,0.0,0.0,0.0,0.0,0.0,0.0,0.0,0.0,0.013693977147340775,0.0507299080491066,0.34676796197891235,0.0,0.0,0.0,0.0,0.0,0.0,0.0,0.0,0.0
1606827118012351424,1244407,1606827118005765685,imu_link,0.08010178804397583,0.0007070832652971148,0.04673393815755844,0.9956903457641602,0.0,0.0,0.0,0.0,0.0,0.0,0.0,0.0,0.0,5.346579074859619,-0.34829580783843994,9.182644844055176,0.0,0.0,0.0,0.0,0.0,0.0,0.0,0.0,0.0,-0.010194037109613419,0.060764946043491364,0.35686928033828735,0.0,0.0,0.0,0.0,0.0,0.0,0.0,0.0,0.0
1606827118012827047,1244408,1606827118005919144,imu_link,0.08010178804397583,0.0007070832652971148,0.04673393815755844,0.9956903457641602,0.0,0.0,0.0,0.0,0.0,0.0,0.0,0.0,0.0,5.346579074859619,-0.34829580783843994,9.182644844055176,0.0,0.0,0.0,0.0,0.0,0.0,0.0,0.0,0.0,-0.010194037109613419,0.060764946043491364,0.35686928033828735,0.0,0.0,0.0,0.0,0.0,0.0,0.0,0.0,0.0
1606827118012880665,1244409,1606827118006072052,imu_link,0.08009959012269974,0.0007037355098873377,0.046737052500247955,0.9956902861595154,0.0,0.0,0.0,0.0,0.0,0.0,0.0,0.0,0.0,5.3469061851501465,-0.34869465231895447,9.182373046875,0.0,0.0,0.0,0.0,0.0,0.0,0.0,0.0,0.0,-0.007189597003161907,0.05479656904935837,0.34917888045310974,0.0,0.0,0.0,0.0,0.0,0.0,0.0,0.0,0.0
1606827118012899774,1244410,1606827118006232222,imu_link,0.08009959012269974,0.0007037355098873377,0.046737052500247955,0.9956902861595154,0.0,0.0,0.0,0.0,0.0,0.0,0.0,0.0,0.0,5.3469061851501465,-0.34869465231895447,9.182373046875,0.0,0.0,0.0,0.0,0.0,0.0,0.0,0.0,0.0,-0.007189597003161907,0.05479656904935837,0.34917888045310974,0.0,0.0,0.0,0.0,0.0,0.0,0.0,0.0,0.0
1606827118012922401,1244411,1606827118006411511,imu_link,0.0801001638174057,0.0007041833596304059,0.0467384047806263,0.9956901669502258,0.0,0.0,0.0,0.0,0.0,0.0,0.0,0.0,0.0,5.34706449508667,-0.3486590087413788,9.182441711425781,0.0,0.0,0.0,0.0,0.0,0.0,0.0,0.0,0.0,-0.003932476043701172,0.04788832738995552,0.3197196424007416,0.0,0.0,0.0,0.0,0.0,0.0,0.0,0.0,0.0
1606827118016335427,1244412,1606827118006563712,imu_link,0.0801001638174057,0.0007041833596304059,0.0467384047806263,0.9956901669502258,0.0,0.0,0.0,0.0,0.0,0.0,0.0,0.0,0.0,5.34706449508667,-0.3486590087413788,9.182441711425781,0.0,0.0,0.0,0.0,0.0,0.0,0.0,0.0,0.0,-0.003932476043701172,0.04788832738995552,0.3197196424007416,0.0,0.0,0.0,0.0,0.0,0.0,0.0,0.0,0.0
1606827118016357438,1244413,1606827118006710190,imu_link,0.08010052144527435,0.0007028476684354246,0.04674180597066879,0.9956899881362915,0.0,0.0,0.0,0.0,0.0,0.0,0.0,0.0,0.0,5.347441673278809,-0.34884458780288696,9.182474136352539,0.0,0.0,0.0,0.0,0.0,0.0,0.0,0.0,0.0,-0.012593556195497513,0.05485771223902702,0.3062343895435333,0.0,0.0,0.0,0.0,0.0,0.0,0.0,0.0,0.0
1606827118016367979,1244414,1606827118006864055,imu_link,0.08010052144527435,0.0007028476684354246,0.04674180597066879,0.9956899881362915,0.0,0.0,0.0,0.0,0.0,0.0,0.0,0.0,0.0,5.347441673278809,-0.34884458780288696,9.182474136352539,0.0,0.0,0.0,0.0,0.0,0.0,0.0,0.0,0.0,-0.012593556195497513,0.05485771223902702,0.3062343895435333,0.0,0.0,0.0,0.0,0.0,0.0,0.0,0.0,0.0
1606827118016380654,1244415,1606827118007014928,imu_link,0.08009972423315048,0.0007020998164080083,0.04674501344561577,0.9956899881362915,0.0,0.0,0.0,0.0,0.0,0.0,0.0,0.0,0.0,5.3478007316589355,-0.34895509481430054,9.182376861572266,0.0,0.0,0.0,0.0,0.0,0.0,0.0,0.0,0.0,0.006895870435982943,0.058046355843544006,0.3118937313556671,0.0,0.0,0.0,0.0,0.0,0.0,0.0,0.0,0.0
1606827118025991714,1244416,1606827118019364722,imu_link,0.08009972423315048,0.0007020998164080083,0.04674501344561577,0.9956899881362915,0.0,0.0,0.0,0.0,0.0,0.0,0.0,0.0,0.0,5.3478007316589355,-0.34895509481430054,9.182376861572266,0.0,0.0,0.0,0.0,0.0,0.0,0.0,0.0,0.0,0.006895870435982943,0.058046355843544006,0.3118937313556671,0.0,0.0,0.0,0.0,0.0,0.0,0.0,0.0,0.0
1606827118026006045,1244417,1606827118019456473,imu_link,0.0800984725356102,0.0007040739292278886,0.04674164205789566,0.9956901669502258,0.0,0.0,0.0,0.0,0.0,0.0,0.0,0.0,0.0,5.3474345207214355,-0.3486921787261963,9.182245254516602,0.0,0.0,0.0,0.0,0.0,0.0,0.0,0.0,0.0,0.0008223385084420443,0.04309344291687012,0.3218507468700409,0.0,0.0,0.0,0.0,0.0,0.0,0.0,0.0,0.0
1606827118026013220,1244418,1606827118019516989,imu_link,0.0800984725356102,0.0007040739292278886,0.04674164205789566,0.9956901669502258,0.0,0.0,0.0,0.0,0.0,0.0,0.0,0.0,0.0,5.3474345207214355,-0.3486921787261963,9.182245254516602,0.0,0.0,0.0,0.0,0.0,0.0,0.0,0.0,0.0,0.0008223385084420443,0.04309344291687012,0.3218507468700409,0.0,0.0,0.0,0.0,0.0,0.0,0.0,0.0,0.0
1606827118026022383,1244419,1606827118019602134,imu_link,0.08009929955005646,0.0007047939579933882,0.046743519604206085,0.995690107345581,0.0,0.0,0.0,0.0,0.0,0.0,0.0,0.0,0.0,5.347654342651367,-0.34863170981407166,9.182342529296875,0.0,0.0,0.0,0.0,0.0,0.0,0.0,0.0,0.0,-0.02402663603425026,0.05789775773882866,0.33076611161231995,0.0,0.0,0.0,0.0,0.0,0.0,0.0,0.0,0.0
1606827118026031806,1244420,1606827118019677782,imu_link,0.08009929955005646,0.0007047939579933882,0.046743519604206085,0.995690107345581,0.0,0.0,0.0,0.0,0.0,0.0,0.0,0.0,0.0,5.347654342651367,-0.34863170981407166,9.182342529296875,0.0,0.0,0.0,0.0,0.0,0.0,0.0,0.0,0.0,-0.02402663603425026,0.05789775773882866,0.33076611161231995,0.0,0.0,0.0,0.0,0.0,0.0,0.0,0.0,0.0
1606827118026498027,1244421,1606827118019761271,imu_link,0.08009905368089676,0.0007012714049778879,0.0467398539185524,0.9956902265548706,0.0,0.0,0.0,0.0,0.0,0.0,0.0,0.0,0.0,5.347203731536865,-0.34899863600730896,9.182297706604004,0.0,0.0,0.0,0.0,0.0,0.0,0.0,0.0,0.0,-0.01659129187464714,0.07095863670110703,0.34655582904815674,0.0,0.0,0.0,0.0,0.0,0.0,0.0,0.0,0.0
1606827118026508947,1244422,1606827118019835805,imu_link,0.08009905368089676,0.0007012714049778879,0.0467398539185524,0.9956902265548706,0.0,0.0,0.0,0.0,0.0,0.0,0.0,0.0,0.0,5.347203731536865,-0.34899863600730896,9.182297706604004,0.0,0.0,0.0,0.0,0.0,0.0,0.0,0.0,0.0,-0.01659129187464714,0.07095863670110703,0.34655582904815674,0.0,0.0,0.0,0.0,0.0,0.0,0.0,0.0,0.0
1606827118026514861,1244423,1606827118019911089,imu_link,0.08009955286979675,0.000699926633387804,0.046742409467697144,0.9956900477409363,0.0,0.0,0.0,0.0,0.0,0.0,0.0,0.0,0.0,5.347484588623047,-0.3491782248020172,9.182348251342773,0.0,0.0,0.0,0.0,0.0,0.0,0.0,0.0,0.0,-0.02163957990705967,0.07807821780443192,0.3547181487083435,0.0,0.0,0.0,0.0,0.0,0.0,0.0,0.0,0.0
1606827118026518665,1244424,1606827118019982706,imu_link,0.08009955286979675,0.000699926633387804,0.046742409467697144,0.9956900477409363,0.0,0.0,0.0,0.0,0.0,0.0,0.0,0.0,0.0,5.347484588623047,-0.3491782248020172,9.182348251342773,0.0,0.0,0.0,0.0,0.0,0.0,0.0,0.0,0.0,-0.02163957990705967,0.07807821780443192,0.3547181487083435,0.0,0.0,0.0,0.0,0.0,0.0,0.0,0.0,0.0
1606827118027689497,1244425,1606827118020053149,imu_link,0.08009576052427292,0.0006955837015993893,0.046741437166929245,0.9956904053688049,0.0,0.0,0.0,0.0,0.0,0.0,0.0,0.0,0.0,5.347333908081055,-0.3496444821357727,9.181889533996582,0.0,0.0,0.0,0.0,0.0,0.0,0.0,0.0,0.0,-0.01076512224972248,0.07340142130851746,0.3300798237323761,0.0,0.0,0.0,0.0,0.0,0.0,0.0,0.0,0.0
1606827118027700010,1244426,1606827118020122811,imu_link,0.08009576052427292,0.0006955837015993893,0.046741437166929245,0.9956904053688049,0.0,0.0,0.0,0.0,0.0,0.0,0.0,0.0,0.0,5.347333908081055,-0.3496444821357727,9.181889533996582,0.0,0.0,0.0,0.0,0.0,0.0,0.0,0.0,0.0,-0.01076512224972248,0.07340142130851746,0.3300798237323761,0.0,0.0,0.0,0.0,0.0,0.0,0.0,0.0,0.0
1606827118038497731,1244427,1606827118032302132,imu_link,0.0800953283905983,0.0006961392355151474,0.046740204095840454,0.9956905245780945,0.0,0.0,0.0,0.0,0.0,0.0,0.0,0.0,0.0,5.347198009490967,-0.3495674729347229,9.181841850280762,0.0,0.0,0.0,0.0,0.0,0.0,0.0,0.0,0.0,-0.011724714189767838,0.07626157999038696,0.32434192299842834,0.0,0.0,0.0,0.0,0.0,0.0,0.0,0.0,0.0
1606827118039670358,1244428,1606827118032430504,imu_link,0.0800953283905983,0.0006961392355151474,0.046740204095840454,0.9956905245780945,0.0,0.0,0.0,0.0,0.0,0.0,0.0,0.0,0.0,5.347198009490967,-0.3495674729347229,9.181841850280762,0.0,0.0,0.0,0.0,0.0,0.0,0.0,0.0,0.0,-0.011724714189767838,0.07626157999038696,0.32434192299842834,0.0,0.0,0.0,0.0,0.0,0.0,0.0,0.0,0.0
1606827118039713777,1244429,1606827118032524491,imu_link,0.08009138703346252,0.0006913907127454877,0.046740174293518066,0.9956908226013184,0.0,0.0,0.0,0.0,0.0,0.0,0.0,0.0,0.0,5.347152233123779,-0.35008785128593445,9.181364059448242,0.0,0.0,0.0,0.0,0.0,0.0,0.0,0.0,0.0,-0.011912144720554352,0.08751371502876282,0.33790937066078186,0.0,0.0,0.0,0.0,0.0,0.0,0.0,0.0,0.0
1606827118039725159,1244430,1606827118032627980,imu_link,0.08009138703346252,0.0006913907127454877,0.046740174293518066,0.9956908226013184,0.0,0.0,0.0,0.0,0.0,0.0,0.0,0.0,0.0,5.347152233123779,-0.35008785128593445,9.181364059448242,0.0,0.0,0.0,0.0,0.0,0.0,0.0,0.0,0.0,-0.011912144720554352,0.08751371502876282,0.33790937066078186,0.0,0.0,0.0,0.0,0.0,0.0,0.0,0.0,0.0
1606827118039742222,1244431,1606827118032746207,imu_link,0.0800924226641655,0.0006898663123138249,0.04674003645777702,0.9956907629966736,0.0,0.0,0.0,0.0,0.0,0.0,0.0,0.0,0.0,5.347122669219971,-0.35026609897613525,9.181475639343262,0.0,0.0,0.0,0.0,0.0,0.0,0.0,0.0,0.0,0.009658029302954674,0.05877342447638512,0.3280624747276306,0.0,0.0,0.0,0.0,0.0,0.0,0.0,0.0,0.0
1606827118039753384,1244432,1606827118032876798,imu_link,0.0800924226641655,0.0006898663123138249,0.04674003645777702,0.9956907629966736,0.0,0.0,0.0,0.0,0.0,0.0,0.0,0.0,0.0,5.347122669219971,-0.35026609897613525,9.181475639343262,0.0,0.0,0.0,0.0,0.0,0.0,0.0,0.0,0.0,0.009658029302954674,0.05877342447638512,0.3280624747276306,0.0,0.0,0.0,0.0,0.0,0.0,0.0,0.0,0.0
1606827118039763341,1244433,1606827118032984513,imu_link,0.08008963614702225,0.0006928330403752625,0.046735335141420364,0.9956912398338318,0.0,0.0,0.0,0.0,0.0,0.0,0.0,0.0,0.0,5.346613883972168,-0.34986943006515503,9.181173324584961,0.0,0.0,0.0,0.0,0.0,0.0,0.0,0.0,0.0,0.017703644931316376,0.03735397011041641,0.3277718126773834,0.0,0.0,0.0,0.0,0.0,0.0,0.0,0.0,0.0
1606827118039768255,1244434,1606827118033097273,imu_link,0.08008963614702225,0.0006928330403752625,0.046735335141420364,0.9956912398338318,0.0,0.0,0.0,0.0,0.0,0.0,0.0,0.0,0.0,5.346613883972168,-0.34986943006515503,9.181173324584961,0.0,0.0,0.0,0.0,0.0,0.0,0.0,0.0,0.0,0.017703644931316376,0.03735397011041641,0.3277718126773834,0.0,0.0,0.0,0.0,0.0,0.0,0.0,0.0,0.0
1606827118040405432,1244435,1606827118033214230,imu_link,0.08009009808301926,0.0006921781459823251,0.046736620366573334,0.995691180229187,0.0,0.0,0.0,0.0,0.0,0.0,0.0,0.0,0.0,5.34675407409668,-0.3499584496021271,9.181221961975098,0.0,0.0,0.0,0.0,0.0,0.0,0.0,0.0,0.0,0.02040022797882557,0.04526776075363159,0.3349011242389679,0.0,0.0,0.0,0.0,0.0,0.0,0.0,0.0,0.0
1606827118040421533,1244436,1606827118033314876,imu_link,0.08009009808301926,0.0006921781459823251,0.046736620366573334,0.995691180229187,0.0,0.0,0.0,0.0,0.0,0.0,0.0,0.0,0.0,5.34675407409668,-0.3499584496021271,9.181221961975098,0.0,0.0,0.0,0.0,0.0,0.0,0.0,0.0,0.0,0.02040022797882557,0.04526776075363159,0.3349011242389679,0.0,0.0,0.0,0.0,0.0,0.0,0.0,0.0,0.0
1606827118066726581,1244437,1606827118045699736,imu_link,0.0800919309258461,0.0006946703069843352,0.04673057049512863,0.9956912994384766,0.0,0.0,0.0,0.0,0.0,0.0,0.0,0.0,0.0,5.346084117889404,-0.34962835907936096,9.181447982788086,0.0,0.0,0.0,0.0,0.0,0.0,0.0,0.0,0.0,0.020475255325436592,0.053551085293293,0.3107829988002777,0.0,0.0,0.0,0.0,0.0,0.0,0.0,0.0,0.0
1606827118066749962,1244438,1606827118045836659,imu_link,0.0800919309258461,0.0006946703069843352,0.04673057049512863,0.9956912994384766,0.0,0.0,0.0,0.0,0.0,0.0,0.0,0.0,0.0,5.346084117889404,-0.34962835907936096,9.181447982788086,0.0,0.0,0.0,0.0,0.0,0.0,0.0,0.0,0.0,0.020475255325436592,0.053551085293293,0.3107829988002777,0.0,0.0,0.0,0.0,0.0,0.0,0.0,0.0,0.0
1606827118066766421,1244439,1606827118045946488,imu_link,0.08009199053049088,0.0006972646806389093,0.04673048108816147,0.9956912994384766,0.0,0.0,0.0,0.0,0.0,0.0,0.0,0.0,0.0,5.346097469329834,-0.3493318557739258,9.18146800994873,0.0,0.0,0.0,0.0,0.0,0.0,0.0,0.0,0.0,0.021441679447889328,0.050432704389095306,0.28435584902763367,0.0,0.0,0.0,0.0,0.0,0.0,0.0,0.0,0.0
1606827118066799143,1244440,1606827118046088317,imu_link,0.08009199053049088,0.0006972646806389093,0.04673048108816147,0.9956912994384766,0.0,0.0,0.0,0.0,0.0,0.0,0.0,0.0,0.0,5.346097469329834,-0.3493318557739258,9.18146800994873,0.0,0.0,0.0,0.0,0.0,0.0,0.0,0.0,0.0,0.021441679447889328,0.050432704389095306,0.28435584902763367,0.0,0.0,0.0,0.0,0.0,0.0,0.0,0.0,0.0
1606827118066810676,1244441,1606827118046215979,imu_link,0.08009158074855804,0.0007037656614556909,0.04673398286104202,0.995691180229187,0.0,0.0,0.0,0.0,0.0,0.0,0.0,0.0,0.0,5.346558094024658,-0.34862005710601807,9.181453704833984,0.0,0.0,0.0,0.0,0.0,0.0,0.0,0.0,0.0,0.02291090227663517,0.048180028796195984,0.3213300108909607,0.0,0.0,0.0,0.0,0.0,0.0,0.0,0.0,0.0
1606827118066829606,1244442,1606827118046320686,imu_link,0.08009158074855804,0.0007037656614556909,0.04673398286104202,0.995691180229187,0.0,0.0,0.0,0.0,0.0,0.0,0.0,0.0,0.0,5.346558094024658,-0.34862005710601807,9.181453704833984,0.0,0.0,0.0,0.0,0.0,0.0,0.0,0.0,0.0,0.02291090227663517,0.048180028796195984,0.3213300108909607,0.0,0.0,0.0,0.0,0.0,0.0,0.0,0.0,0.0
1606827118066837605,1244443,1606827118046453250,imu_link,0.08009167015552521,0.0007054705638438463,0.046736083924770355,0.9956910610198975,0.0,0.0,0.0,0.0,0.0,0.0,0.0,0.0,0.0,5.346813201904297,-0.3484452962875366,9.181472778320312,0.0,0.0,0.0,0.0,0.0,0.0,0.0,0.0,0.0,0.011300084181129932,0.04081603139638901,0.3456422686576843,0.0,0.0,0.0,0.0,0.0,0.0,0.0,0.0,0.0
1606827118066854126,1244444,1606827118046570054,imu_link,0.08009167015552521,0.0007054705638438463,0.046736083924770355,0.9956910610198975,0.0,0.0,0.0,0.0,0.0,0.0,0.0,0.0,0.0,5.346813201904297,-0.3484452962875366,9.181472778320312,0.0,0.0,0.0,0.0,0.0,0.0,0.0,0.0,0.0,0.011300084181129932,0.04081603139638901,0.3456422686576843,0.0,0.0,0.0,0.0,0.0,0.0,0.0,0.0,0.0
1606827118066869397,1244445,1606827118046683604,imu_link,0.08009487390518188,0.000710279040504247,0.04673890396952629,0.995690643787384,0.0,0.0,0.0,0.0,0.0,0.0,0.0,0.0,0.0,5.3471784591674805,-0.34793972969055176,9.181866645812988,0.0,0.0,0.0,0.0,0.0,0.0,0.0,0.0,0.0,0.010385824367403984,0.04795195162296295,0.32210981845855713,0.0,0.0,0.0,0.0,0.0,0.0,0.0,0.0,0.0
1606827118066922271,1244446,1606827118046790815,imu_link,0.08009487390518188,0.000710279040504247,0.04673890396952629,0.995690643787384,0.0,0.0,0.0,0.0,0.0,0.0,0.0,0.0,0.0,5.3471784591674805,-0.34793972969055176,9.181866645812988,0.0,0.0,0.0,0.0,0.0,0.0,0.0,0.0,0.0,0.010385824367403984,0.04795195162296295,0.32210981845855713,0.0,0.0,0.0,0.0,0.0,0.0,0.0,0.0,0.0
1606827118066962258,1244447,1606827118046900570,imu_link,0.08009583503007889,0.0007097861380316317,0.04674103111028671,0.9956904649734497,0.0,0.0,0.0,0.0,0.0,0.0,0.0,0.0,0.0,5.34741735458374,-0.34802064299583435,9.18197250366211,0.0,0.0,0.0,0.0,0.0,0.0,0.0,0.0,0.0,0.02918298915028572,0.056155793368816376,0.3279918432235718,0.0,0.0,0.0,0.0,0.0,0.0,0.0,0.0,0.0
1606827118066974229,1244448,1606827118059613238,imu_link,0.08009583503007889,0.0007097861380316317,0.04674103111028671,0.9956904649734497,0.0,0.0,0.0,0.0,0.0,0.0,0.0,0.0,0.0,5.34741735458374,-0.34802064299583435,9.18197250366211,0.0,0.0,0.0,0.0,0.0,0.0,0.0,0.0,0.0,0.02918298915028572,0.056155793368816376,0.3279918432235718,0.0,0.0,0.0,0.0,0.0,0.0,0.0,0.0,0.0
1606827118066988980,1244449,1606827118059769350,imu_link,0.08009438961744308,0.0007165397400967777,0.046740274876356125,0.9956905841827393,0.0,0.0,0.0,0.0,0.0,0.0,0.0,0.0,0.0,5.347393035888672,-0.34723538160324097,9.181842803955078,0.0,0.0,0.0,0.0,0.0,0.0,0.0,0.0,0.0,0.030321389436721802,0.04769286885857582,0.3331575393676758,0.0,0.0,0.0,0.0,0.0,0.0,0.0,0.0,0.0
1606827118067033080,1244450,1606827118059928542,imu_link,0.08009438961744308,0.0007165397400967777,0.046740274876356125,0.9956905841827393,0.0,0.0,0.0,0.0,0.0,0.0,0.0,0.0,0.0,5.347393035888672,-0.34723538160324097,9.181842803955078,0.0,0.0,0.0,0.0,0.0,0.0,0.0,0.0,0.0,0.030321389436721802,0.04769286885857582,0.3331575393676758,0.0,0.0,0.0,0.0,0.0,0.0,0.0,0.0,0.0
1606827118067346127,1244451,1606827118060072747,imu_link,0.08009510487318039,0.0007181183318607509,0.046742625534534454,0.9956904053688049,0.0,0.0,0.0,0.0,0.0,0.0,0.0,0.0,0.0,5.347676753997803,-0.34708067774772644,9.181933403015137,0.0,0.0,0.0,0.0,0.0,0.0,0.0,0.0,0.0,0.015497414395213127,0.04634802043437958,0.33604055643081665,0.0,0.0,0.0,0.0,0.0,0.0,0.0,0.0,0.0
1606827118067354932,1244452,1606827118060191593,imu_link,0.08009510487318039,0.0007181183318607509,0.046742625534534454,0.9956904053688049,0.0,0.0,0.0,0.0,0.0,0.0,0.0,0.0,0.0,5.347676753997803,-0.34708067774772644,9.181933403015137,0.0,0.0,0.0,0.0,0.0,0.0,0.0,0.0,0.0,0.015497414395213127,0.04634802043437958,0.33604055643081665,0.0,0.0,0.0,0.0,0.0,0.0,0.0,0.0,0.0
1606827118067364143,1244453,1606827118060305179,imu_link,0.08009606599807739,0.0007235528319142759,0.046743374317884445,0.9956903457641602,0.0,0.0,0.0,0.0,0.0,0.0,0.0,0.0,0.0,5.347811222076416,-0.3464726209640503,9.182071685791016,0.0,0.0,0.0,0.0,0.0,0.0,0.0,0.0,0.0,0.004025278612971306,0.043875500559806824,0.32115596532821655,0.0,0.0,0.0,0.0,0.0,0.0,0.0,0.0,0.0
1606827118067374855,1244454,1606827118060446754,imu_link,0.08009606599807739,0.0007235528319142759,0.046743374317884445,0.9956903457641602,0.0,0.0,0.0,0.0,0.0,0.0,0.0,0.0,0.0,5.347811222076416,-0.3464726209640503,9.182071685791016,0.0,0.0,0.0,0.0,0.0,0.0,0.0,0.0,0.0,0.004025278612971306,0.043875500559806824,0.32115596532821655,0.0,0.0,0.0,0.0,0.0,0.0,0.0,0.0,0.0
1606827118070033041,1244455,1606827118060610227,imu_link,0.0800943374633789,0.0007229811744764447,0.04674319550395012,0.9956904649734497,0.0,0.0,0.0,0.0,0.0,0.0,0.0,0.0,0.0,5.347785472869873,-0.3465269207954407,9.181870460510254,0.0,0.0,0.0,0.0,0.0,0.0,0.0,0.0,0.0,0.0012381765991449356,0.034875739365816116,0.3136790096759796,0.0,0.0,0.0,0.0,0.0,0.0,0.0,0.0,0.0
1606827118070047247,1244456,1606827118060742801,imu_link,0.0800943374633789,0.0007229811744764447,0.04674319550395012,0.9956904649734497,0.0,0.0,0.0,0.0,0.0,0.0,0.0,0.0,0.0,5.347785472869873,-0.3465269207954407,9.181870460510254,0.0,0.0,0.0,0.0,0.0,0.0,0.0,0.0,0.0,0.0012381765991449356,0.034875739365816116,0.3136790096759796,0.0,0.0,0.0,0.0,0.0,0.0,0.0,0.0,0.0
1606827118070055135,1244457,1606827118060864490,imu_link,0.0800987258553505,0.0007226638845168054,0.04674558341503143,0.9956899881362915,0.0,0.0,0.0,0.0,0.0,0.0,0.0,0.0,0.0,5.3480544090271,-0.34660860896110535,9.182371139526367,0.0,0.0,0.0,0.0,0.0,0.0,0.0,0.0,0.0,-0.0007518832571804523,0.052756018936634064,0.3481396734714508,0.0,0.0,0.0,0.0,0.0,0.0,0.0,0.0,0.0
1606827118070138276,1244458,1606827118060986880,imu_link,0.0800987258553505,0.0007226638845168054,0.04674558341503143,0.9956899881362915,0.0,0.0,0.0,0.0,0.0,0.0,0.0,0.0,0.0,5.3480544090271,-0.34660860896110535,9.182371139526367,0.0,0.0,0.0,0.0,0.0,0.0,0.0,0.0,0.0,-0.0007518832571804523,0.052756018936634064,0.3481396734714508,0.0,0.0,0.0,0.0,0.0,0.0,0.0,0.0,0.0
1606827118079213203,1244459,1606827118073048143,imu_link,0.08009856939315796,0.0007210224284790456,0.04674448445439339,0.9956900477409363,0.0,0.0,0.0,0.0,0.0,0.0,0.0,0.0,0.0,5.347914218902588,-0.34678494930267334,9.182345390319824,0.0,0.0,0.0,0.0,0.0,0.0,0.0,0.0,0.0,0.009327942505478859,0.08078962564468384,0.34777477383613586,0.0,0.0,0.0,0.0,0.0,0.0,0.0,0.0,0.0
1606827118080275289,1244460,1606827118073201092,imu_link,0.08009856939315796,0.0007210224284790456,0.04674448445439339,0.9956900477409363,0.0,0.0,0.0,0.0,0.0,0.0,0.0,0.0,0.0,5.347914218902588,-0.34678494930267334,9.182345390319824,0.0,0.0,0.0,0.0,0.0,0.0,0.0,0.0,0.0,0.009327942505478859,0.08078962564468384,0.34777477383613586,0.0,0.0,0.0,0.0,0.0,0.0,0.0,0.0,0.0
1606827118080291981,1244461,1606827118073322596,imu_link,0.08009587973356247,0.0007224777946248651,0.04674537852406502,0.9956902265548706,0.0,0.0,0.0,0.0,0.0,0.0,0.0,0.0,0.0,5.348030090332031,-0.34661272168159485,9.18204402923584,0.0,0.0,0.0,0.0,0.0,0.0,0.0,0.0,0.0,0.015280792489647865,0.08282845467329025,0.3520064055919647,0.0,0.0,0.0,0.0,0.0,0.0,0.0,0.0,0.0
1606827118080300279,1244462,1606827118073475457,imu_link,0.08009587973356247,0.0007224777946248651,0.04674537852406502,0.9956902265548706,0.0,0.0,0.0,0.0,0.0,0.0,0.0,0.0,0.0,5.348030090332031,-0.34661272168159485,9.18204402923584,0.0,0.0,0.0,0.0,0.0,0.0,0.0,0.0,0.0,0.015280792489647865,0.08282845467329025,0.3520064055919647,0.0,0.0,0.0,0.0,0.0,0.0,0.0,0.0,0.0
1606827118080307539,1244463,1606827118073635787,imu_link,0.08009558171033859,0.0007239996921271086,0.046747904270887375,0.9956901669502258,0.0,0.0,0.0,0.0,0.0,0.0,0.0,0.0,0.0,5.348333358764648,-0.3464606702327728,9.182016372680664,0.0,0.0,0.0,0.0,0.0,0.0,0.0,0.0,0.0,0.007765572983771563,0.0648353323340416,0.3558777868747711,0.0,0.0,0.0,0.0,0.0,0.0,0.0,0.0,0.0
1606827118080314236,1244464,1606827118073795175,imu_link,0.08009558171033859,0.0007239996921271086,0.046747904270887375,0.9956901669502258,0.0,0.0,0.0,0.0,0.0,0.0,0.0,0.0,0.0,5.348333358764648,-0.3464606702327728,9.182016372680664,0.0,0.0,0.0,0.0,0.0,0.0,0.0,0.0,0.0,0.007765572983771563,0.0648353323340416,0.3558777868747711,0.0,0.0,0.0,0.0,0.0,0.0,0.0,0.0,0.0
1606827118081458510,1244465,1606827118073910148,imu_link,0.08009476959705353,0.0007229552720673382,0.04674295336008072,0.9956904649734497,0.0,0.0,0.0,0.0,0.0,0.0,0.0,0.0,0.0,5.347757816314697,-0.3465299606323242,9.181920051574707,0.0,0.0,0.0,0.0,0.0,0.0,0.0,0.0,0.0,0.010532461106777191,0.05269249528646469,0.3253800868988037,0.0,0.0,0.0,0.0,0.0,0.0,0.0,0.0,0.0
1606827118081469622,1244466,1606827118074024861,imu_link,0.08009476959705353,0.0007229552720673382,0.04674295336008072,0.9956904649734497,0.0,0.0,0.0,0.0,0.0,0.0,0.0,0.0,0.0,5.347757816314697,-0.3465299606323242,9.181920051574707,0.0,0.0,0.0,0.0,0.0,0.0,0.0,0.0,0.0,0.010532461106777191,0.05269249528646469,0.3253800868988037,0.0,0.0,0.0,0.0,0.0,0.0,0.0,0.0,0.0
1606827118081476271,1244467,1606827118074148511,imu_link,0.08009617775678635,0.0007228336180560291,0.046742502599954605,0.9956903457641602,0.0,0.0,0.0,0.0,0.0,0.0,0.0,0.0,0.0,5.3477044105529785,-0.34654730558395386,9.182080268859863,0.0,0.0,0.0,0.0,0.0,0.0,0.0,0.0,0.0,0.004176648333668709,0.07115108519792557,0.31456953287124634,0.0,0.0,0.0,0.0,0.0,0.0,0.0,0.0,0.0
1606827118081486499,1244468,1606827118074271085,imu_link,0.08009617775678635,0.0007228336180560291,0.046742502599954605,0.9956903457641602,0.0,0.0,0.0,0.0,0.0,0.0,0.0,0.0,0.0,5.3477044105529785,-0.34654730558395386,9.182080268859863,0.0,0.0,0.0,0.0,0.0,0.0,0.0,0.0,0.0,0.004176648333668709,0.07115108519792557,0.31456953287124634,0.0,0.0,0.0,0.0,0.0,0.0,0.0,0.0,0.0
1606827118081493593,1244469,1606827118074390974,imu_link,0.08009206503629684,0.0007208631141111255,0.046738315373659134,0.9956908822059631,0.0,0.0,0.0,0.0,0.0,0.0,0.0,0.0,0.0,5.347209453582764,-0.3467116057872772,9.181599617004395,0.0,0.0,0.0,0.0,0.0,0.0,0.0,0.0,0.0,-0.012864701449871063,0.0633854791522026,0.33653947710990906,0.0,0.0,0.0,0.0,0.0,0.0,0.0,0.0,0.0
1606827118092390582,1244470,1606827118085937828,imu_link,0.08009206503629684,0.0007208631141111255,0.046738315373659134,0.9956908822059631,0.0,0.0,0.0,0.0,0.0,0.0,0.0,0.0,0.0,5.347209453582764,-0.3467116057872772,9.181599617004395,0.0,0.0,0.0,0.0,0.0,0.0,0.0,0.0,0.0,-0.012864701449871063,0.0633854791522026,0.33653947710990906,0.0,0.0,0.0,0.0,0.0,0.0,0.0,0.0,0.0
1606827118093552623,1244471,1606827118086104808,imu_link,0.08009114861488342,0.0007203686400316656,0.04673893377184868,0.9956909418106079,0.0,0.0,0.0,0.0,0.0,0.0,0.0,0.0,0.0,5.347275733947754,-0.3467687964439392,9.181490898132324,0.0,0.0,0.0,0.0,0.0,0.0,0.0,0.0,0.0,-0.018116604536771774,0.03886003792285919,0.3369121253490448,0.0,0.0,0.0,0.0,0.0,0.0,0.0,0.0,0.0
1606827118093571979,1244472,1606827118086239154,imu_link,0.08009114861488342,0.0007203686400316656,0.04673893377184868,0.9956909418106079,0.0,0.0,0.0,0.0,0.0,0.0,0.0,0.0,0.0,5.347275733947754,-0.3467687964439392,9.181490898132324,0.0,0.0,0.0,0.0,0.0,0.0,0.0,0.0,0.0,-0.018116604536771774,0.03886003792285919,0.3369121253490448,0.0,0.0,0.0,0.0,0.0,0.0,0.0,0.0,0.0
1606827118093581412,1244473,1606827118086404495,imu_link,0.0800919309258461,0.0007173778722062707,0.046735480427742004,0.9956910610198975,0.0,0.0,0.0,0.0,0.0,0.0,0.0,0.0,0.0,5.346853256225586,-0.34708255529403687,9.18156623840332,0.0,0.0,0.0,0.0,0.0,0.0,0.0,0.0,0.0,-0.023592637851834297,0.04138530418276787,0.299344003200531,0.0,0.0,0.0,0.0,0.0,0.0,0.0,0.0,0.0
1606827118093587830,1244474,1606827118086563236,imu_link,0.0800919309258461,0.0007173778722062707,0.046735480427742004,0.9956910610198975,0.0,0.0,0.0,0.0,0.0,0.0,0.0,0.0,0.0,5.346853256225586,-0.34708255529403687,9.18156623840332,0.0,0.0,0.0,0.0,0.0,0.0,0.0,0.0,0.0,-0.023592637851834297,0.04138530418276787,0.299344003200531,0.0,0.0,0.0,0.0,0.0,0.0,0.0,0.0,0.0
1606827118093596268,1244475,1606827118086737639,imu_link,0.080094113945961,0.000718591152690351,0.04673633724451065,0.9956908226013184,0.0,0.0,0.0,0.0,0.0,0.0,0.0,0.0,0.0,5.34696102142334,-0.34696367383003235,9.18182373046875,0.0,0.0,0.0,0.0,0.0,0.0,0.0,0.0,0.0,-0.025163976475596428,0.06001485884189606,0.30866268277168274,0.0,0.0,0.0,0.0,0.0,0.0,0.0,0.0,0.0
1606827118093609836,1244476,1606827118086869373,imu_link,0.080094113945961,0.000718591152690351,0.04673633724451065,0.9956908226013184,0.0,0.0,0.0,0.0,0.0,0.0,0.0,0.0,0.0,5.34696102142334,-0.34696367383003235,9.18182373046875,0.0,0.0,0.0,0.0,0.0,0.0,0.0,0.0,0.0,-0.025163976475596428,0.06001485884189606,0.30866268277168274,0.0,0.0,0.0,0.0,0.0,0.0,0.0,0.0,0.0
1606827118094351717,1244477,1606827118087011701,imu_link,0.08009252697229385,0.0007129036239348352,0.04673517495393753,0.9956910014152527,0.0,0.0,0.0,0.0,0.0,0.0,0.0,0.0,0.0,5.346777439117432,-0.34759342670440674,9.181611061096191,0.0,0.0,0.0,0.0,0.0,0.0,0.0,0.0,0.0,-0.01291494071483612,0.06979160010814667,0.33464860916137695,0.0,0.0,0.0,0.0,0.0,0.0,0.0,0.0,0.0
1606827118094365168,1244478,1606827118087147429,imu_link,0.08009252697229385,0.0007129036239348352,0.04673517495393753,0.9956910014152527,0.0,0.0,0.0,0.0,0.0,0.0,0.0,0.0,0.0,5.346777439117432,-0.34759342670440674,9.181611061096191,0.0,0.0,0.0,0.0,0.0,0.0,0.0,0.0,0.0,-0.01291494071483612,0.06979160010814667,0.33464860916137695,0.0,0.0,0.0,0.0,0.0,0.0,0.0,0.0,0.0
1606827118094373156,1244479,1606827118087329462,imu_link,0.0800938606262207,0.0007155976491048932,0.04673655703663826,0.9956908226013184,0.0,0.0,0.0,0.0,0.0,0.0,0.0,0.0,0.0,5.346959114074707,-0.34730592370033264,9.181777954101562,0.0,0.0,0.0,0.0,0.0,0.0,0.0,0.0,0.0,-0.002617468824610114,0.06969983875751495,0.31853049993515015,0.0,0.0,0.0,0.0,0.0,0.0,0.0,0.0,0.0
1606827118106388367,1244480,1606827118099627269,imu_link,0.0800938606262207,0.0007155976491048932,0.04673655703663826,0.9956908226013184,0.0,0.0,0.0,0.0,0.0,0.0,0.0,0.0,0.0,5.346959114074707,-0.34730592370033264,9.181777954101562,0.0,0.0,0.0,0.0,0.0,0.0,0.0,0.0,0.0,-0.002617468824610114,0.06969983875751495,0.31853049993515015,0.0,0.0,0.0,0.0,0.0,0.0,0.0,0.0,0.0
1606827118108652338,1244481,1606827118099816962,imu_link,0.08009012043476105,0.000715344853233546,0.04673318937420845,0.9956912994384766,0.0,0.0,0.0,0.0,0.0,0.0,0.0,0.0,0.0,5.346573352813721,-0.3472837507724762,9.18134880065918,0.0,0.0,0.0,0.0,0.0,0.0,0.0,0.0,0.0,0.009546787478029728,0.0638132393360138,0.3398725986480713,0.0,0.0,0.0,0.0,0.0,0.0,0.0,0.0,0.0
1606827118108682615,1244482,1606827118099976901,imu_link,0.08009012043476105,0.000715344853233546,0.04673318937420845,0.9956912994384766,0.0,0.0,0.0,0.0,0.0,0.0,0.0,0.0,0.0,5.346573352813721,-0.3472837507724762,9.18134880065918,0.0,0.0,0.0,0.0,0.0,0.0,0.0,0.0,0.0,0.009546787478029728,0.0638132393360138,0.3398725986480713,0.0,0.0,0.0,0.0,0.0,0.0,0.0,0.0,0.0
1606827118108699511,1244483,1606827118100146502,imu_link,0.080088771879673,0.0007156963692978024,0.04673472419381142,0.9956912994384766,0.0,0.0,0.0,0.0,0.0,0.0,0.0,0.0,0.0,5.346753120422363,-0.3472505211830139,9.181195259094238,0.0,0.0,0.0,0.0,0.0,0.0,0.0,0.0,0.0,0.013032807037234306,0.06443437188863754,0.3546243906021118,0.0,0.0,0.0,0.0,0.0,0.0,0.0,0.0,0.0
1606827118108720955,1244484,1606827118100330773,imu_link,0.080088771879673,0.0007156963692978024,0.04673472419381142,0.9956912994384766,0.0,0.0,0.0,0.0,0.0,0.0,0.0,0.0,0.0,5.346753120422363,-0.3472505211830139,9.181195259094238,0.0,0.0,0.0,0.0,0.0,0.0,0.0,0.0,0.0,0.013032807037234306,0.06443437188863754,0.3546243906021118,0.0,0.0,0.0,0.0,0.0,0.0,0.0,0.0,0.0
1606827118108735558,1244485,1606827118100487735,imu_link,0.08008693903684616,0.0007155140629038215,0.04673026129603386,0.9956916570663452,0.0,0.0,0.0,0.0,0.0,0.0,0.0,0.0,0.0,5.346241474151611,-0.3472205400466919,9.180986404418945,0.0,0.0,0.0,0.0,0.0,0.0,0.0,0.0,0.0,0.008647180162370205,0.07418298721313477,0.3413892090320587,0.0,0.0,0.0,0.0,0.0,0.0,0.0,0.0,0.0
1606827118108753776,1244486,1606827118100667735,imu_link,0.08008693903684616,0.0007155140629038215,0.04673026129603386,0.9956916570663452,0.0,0.0,0.0,0.0,0.0,0.0,0.0,0.0,0.0,5.346241474151611,-0.3472205400466919,9.180986404418945,0.0,0.0,0.0,0.0,0.0,0.0,0.0,0.0,0.0,0.008647180162370205,0.07418298721313477,0.3413892090320587,0.0,0.0,0.0,0.0,0.0,0.0,0.0,0.0,0.0
1606827118108769219,1244487,1606827118100844430,imu_link,0.08008848875761032,0.0007152926991693676,0.046731702983379364,0.9956914782524109,0.0,0.0,0.0,0.0,0.0,0.0,0.0,0.0,0.0,5.346404075622559,-0.3472673296928406,9.181160926818848,0.0,0.0,0.0,0.0,0.0,0.0,0.0,0.0,0.0,0.012097146362066269,0.07374473661184311,0.3342580497264862,0.0,0.0,0.0,0.0,0.0,0.0,0.0,0.0,0.0
1606827118108801838,1244488,1606827118100966384,imu_link,0.08008848875761032,0.0007152926991693676,0.046731702983379364,0.9956914782524109,0.0,0.0,0.0,0.0,0.0,0.0,0.0,0.0,0.0,5.346404075622559,-0.3472673296928406,9.181160926818848,0.0,0.0,0.0,0.0,0.0,0.0,0.0,0.0,0.0,0.012097146362066269,0.07374473661184311,0.3342580497264862,0.0,0.0,0.0,0.0,0.0,0.0,0.0,0.0,0.0
1606827118108827922,1244489,1606827118101089700,imu_link,0.08008647710084915,0.0007162565016187727,0.04673488810658455,0.9956914782524109,0.0,0.0,0.0,0.0,0.0,0.0,0.0,0.0,0.0,5.346777439117432,-0.34717580676078796,9.180935859680176,0.0,0.0,0.0,0.0,0.0,0.0,0.0,0.0,0.0,0.002073448384180665,0.05348404869437218,0.3362610638141632,0.0,0.0,0.0,0.0,0.0,0.0,0.0,0.0,0.0
1606827118108835978,1244490,1606827118101207120,imu_link,0.08008647710084915,0.0007162565016187727,0.04673488810658455,0.9956914782524109,0.0,0.0,0.0,0.0,0.0,0.0,0.0,0.0,0.0,5.346777439117432,-0.34717580676078796,9.180935859680176,0.0,0.0,0.0,0.0,0.0,0.0,0.0,0.0,0.0,0.002073448384180665,0.05348404869437218,0.3362610638141632,0.0,0.0,0.0,0.0,0.0,0.0,0.0,0.0,0.0
1606827118119439331,1244491,1606827118113158840,imu_link,0.08008545637130737,0.0007172305486164987,0.04673711955547333,0.9956914782524109,0.0,0.0,0.0,0.0,0.0,0.0,0.0,0.0,0.0,5.347042560577393,-0.34707966446876526,9.180822372436523,0.0,0.0,0.0,0.0,0.0,0.0,0.0,0.0,0.0,0.0010517193004488945,0.04231610894203186,0.34036868810653687,0.0,0.0,0.0,0.0,0.0,0.0,0.0,0.0,0.0
1606827118121346855,1244492,1606827118113358426,imu_link,0.08008545637130737,0.0007172305486164987,0.04673711955547333,0.9956914782524109,0.0,0.0,0.0,0.0,0.0,0.0,0.0,0.0,0.0,5.347042560577393,-0.34707966446876526,9.180822372436523,0.0,0.0,0.0,0.0,0.0,0.0,0.0,0.0,0.0,0.0010517193004488945,0.04231610894203186,0.34036868810653687,0.0,0.0,0.0,0.0,0.0,0.0,0.0,0.0,0.0
1606827118121369520,1244493,1606827118113549322,imu_link,0.0800885409116745,0.0007204771973192692,0.046740222722291946,0.9956910610198975,0.0,0.0,0.0,0.0,0.0,0.0,0.0,0.0,0.0,5.34742546081543,-0.3467542827129364,9.181191444396973,0.0,0.0,0.0,0.0,0.0,0.0,0.0,0.0,0.0,0.0032482133246958256,0.06167922168970108,0.34080109000205994,0.0,0.0,0.0,0.0,0.0,0.0,0.0,0.0,0.0
1606827118121379965,1244494,1606827118113786013,imu_link,0.0800885409116745,0.0007204771973192692,0.046740222722291946,0.9956910610198975,0.0,0.0,0.0,0.0,0.0,0.0,0.0,0.0,0.0,5.34742546081543,-0.3467542827129364,9.181191444396973,0.0,0.0,0.0,0.0,0.0,0.0,0.0,0.0,0.0,0.0032482133246958256,0.06167922168970108,0.34080109000205994,0.0,0.0,0.0,0.0,0.0,0.0,0.0,0.0,0.0
1606827118121389851,1244495,1606827118113946318,imu_link,0.08008895069360733,0.0007184082060121,0.0467398464679718,0.9956910610198975,0.0,0.0,0.0,0.0,0.0,0.0,0.0,0.0,0.0,5.347363471984863,-0.34698906540870667,9.181228637695312,0.0,0.0,0.0,0.0,0.0,0.0,0.0,0.0,0.0,0.009032383561134338,0.06378090381622314,0.34350189566612244,0.0,0.0,0.0,0.0,0.0,0.0,0.0,0.0,0.0
1606827118121418750,1244496,1606827118114101065,imu_link,0.08008895069360733,0.0007184082060121,0.0467398464679718,0.9956910610198975,0.0,0.0,0.0,0.0,0.0,0.0,0.0,0.0,0.0,5.347363471984863,-0.34698906540870667,9.181228637695312,0.0,0.0,0.0,0.0,0.0,0.0,0.0,0.0,0.0,0.009032383561134338,0.06378090381622314,0.34350189566612244,0.0,0.0,0.0,0.0,0.0,0.0,0.0,0.0,0.0
1606827118121424149,1244497,1606827118114274726,imu_link,0.08008579164743423,0.0007174127385951579,0.046741679310798645,0.9956912398338318,0.0,0.0,0.0,0.0,0.0,0.0,0.0,0.0,0.0,5.347564697265625,-0.347102552652359,9.180859565734863,0.0,0.0,0.0,0.0,0.0,0.0,0.0,0.0,0.0,0.016958314925432205,0.04779516160488129,0.3451954424381256,0.0,0.0,0.0,0.0,0.0,0.0,0.0,0.0,0.0
1606827118121437311,1244498,1606827118114433803,imu_link,0.08008579164743423,0.0007174127385951579,0.046741679310798645,0.9956912398338318,0.0,0.0,0.0,0.0,0.0,0.0,0.0,0.0,0.0,5.347564697265625,-0.347102552652359,9.180859565734863,0.0,0.0,0.0,0.0,0.0,0.0,0.0,0.0,0.0,0.016958314925432205,0.04779516160488129,0.3451954424381256,0.0,0.0,0.0,0.0,0.0,0.0,0.0,0.0,0.0
1606827118121478908,1244499,1606827118114588290,imu_link,0.08008518815040588,0.0007165971910580993,0.04674270376563072,0.9956912398338318,0.0,0.0,0.0,0.0,0.0,0.0,0.0,0.0,0.0,5.34767484664917,-0.34720179438591003,9.1807861328125,0.0,0.0,0.0,0.0,0.0,0.0,0.0,0.0,0.0,0.0028681322000920773,0.04252138361334801,0.3459970951080322,0.0,0.0,0.0,0.0,0.0,0.0,0.0,0.0,0.0
1606827118122186647,1244500,1606827118114739208,imu_link,0.08008518815040588,0.0007165971910580993,0.04674270376563072,0.9956912398338318,0.0,0.0,0.0,0.0,0.0,0.0,0.0,0.0,0.0,5.34767484664917,-0.34720179438591003,9.1807861328125,0.0,0.0,0.0,0.0,0.0,0.0,0.0,0.0,0.0,0.0028681322000920773,0.04252138361334801,0.3459970951080322,0.0,0.0,0.0,0.0,0.0,0.0,0.0,0.0,0.0
1606827118122197614,1244501,1606827118114889034,imu_link,0.08008721470832825,0.0007148142321966588,0.04674277827143669,0.9956910610198975,0.0,0.0,0.0,0.0,0.0,0.0,0.0,0.0,0.0,5.347665786743164,-0.3474167585372925,9.181010246276855,0.0,0.0,0.0,0.0,0.0,0.0,0.0,0.0,0.0,-0.0068899886682629585,0.04107354208827019,0.34339576959609985,0.0,0.0,0.0,0.0,0.0,0.0,0.0,0.0,0.0
1606827118133418095,1244502,1606827118127083315,imu_link,0.08008721470832825,0.0007148142321966588,0.04674277827143669,0.9956910610198975,0.0,0.0,0.0,0.0,0.0,0.0,0.0,0.0,0.0,5.347665786743164,-0.3474167585372925,9.181010246276855,0.0,0.0,0.0,0.0,0.0,0.0,0.0,0.0,0.0,-0.0068899886682629585,0.04107354208827019,0.34339576959609985,0.0,0.0,0.0,0.0,0.0,0.0,0.0,0.0,0.0
1606827118134375606,1244503,1606827118127251253,imu_link,0.08008725941181183,0.0007168608135543764,0.04674364998936653,0.9956910014152527,0.0,0.0,0.0,0.0,0.0,0.0,0.0,0.0,0.0,5.347784042358398,-0.3471914827823639,9.181023597717285,0.0,0.0,0.0,0.0,0.0,0.0,0.0,0.0,0.0,0.005764738190919161,0.030133098363876343,0.3343117833137512,0.0,0.0,0.0,0.0,0.0,0.0,0.0,0.0,0.0
1606827118134397044,1244504,1606827118127448455,imu_link,0.08008725941181183,0.0007168608135543764,0.04674364998936653,0.9956910014152527,0.0,0.0,0.0,0.0,0.0,0.0,0.0,0.0,0.0,5.347784042358398,-0.3471914827823639,9.181023597717285,0.0,0.0,0.0,0.0,0.0,0.0,0.0,0.0,0.0,0.005764738190919161,0.030133098363876343,0.3343117833137512,0.0,0.0,0.0,0.0,0.0,0.0,0.0,0.0,0.0
1606827118134405356,1244505,1606827118127658076,imu_link,0.0800929144024849,0.0007160219829529524,0.04674474149942398,0.9956905245780945,0.0,0.0,0.0,0.0,0.0,0.0,0.0,0.0,0.0,5.347899436950684,-0.3473275601863861,9.181669235229492,0.0,0.0,0.0,0.0,0.0,0.0,0.0,0.0,0.0,0.03141988441348076,0.03123542107641697,0.31622186303138733,0.0,0.0,0.0,0.0,0.0,0.0,0.0,0.0,0.0
1606827118134427246,1244506,1606827118127820630,imu_link,0.0800929144024849,0.0007160219829529524,0.04674474149942398,0.9956905245780945,0.0,0.0,0.0,0.0,0.0,0.0,0.0,0.0,0.0,5.347899436950684,-0.3473275601863861,9.181669235229492,0.0,0.0,0.0,0.0,0.0,0.0,0.0,0.0,0.0,0.03141988441348076,0.03123542107641697,0.31622186303138733,0.0,0.0,0.0,0.0,0.0,0.0,0.0,0.0,0.0
1606827118134435736,1244507,1606827118127961015,imu_link,0.08009427785873413,0.0007155421189963818,0.04674646630883217,0.9956902861595154,0.0,0.0,0.0,0.0,0.0,0.0,0.0,0.0,0.0,5.348092079162598,-0.34740546345710754,9.181821823120117,0.0,0.0,0.0,0.0,0.0,0.0,0.0,0.0,0.0,0.024044685065746307,0.033563002943992615,0.3135056793689728,0.0,0.0,0.0,0.0,0.0,0.0,0.0,0.0,0.0
1606827118135974948,1244508,1606827118128119572,imu_link,0.08009427785873413,0.0007155421189963818,0.04674646630883217,0.9956902861595154,0.0,0.0,0.0,0.0,0.0,0.0,0.0,0.0,0.0,5.348092079162598,-0.34740546345710754,9.181821823120117,0.0,0.0,0.0,0.0,0.0,0.0,0.0,0.0,0.0,0.024044685065746307,0.033563002943992615,0.3135056793689728,0.0,0.0,0.0,0.0,0.0,0.0,0.0,0.0,0.0
1606827118135996171,1244509,1606827118128264712,imu_link,0.08009540289640427,0.0007200874388217926,0.04674721509218216,0.9956901669502258,0.0,0.0,0.0,0.0,0.0,0.0,0.0,0.0,0.0,5.348219394683838,-0.34689974784851074,9.181975364685059,0.0,0.0,0.0,0.0,0.0,0.0,0.0,0.0,0.0,-0.0029273084364831448,0.04459509626030922,0.32616955041885376,0.0,0.0,0.0,0.0,0.0,0.0,0.0,0.0,0.0
1606827118136005406,1244510,1606827118128401526,imu_link,0.08009540289640427,0.0007200874388217926,0.04674721509218216,0.9956901669502258,0.0,0.0,0.0,0.0,0.0,0.0,0.0,0.0,0.0,5.348219394683838,-0.34689974784851074,9.181975364685059,0.0,0.0,0.0,0.0,0.0,0.0,0.0,0.0,0.0,-0.0029273084364831448,0.04459509626030922,0.32616955041885376,0.0,0.0,0.0,0.0,0.0,0.0,0.0,0.0,0.0
1606827118136029885,1244511,1606827118128540683,imu_link,0.0800963044166565,0.0007207369199022651,0.04674870893359184,0.9956900477409363,0.0,0.0,0.0,0.0,0.0,0.0,0.0,0.0,0.0,5.348395347595215,-0.3468441665172577,9.182082176208496,0.0,0.0,0.0,0.0,0.0,0.0,0.0,0.0,0.0,-0.018663719296455383,0.0716075748205185,0.3210582435131073,0.0,0.0,0.0,0.0,0.0,0.0,0.0,0.0,0.0
1606827118136038923,1244512,1606827118128678361,imu_link,0.0800963044166565,0.0007207369199022651,0.04674870893359184,0.9956900477409363,0.0,0.0,0.0,0.0,0.0,0.0,0.0,0.0,0.0,5.348395347595215,-0.3468441665172577,9.182082176208496,0.0,0.0,0.0,0.0,0.0,0.0,0.0,0.0,0.0,-0.018663719296455383,0.0716075748205185,0.3210582435131073,0.0,0.0,0.0,0.0,0.0,0.0,0.0,0.0,0.0
1606827118146854535,1244513,1606827118140558791,imu_link,0.0800933837890625,0.0007167368894442916,0.04674394056200981,0.9956905245780945,0.0,0.0,0.0,0.0,0.0,0.0,0.0,0.0,0.0,5.347814559936523,-0.3472411334514618,9.181726455688477,0.0,0.0,0.0,0.0,0.0,0.0,0.0,0.0,0.0,-0.02046256698668003,0.08249008655548096,0.3102855086326599,0.0,0.0,0.0,0.0,0.0,0.0,0.0,0.0,0.0
1606827118149003981,1244514,1606827118140744390,imu_link,0.0800933837890625,0.0007167368894442916,0.04674394056200981,0.9956905245780945,0.0,0.0,0.0,0.0,0.0,0.0,0.0,0.0,0.0,5.347814559936523,-0.3472411334514618,9.181726455688477,0.0,0.0,0.0,0.0,0.0,0.0,0.0,0.0,0.0,-0.02046256698668003,0.08249008655548096,0.3102855086326599,0.0,0.0,0.0,0.0,0.0,0.0,0.0,0.0,0.0
1606827118149032312,1244515,1606827118140900390,imu_link,0.08009231090545654,0.0007151022437028587,0.046745311468839645,0.9956905245780945,0.0,0.0,0.0,0.0,0.0,0.0,0.0,0.0,0.0,5.34795618057251,-0.34743449091911316,9.181594848632812,0.0,0.0,0.0,0.0,0.0,0.0,0.0,0.0,0.0,-0.010078854858875275,0.07348527014255524,0.32413098216056824,0.0,0.0,0.0,0.0,0.0,0.0,0.0,0.0,0.0
1606827118149047461,1244516,1606827118141129624,imu_link,0.08009231090545654,0.0007151022437028587,0.046745311468839645,0.9956905245780945,0.0,0.0,0.0,0.0,0.0,0.0,0.0,0.0,0.0,5.34795618057251,-0.34743449091911316,9.181594848632812,0.0,0.0,0.0,0.0,0.0,0.0,0.0,0.0,0.0,-0.010078854858875275,0.07348527014255524,0.32413098216056824,0.0,0.0,0.0,0.0,0.0,0.0,0.0,0.0,0.0
1606827118149058880,1244517,1606827118141311459,imu_link,0.0800892561674118,0.0007127384888008237,0.046741943806409836,0.9956909418106079,0.0,0.0,0.0,0.0,0.0,0.0,0.0,0.0,0.0,5.347550868988037,-0.34765687584877014,9.181232452392578,0.0,0.0,0.0,0.0,0.0,0.0,0.0,0.0,0.0,-0.013327649794518948,0.03870060294866562,0.32781222462654114,0.0,0.0,0.0,0.0,0.0,0.0,0.0,0.0,0.0
1606827118149071567,1244518,1606827118141501868,imu_link,0.0800892561674118,0.0007127384888008237,0.046741943806409836,0.9956909418106079,0.0,0.0,0.0,0.0,0.0,0.0,0.0,0.0,0.0,5.347550868988037,-0.34765687584877014,9.181232452392578,0.0,0.0,0.0,0.0,0.0,0.0,0.0,0.0,0.0,-0.013327649794518948,0.03870060294866562,0.32781222462654114,0.0,0.0,0.0,0.0,0.0,0.0,0.0,0.0,0.0
1606827118149082805,1244519,1606827118141648757,imu_link,0.08009004592895508,0.0007134483312256634,0.04674344137310982,0.9956907629966736,0.0,0.0,0.0,0.0,0.0,0.0,0.0,0.0,0.0,5.347728252410889,-0.34759387373924255,9.181326866149902,0.0,0.0,0.0,0.0,0.0,0.0,0.0,0.0,0.0,-0.008431811816990376,0.041771937161684036,0.32781893014907837,0.0,0.0,0.0,0.0,0.0,0.0,0.0,0.0,0.0
1606827118149095345,1244520,1606827118141819346,imu_link,0.08009004592895508,0.0007134483312256634,0.04674344137310982,0.9956907629966736,0.0,0.0,0.0,0.0,0.0,0.0,0.0,0.0,0.0,5.347728252410889,-0.34759387373924255,9.181326866149902,0.0,0.0,0.0,0.0,0.0,0.0,0.0,0.0,0.0,-0.008431811816990376,0.041771937161684036,0.32781893014907837,0.0,0.0,0.0,0.0,0.0,0.0,0.0,0.0,0.0
1606827118149103814,1244521,1606827118141970445,imu_link,0.08009152859449387,0.0007136990898288786,0.04673750326037407,0.9956909418106079,0.0,0.0,0.0,0.0,0.0,0.0,0.0,0.0,0.0,5.347051620483398,-0.3475187122821808,9.181501388549805,0.0,0.0,0.0,0.0,0.0,0.0,0.0,0.0,0.0,-0.0007950600702315569,0.0657055675983429,0.32674187421798706,0.0,0.0,0.0,0.0,0.0,0.0,0.0,0.0,0.0
1606827118150919896,1244522,1606827118142124610,imu_link,0.08009152859449387,0.0007136990898288786,0.04673750326037407,0.9956909418106079,0.0,0.0,0.0,0.0,0.0,0.0,0.0,0.0,0.0,5.347051620483398,-0.3475187122821808,9.181501388549805,0.0,0.0,0.0,0.0,0.0,0.0,0.0,0.0,0.0,-0.0007950600702315569,0.0657055675983429,0.32674187421798706,0.0,0.0,0.0,0.0,0.0,0.0,0.0,0.0,0.0
1606827118150936702,1244523,1606827118142284825,imu_link,0.08008994907140732,0.0007128504803404212,0.046737998723983765,0.9956910610198975,0.0,0.0,0.0,0.0,0.0,0.0,0.0,0.0,0.0,5.347100734710693,-0.34761160612106323,9.181313514709473,0.0,0.0,0.0,0.0,0.0,0.0,0.0,0.0,0.0,0.002540235873311758,0.06305908411741257,0.32465288043022156,0.0,0.0,0.0,0.0,0.0,0.0,0.0,0.0,0.0
1606827118159735874,1244524,1606827118153408423,imu_link,0.08008994907140732,0.0007128504803404212,0.046737998723983765,0.9956910610198975,0.0,0.0,0.0,0.0,0.0,0.0,0.0,0.0,0.0,5.347100734710693,-0.34761160612106323,9.181313514709473,0.0,0.0,0.0,0.0,0.0,0.0,0.0,0.0,0.0,0.002540235873311758,0.06305908411741257,0.32465288043022156,0.0,0.0,0.0,0.0,0.0,0.0,0.0,0.0,0.0
1606827118163538215,1244525,1606827118153558922,imu_link,0.08008907735347748,0.000711532193236053,0.04673561453819275,0.9956912398338318,0.0,0.0,0.0,0.0,0.0,0.0,0.0,0.0,0.0,5.346816062927246,-0.3477354645729065,9.181208610534668,0.0,0.0,0.0,0.0,0.0,0.0,0.0,0.0,0.0,-0.003016569884493947,0.045516155660152435,0.3293502628803253,0.0,0.0,0.0,0.0,0.0,0.0,0.0,0.0,0.0
1606827118163556036,1244526,1606827118153692747,imu_link,0.08008907735347748,0.000711532193236053,0.04673561453819275,0.9956912398338318,0.0,0.0,0.0,0.0,0.0,0.0,0.0,0.0,0.0,5.346816062927246,-0.3477354645729065,9.181208610534668,0.0,0.0,0.0,0.0,0.0,0.0,0.0,0.0,0.0,-0.003016569884493947,0.045516155660152435,0.3293502628803253,0.0,0.0,0.0,0.0,0.0,0.0,0.0,0.0,0.0
1606827118163586478,1244527,1606827118153890973,imu_link,0.08008956164121628,0.0007114228210411966,0.04673631489276886,0.995691180229187,0.0,0.0,0.0,0.0,0.0,0.0,0.0,0.0,0.0,5.346895694732666,-0.347756952047348,9.18126392364502,0.0,0.0,0.0,0.0,0.0,0.0,0.0,0.0,0.0,-0.027087779715657234,0.029194049537181854,0.321240097284317,0.0,0.0,0.0,0.0,0.0,0.0,0.0,0.0,0.0
1606827118163601690,1244528,1606827118154024188,imu_link,0.08008956164121628,0.0007114228210411966,0.04673631489276886,0.995691180229187,0.0,0.0,0.0,0.0,0.0,0.0,0.0,0.0,0.0,5.346895694732666,-0.347756952047348,9.18126392364502,0.0,0.0,0.0,0.0,0.0,0.0,0.0,0.0,0.0,-0.027087779715657234,0.029194049537181854,0.321240097284317,0.0,0.0,0.0,0.0,0.0,0.0,0.0,0.0,0.0
1606827118163616685,1244529,1606827118154190392,imu_link,0.08009674400091171,0.0007067981059662998,0.04673083499073982,0.9956908226013184,0.0,0.0,0.0,0.0,0.0,0.0,0.0,0.0,0.0,5.346223831176758,-0.34827283024787903,9.182065963745117,0.0,0.0,0.0,0.0,0.0,0.0,0.0,0.0,0.0,-0.016352267935872078,0.06025436893105507,0.3063395619392395,0.0,0.0,0.0,0.0,0.0,0.0,0.0,0.0,0.0
1606827118163626602,1244530,1606827118154305754,imu_link,0.08009674400091171,0.0007067981059662998,0.04673083499073982,0.9956908226013184,0.0,0.0,0.0,0.0,0.0,0.0,0.0,0.0,0.0,5.346223831176758,-0.34827283024787903,9.182065963745117,0.0,0.0,0.0,0.0,0.0,0.0,0.0,0.0,0.0,-0.016352267935872078,0.06025436893105507,0.3063395619392395,0.0,0.0,0.0,0.0,0.0,0.0,0.0,0.0,0.0
1606827118163646542,1244531,1606827118154433461,imu_link,0.08009659498929977,0.0007057255716063082,0.046732932329177856,0.9956907629966736,0.0,0.0,0.0,0.0,0.0,0.0,0.0,0.0,0.0,5.346454620361328,-0.3484136462211609,9.18204116821289,0.0,0.0,0.0,0.0,0.0,0.0,0.0,0.0,0.0,-0.0011147332843393087,0.06581030786037445,0.30683737993240356,0.0,0.0,0.0,0.0,0.0,0.0,0.0,0.0,0.0
1606827118163657331,1244532,1606827118154566127,imu_link,0.08009659498929977,0.0007057255716063082,0.046732932329177856,0.9956907629966736,0.0,0.0,0.0,0.0,0.0,0.0,0.0,0.0,0.0,5.346454620361328,-0.3484136462211609,9.18204116821289,0.0,0.0,0.0,0.0,0.0,0.0,0.0,0.0,0.0,-0.0011147332843393087,0.06581030786037445,0.30683737993240356,0.0,0.0,0.0,0.0,0.0,0.0,0.0,0.0,0.0
1606827118164667816,1244533,1606827118154689681,imu_link,0.08009535074234009,0.0007056747563183308,0.0467245951294899,0.9956912994384766,0.0,0.0,0.0,0.0,0.0,0.0,0.0,0.0,0.0,5.345500469207764,-0.34833624958992004,9.181900978088379,0.0,0.0,0.0,0.0,0.0,0.0,0.0,0.0,0.0,-0.0010825148783624172,0.05000259354710579,0.3355245888233185,0.0,0.0,0.0,0.0,0.0,0.0,0.0,0.0,0.0
1606827118191073136,1244534,1606827118167143255,imu_link,0.08009535074234009,0.0007056747563183308,0.0467245951294899,0.9956912994384766,0.0,0.0,0.0,0.0,0.0,0.0,0.0,0.0,0.0,5.345500469207764,-0.34833624958992004,9.181900978088379,0.0,0.0,0.0,0.0,0.0,0.0,0.0,0.0,0.0,-0.0010825148783624172,0.05000259354710579,0.3355245888233185,0.0,0.0,0.0,0.0,0.0,0.0,0.0,0.0,0.0
1606827118191100483,1244535,1606827118167367176,imu_link,0.08009382337331772,0.0007044677622616291,0.04672527685761452,0.9956913590431213,0.0,0.0,0.0,0.0,0.0,0.0,0.0,0.0,0.0,5.3455681800842285,-0.3484720289707184,9.181719779968262,0.0,0.0,0.0,0.0,0.0,0.0,0.0,0.0,0.0,0.0030279168859124184,0.05706648528575897,0.3512047529220581,0.0,0.0,0.0,0.0,0.0,0.0,0.0,0.0,0.0
1606827118191112739,1244536,1606827118167527702,imu_link,0.08009382337331772,0.0007044677622616291,0.04672527685761452,0.9956913590431213,0.0,0.0,0.0,0.0,0.0,0.0,0.0,0.0,0.0,5.3455681800842285,-0.3484720289707184,9.181719779968262,0.0,0.0,0.0,0.0,0.0,0.0,0.0,0.0,0.0,0.0030279168859124184,0.05706648528575897,0.3512047529220581,0.0,0.0,0.0,0.0,0.0,0.0,0.0,0.0,0.0
1606827118191126031,1244537,1606827118167687290,imu_link,0.08009552955627441,0.0007033466245047748,0.046725451946258545,0.9956912398338318,0.0,0.0,0.0,0.0,0.0,0.0,0.0,0.0,0.0,5.345577239990234,-0.34861069917678833,9.18190860748291,0.0,0.0,0.0,0.0,0.0,0.0,0.0,0.0,0.0,5.5490294471383095e-05,0.052938204258680344,0.3378640115261078,0.0,0.0,0.0,0.0,0.0,0.0,0.0,0.0,0.0
1606827118191132649,1244538,1606827118167841992,imu_link,0.08009552955627441,0.0007033466245047748,0.046725451946258545,0.9956912398338318,0.0,0.0,0.0,0.0,0.0,0.0,0.0,0.0,0.0,5.345577239990234,-0.34861069917678833,9.18190860748291,0.0,0.0,0.0,0.0,0.0,0.0,0.0,0.0,0.0,5.5490294471383095e-05,0.052938204258680344,0.3378640115261078,0.0,0.0,0.0,0.0,0.0,0.0,0.0,0.0,0.0
1606827118191144236,1244539,1606827118167984426,imu_link,0.08009491115808487,0.0007020895718596876,0.04672788456082344,0.995691180229187,0.0,0.0,0.0,0.0,0.0,0.0,0.0,0.0,0.0,5.345844268798828,-0.34877315163612366,9.181830406188965,0.0,0.0,0.0,0.0,0.0,0.0,0.0,0.0,0.0,-0.007925830781459808,0.04891962185502052,0.32268252968788147,0.0,0.0,0.0,0.0,0.0,0.0,0.0,0.0,0.0
1606827118191156281,1244540,1606827118168169659,imu_link,0.08009491115808487,0.0007020895718596876,0.04672788456082344,0.995691180229187,0.0,0.0,0.0,0.0,0.0,0.0,0.0,0.0,0.0,5.345844268798828,-0.34877315163612366,9.181830406188965,0.0,0.0,0.0,0.0,0.0,0.0,0.0,0.0,0.0,-0.007925830781459808,0.04891962185502052,0.32268252968788147,0.0,0.0,0.0,0.0,0.0,0.0,0.0,0.0,0.0
1606827118191175707,1244541,1606827118168334264,imu_link,0.08009564131498337,0.0007031970308162272,0.04672951251268387,0.9956910014152527,0.0,0.0,0.0,0.0,0.0,0.0,0.0,0.0,0.0,5.346039772033691,-0.34866568446159363,9.18191909790039,0.0,0.0,0.0,0.0,0.0,0.0,0.0,0.0,0.0,-0.0002718977630138397,0.04582936316728592,0.3183150887489319,0.0,0.0,0.0,0.0,0.0,0.0,0.0,0.0,0.0
1606827118191180018,1244542,1606827118168486620,imu_link,0.08009564131498337,0.0007031970308162272,0.04672951251268387,0.9956910014152527,0.0,0.0,0.0,0.0,0.0,0.0,0.0,0.0,0.0,5.346039772033691,-0.34866568446159363,9.18191909790039,0.0,0.0,0.0,0.0,0.0,0.0,0.0,0.0,0.0,-0.0002718977630138397,0.04582936316728592,0.3183150887489319,0.0,0.0,0.0,0.0,0.0,0.0,0.0,0.0,0.0
1606827118191185665,1244543,1606827118168632913,imu_link,0.08009575307369232,0.0007034382433630526,0.046730879694223404,0.9956909418106079,0.0,0.0,0.0,0.0,0.0,0.0,0.0,0.0,0.0,5.346198558807373,-0.34865128993988037,9.181933403015137,0.0,0.0,0.0,0.0,0.0,0.0,0.0,0.0,0.0,0.01070091500878334,0.04352346435189247,0.3243422508239746,0.0,0.0,0.0,0.0,0.0,0.0,0.0,0.0,0.0
1606827118191194146,1244544,1606827118168780819,imu_link,0.08009575307369232,0.0007034382433630526,0.046730879694223404,0.9956909418106079,0.0,0.0,0.0,0.0,0.0,0.0,0.0,0.0,0.0,5.346198558807373,-0.34865128993988037,9.181933403015137,0.0,0.0,0.0,0.0,0.0,0.0,0.0,0.0,0.0,0.01070091500878334,0.04352346435189247,0.3243422508239746,0.0,0.0,0.0,0.0,0.0,0.0,0.0,0.0,0.0
1606827118191201572,1244545,1606827118180588567,imu_link,0.08009723573923111,0.0007052469882182777,0.04673208296298981,0.9956907629966736,0.0,0.0,0.0,0.0,0.0,0.0,0.0,0.0,0.0,5.3463521003723145,-0.34846392273902893,9.182112693786621,0.0,0.0,0.0,0.0,0.0,0.0,0.0,0.0,0.0,0.0043920231983065605,0.040739841759204865,0.3254378139972687,0.0,0.0,0.0,0.0,0.0,0.0,0.0,0.0,0.0
1606827118191246297,1244546,1606827118180667301,imu_link,0.08009723573923111,0.0007052469882182777,0.04673208296298981,0.9956907629966736,0.0,0.0,0.0,0.0,0.0,0.0,0.0,0.0,0.0,5.3463521003723145,-0.34846392273902893,9.182112693786621,0.0,0.0,0.0,0.0,0.0,0.0,0.0,0.0,0.0,0.0043920231983065605,0.040739841759204865,0.3254378139972687,0.0,0.0,0.0,0.0,0.0,0.0,0.0,0.0,0.0
1606827118191284519,1244547,1606827118180736632,imu_link,0.08009646087884903,0.0007041884819045663,0.046730902045965195,0.9956908822059631,0.0,0.0,0.0,0.0,0.0,0.0,0.0,0.0,0.0,5.346207618713379,-0.34856969118118286,9.182018280029297,0.0,0.0,0.0,0.0,0.0,0.0,0.0,0.0,0.0,-0.0039004383143037558,0.040539633482694626,0.31963884830474854,0.0,0.0,0.0,0.0,0.0,0.0,0.0,0.0,0.0
1606827118191294420,1244548,1606827118180804065,imu_link,0.08009646087884903,0.0007041884819045663,0.046730902045965195,0.9956908822059631,0.0,0.0,0.0,0.0,0.0,0.0,0.0,0.0,0.0,5.346207618713379,-0.34856969118118286,9.182018280029297,0.0,0.0,0.0,0.0,0.0,0.0,0.0,0.0,0.0,-0.0039004383143037558,0.040539633482694626,0.31963884830474854,0.0,0.0,0.0,0.0,0.0,0.0,0.0,0.0,0.0
1606827118191324280,1244549,1606827118180872170,imu_link,0.08009643107652664,0.0007029718835838139,0.04673335701227188,0.9956907629966736,0.0,0.0,0.0,0.0,0.0,0.0,0.0,0.0,0.0,5.346477031707764,-0.3487308919429779,9.1820068359375,0.0,0.0,0.0,0.0,0.0,0.0,0.0,0.0,0.0,-0.011042582802474499,0.04643921181559563,0.3172202706336975,0.0,0.0,0.0,0.0,0.0,0.0,0.0,0.0,0.0
1606827118191337399,1244550,1606827118180937408,imu_link,0.08009643107652664,0.0007029718835838139,0.04673335701227188,0.9956907629966736,0.0,0.0,0.0,0.0,0.0,0.0,0.0,0.0,0.0,5.346477031707764,-0.3487308919429779,9.1820068359375,0.0,0.0,0.0,0.0,0.0,0.0,0.0,0.0,0.0,-0.011042582802474499,0.04643921181559563,0.3172202706336975,0.0,0.0,0.0,0.0,0.0,0.0,0.0,0.0,0.0
1606827118196156316,1244551,1606827118181015521,imu_link,0.08009801059961319,0.0007020733319222927,0.046732500195503235,0.9956907033920288,0.0,0.0,0.0,0.0,0.0,0.0,0.0,0.0,0.0,5.346369743347168,-0.34883400797843933,9.182186126708984,0.0,0.0,0.0,0.0,0.0,0.0,0.0,0.0,0.0,-0.018959546461701393,0.04914417117834091,0.3201242983341217,0.0,0.0,0.0,0.0,0.0,0.0,0.0,0.0,0.0
