%time,field.header.seq,field.header.stamp,field.header.frame_id,field.orientation.x,field.orientation.y,field.orientation.z,field.orientation.w,field.orientation_covariance0,field.orientation_covariance1,field.orientation_covariance2,field.orientation_covariance3,field.orientation_covariance4,field.orientation_covariance5,field.orientation_covariance6,field.orientation_covariance7,field.orientation_covariance8,field.angular_velocity.x,field.angular_velocity.y,field.angular_velocity.z,field.angular_velocity_covariance0,field.angular_velocity_covariance1,field.angular_velocity_covariance2,field.angular_velocity_covariance3,field.angular_velocity_covariance4,field.angular_velocity_covariance5,field.angular_velocity_covariance6,field.angular_velocity_covariance7,field.angular_velocity_covariance8,field.linear_acceleration.x,field.linear_acceleration.y,field.linear_acceleration.z,field.linear_acceleration_covariance0,field.linear_acceleration_covariance1,field.linear_acceleration_covariance2,field.linear_acceleration_covariance3,field.linear_acceleration_covariance4,field.linear_acceleration_covariance5,field.linear_acceleration_covariance6,field.linear_acceleration_covariance7,field.linear_acceleration_covariance8
1606826297271467025,587817,1606826297263540153,imu_link,0.001391099183820188,0.003039028262719512,0.019261106848716736,0.9998089075088501,0.0,0.0,0.0,0.0,0.0,0.0,0.0,0.0,0.0,2.2078089714050293,0.3451121151447296,0.16608862578868866,0.0,0.0,0.0,0.0,0.0,0.0,0.0,0.0,0.0,0.008914392441511154,0.0017633186653256416,0.3206124007701874,0.0,0.0,0.0,0.0,0.0,0.0,0.0,0.0,0.0
1606826297271506115,587818,1606826297263654798,imu_link,0.001391099183820188,0.003039028262719512,0.019261106848716736,0.9998089075088501,0.0,0.0,0.0,0.0,0.0,0.0,0.0,0.0,0.0,2.2078089714050293,0.3451121151447296,0.16608862578868866,0.0,0.0,0.0,0.0,0.0,0.0,0.0,0.0,0.0,0.008914392441511154,0.0017633186653256416,0.3206124007701874,0.0,0.0,0.0,0.0,0.0,0.0,0.0,0.0,0.0
1606826297271517291,587819,1606826297263777962,imu_link,0.0013898257166147232,0.0030385609716176987,0.019261183217167854,0.9998089075088501,0.0,0.0,0.0,0.0,0.0,0.0,0.0,0.0,0.0,2.2078170776367188,0.34506139159202576,0.16594170033931732,0.0,0.0,0.0,0.0,0.0,0.0,0.0,0.0,0.0,0.0016663615824654698,0.004091738723218441,0.2925509810447693,0.0,0.0,0.0,0.0,0.0,0.0,0.0,0.0,0.0
1606826297271533638,587820,1606826297263953342,imu_link,0.0013898257166147232,0.0030385609716176987,0.019261183217167854,0.9998089075088501,0.0,0.0,0.0,0.0,0.0,0.0,0.0,0.0,0.0,2.2078170776367188,0.34506139159202576,0.16594170033931732,0.0,0.0,0.0,0.0,0.0,0.0,0.0,0.0,0.0,0.0016663615824654698,0.004091738723218441,0.2925509810447693,0.0,0.0,0.0,0.0,0.0,0.0,0.0,0.0,0.0
1606826297271594127,587821,1606826297264043009,imu_link,0.0013901155907660723,0.003039947710931301,0.019258927553892136,0.9998089671134949,0.0,0.0,0.0,0.0,0.0,0.0,0.0,0.0,0.0,2.20755934715271,0.34522002935409546,0.16597719490528107,0.0,0.0,0.0,0.0,0.0,0.0,0.0,0.0,0.0,-0.005409522447735071,0.01207805797457695,0.29733002185821533,0.0,0.0,0.0,0.0,0.0,0.0,0.0,0.0,0.0
1606826297271605931,587822,1606826297264142268,imu_link,0.0013901155907660723,0.003039947710931301,0.019258927553892136,0.9998089671134949,0.0,0.0,0.0,0.0,0.0,0.0,0.0,0.0,0.0,2.20755934715271,0.34522002935409546,0.16597719490528107,0.0,0.0,0.0,0.0,0.0,0.0,0.0,0.0,0.0,-0.005409522447735071,0.01207805797457695,0.29733002185821533,0.0,0.0,0.0,0.0,0.0,0.0,0.0,0.0,0.0
1606826297271612280,587823,1606826297264245210,imu_link,0.0013891023118048906,0.0030402031261473894,0.019257673993706703,0.9998089671134949,0.0,0.0,0.0,0.0,0.0,0.0,0.0,0.0,0.0,2.2074151039123535,0.3452517092227936,0.16586123406887054,0.0,0.0,0.0,0.0,0.0,0.0,0.0,0.0,0.0,0.00033583457116037607,0.008720014244318008,0.3188372850418091,0.0,0.0,0.0,0.0,0.0,0.0,0.0,0.0,0.0
1606826297271621136,587824,1606826297264326313,imu_link,0.0013891023118048906,0.0030402031261473894,0.019257673993706703,0.9998089671134949,0.0,0.0,0.0,0.0,0.0,0.0,0.0,0.0,0.0,2.2074151039123535,0.3452517092227936,0.16586123406887054,0.0,0.0,0.0,0.0,0.0,0.0,0.0,0.0,0.0,0.00033583457116037607,0.008720014244318008,0.3188372850418091,0.0,0.0,0.0,0.0,0.0,0.0,0.0,0.0,0.0
1606826297271631683,587825,1606826297264402854,imu_link,0.0013870391994714737,0.0030421686824411154,0.01925486885011196,0.9998090267181396,0.0,0.0,0.0,0.0,0.0,0.0,0.0,0.0,0.0,2.2070932388305664,0.34548190236091614,0.16562823951244354,0.0,0.0,0.0,0.0,0.0,0.0,0.0,0.0,0.0,-0.007575462572276592,0.018639175221323967,0.3096522092819214,0.0,0.0,0.0,0.0,0.0,0.0,0.0,0.0,0.0
1606826297271640910,587826,1606826297264486628,imu_link,0.0013870391994714737,0.0030421686824411154,0.01925486885011196,0.9998090267181396,0.0,0.0,0.0,0.0,0.0,0.0,0.0,0.0,0.0,2.2070932388305664,0.34548190236091614,0.16562823951244354,0.0,0.0,0.0,0.0,0.0,0.0,0.0,0.0,0.0,-0.007575462572276592,0.018639175221323967,0.3096522092819214,0.0,0.0,0.0,0.0,0.0,0.0,0.0,0.0,0.0
1606826297271646330,587827,1606826297264588638,imu_link,0.0013866430381312966,0.0030428993050009012,0.019253574311733246,0.9998090267181396,0.0,0.0,0.0,0.0,0.0,0.0,0.0,0.0,0.0,2.206944704055786,0.3455667197704315,0.165583997964859,0.0,0.0,0.0,0.0,0.0,0.0,0.0,0.0,0.0,-0.006302919238805771,0.02238992415368557,0.3198888599872589,0.0,0.0,0.0,0.0,0.0,0.0,0.0,0.0,0.0
1606826297281608430,587828,1606826297277058600,imu_link,0.0013866430381312966,0.0030428993050009012,0.019253574311733246,0.9998090267181396,0.0,0.0,0.0,0.0,0.0,0.0,0.0,0.0,0.0,2.206944704055786,0.3455667197704315,0.165583997964859,0.0,0.0,0.0,0.0,0.0,0.0,0.0,0.0,0.0,-0.006302919238805771,0.02238992415368557,0.3198888599872589,0.0,0.0,0.0,0.0,0.0,0.0,0.0,0.0,0.0
1606826297283987275,587829,1606826297277184325,imu_link,0.0013822406763210893,0.0030402340926229954,0.019251637160778046,0.9998091459274292,0.0,0.0,0.0,0.0,0.0,0.0,0.0,0.0,0.0,2.2067205905914307,0.34527140855789185,0.16507305204868317,0.0,0.0,0.0,0.0,0.0,0.0,0.0,0.0,0.0,0.0045162383466959,0.0031380311120301485,0.34534281492233276,0.0,0.0,0.0,0.0,0.0,0.0,0.0,0.0,0.0
1606826297284012733,587830,1606826297277359614,imu_link,0.0013822406763210893,0.0030402340926229954,0.019251637160778046,0.9998091459274292,0.0,0.0,0.0,0.0,0.0,0.0,0.0,0.0,0.0,2.2067205905914307,0.34527140855789185,0.16507305204868317,0.0,0.0,0.0,0.0,0.0,0.0,0.0,0.0,0.0,0.0045162383466959,0.0031380311120301485,0.34534281492233276,0.0,0.0,0.0,0.0,0.0,0.0,0.0,0.0,0.0
1606826297284037959,587831,1606826297277435890,imu_link,0.0013820069143548608,0.003040595445781946,0.019251029938459396,0.9998091459274292,0.0,0.0,0.0,0.0,0.0,0.0,0.0,0.0,0.0,2.206650972366333,0.3453134298324585,0.16504685580730438,0.0,0.0,0.0,0.0,0.0,0.0,0.0,0.0,0.0,0.011489533819258213,-0.004206877201795578,0.3403533399105072,0.0,0.0,0.0,0.0,0.0,0.0,0.0,0.0,0.0
1606826297284050653,587832,1606826297277515173,imu_link,0.0013820069143548608,0.003040595445781946,0.019251029938459396,0.9998091459274292,0.0,0.0,0.0,0.0,0.0,0.0,0.0,0.0,0.0,2.206650972366333,0.3453134298324585,0.16504685580730438,0.0,0.0,0.0,0.0,0.0,0.0,0.0,0.0,0.0,0.011489533819258213,-0.004206877201795578,0.3403533399105072,0.0,0.0,0.0,0.0,0.0,0.0,0.0,0.0,0.0
1606826297284066748,587833,1606826297277633311,imu_link,0.0013815724523738027,0.0030410028994083405,0.019255781546235085,0.9998090863227844,0.0,0.0,0.0,0.0,0.0,0.0,0.0,0.0,0.0,2.20719575881958,0.34536027908325195,0.16499963402748108,0.0,0.0,0.0,0.0,0.0,0.0,0.0,0.0,0.0,0.011399936862289906,-0.000331495248246938,0.30981767177581787,0.0,0.0,0.0,0.0,0.0,0.0,0.0,0.0,0.0
1606826297284076983,587834,1606826297277738318,imu_link,0.0013815724523738027,0.0030410028994083405,0.019255781546235085,0.9998090863227844,0.0,0.0,0.0,0.0,0.0,0.0,0.0,0.0,0.0,2.20719575881958,0.34536027908325195,0.16499963402748108,0.0,0.0,0.0,0.0,0.0,0.0,0.0,0.0,0.0,0.011399936862289906,-0.000331495248246938,0.30981767177581787,0.0,0.0,0.0,0.0,0.0,0.0,0.0,0.0,0.0
1606826297284090190,587835,1606826297277821310,imu_link,0.0013804849004372954,0.003037995658814907,0.019252993166446686,0.9998091459274292,0.0,0.0,0.0,0.0,0.0,0.0,0.0,0.0,0.0,2.2068750858306885,0.345018595457077,0.16486743092536926,0.0,0.0,0.0,0.0,0.0,0.0,0.0,0.0,0.0,0.010853848420083523,0.002234288491308689,0.28786712884902954,0.0,0.0,0.0,0.0,0.0,0.0,0.0,0.0,0.0
1606826297284099089,587836,1606826297277907629,imu_link,0.0013804849004372954,0.003037995658814907,0.019252993166446686,0.9998091459274292,0.0,0.0,0.0,0.0,0.0,0.0,0.0,0.0,0.0,2.2068750858306885,0.345018595457077,0.16486743092536926,0.0,0.0,0.0,0.0,0.0,0.0,0.0,0.0,0.0,0.010853848420083523,0.002234288491308689,0.28786712884902954,0.0,0.0,0.0,0.0,0.0,0.0,0.0,0.0,0.0
1606826297285803127,587837,1606826297278032838,imu_link,0.0013809243682771921,0.0030386524740606546,0.019256357103586197,0.9998090267181396,0.0,0.0,0.0,0.0,0.0,0.0,0.0,0.0,0.0,2.207261085510254,0.3450923264026642,0.1649204045534134,0.0,0.0,0.0,0.0,0.0,0.0,0.0,0.0,0.0,0.017118997871875763,0.00947999395430088,0.31407344341278076,0.0,0.0,0.0,0.0,0.0,0.0,0.0,0.0,0.0
1606826297295678169,587838,1606826297290968645,imu_link,0.0013809243682771921,0.0030386524740606546,0.019256357103586197,0.9998090267181396,0.0,0.0,0.0,0.0,0.0,0.0,0.0,0.0,0.0,2.207261085510254,0.3450923264026642,0.1649204045534134,0.0,0.0,0.0,0.0,0.0,0.0,0.0,0.0,0.0,0.017118997871875763,0.00947999395430088,0.31407344341278076,0.0,0.0,0.0,0.0,0.0,0.0,0.0,0.0,0.0
1606826297301515400,587839,1606826297291106468,imu_link,0.0013793639373034239,0.0030379765667021275,0.019255664199590683,0.9998090267181396,0.0,0.0,0.0,0.0,0.0,0.0,0.0,0.0,0.0,2.207181215286255,0.3450184166431427,0.16473989188671112,0.0,0.0,0.0,0.0,0.0,0.0,0.0,0.0,0.0,0.006251179613173008,0.019617874175310135,0.3402264416217804,0.0,0.0,0.0,0.0,0.0,0.0,0.0,0.0,0.0
1606826297301539755,587840,1606826297291343846,imu_link,0.0013793639373034239,0.0030379765667021275,0.019255664199590683,0.9998090267181396,0.0,0.0,0.0,0.0,0.0,0.0,0.0,0.0,0.0,2.207181215286255,0.3450184166431427,0.16473989188671112,0.0,0.0,0.0,0.0,0.0,0.0,0.0,0.0,0.0,0.006251179613173008,0.019617874175310135,0.3402264416217804,0.0,0.0,0.0,0.0,0.0,0.0,0.0,0.0,0.0
1606826297301551213,587841,1606826297291520834,imu_link,0.0013772438978776336,0.003039141185581684,0.019257644191384315,0.9998090267181396,0.0,0.0,0.0,0.0,0.0,0.0,0.0,0.0,0.0,2.2074074745178223,0.3451562225818634,0.16450023651123047,0.0,0.0,0.0,0.0,0.0,0.0,0.0,0.0,0.0,-0.006243336945772171,0.006596748251467943,0.3434903621673584,0.0,0.0,0.0,0.0,0.0,0.0,0.0,0.0,0.0
1606826297301561022,587842,1606826297291613598,imu_link,0.0013772438978776336,0.003039141185581684,0.019257644191384315,0.9998090267181396,0.0,0.0,0.0,0.0,0.0,0.0,0.0,0.0,0.0,2.2074074745178223,0.3451562225818634,0.16450023651123047,0.0,0.0,0.0,0.0,0.0,0.0,0.0,0.0,0.0,-0.006243336945772171,0.006596748251467943,0.3434903621673584,0.0,0.0,0.0,0.0,0.0,0.0,0.0,0.0,0.0
1606826297301576678,587843,1606826297291720029,imu_link,0.00137831992469728,0.003039405681192875,0.019257500767707825,0.9998090267181396,0.0,0.0,0.0,0.0,0.0,0.0,0.0,0.0,0.0,2.2073912620544434,0.34518417716026306,0.16462406516075134,0.0,0.0,0.0,0.0,0.0,0.0,0.0,0.0,0.0,-0.011794565245509148,-0.0009026803891174495,0.3322629928588867,0.0,0.0,0.0,0.0,0.0,0.0,0.0,0.0,0.0
1606826297301590119,587844,1606826297291831431,imu_link,0.00137831992469728,0.003039405681192875,0.019257500767707825,0.9998090267181396,0.0,0.0,0.0,0.0,0.0,0.0,0.0,0.0,0.0,2.2073912620544434,0.34518417716026306,0.16462406516075134,0.0,0.0,0.0,0.0,0.0,0.0,0.0,0.0,0.0,-0.011794565245509148,-0.0009026803891174495,0.3322629928588867,0.0,0.0,0.0,0.0,0.0,0.0,0.0,0.0,0.0
1606826297301605729,587845,1606826297291909436,imu_link,0.0013786194613203406,0.0030414999928325415,0.019258596003055573,0.9998090267181396,0.0,0.0,0.0,0.0,0.0,0.0,0.0,0.0,0.0,2.207517147064209,0.34542328119277954,0.1646633744239807,0.0,0.0,0.0,0.0,0.0,0.0,0.0,0.0,0.0,-0.022061048075556755,0.012023942545056343,0.3083548843860626,0.0,0.0,0.0,0.0,0.0,0.0,0.0,0.0,0.0
1606826297301623105,587846,1606826297291984454,imu_link,0.0013786194613203406,0.0030414999928325415,0.019258596003055573,0.9998090267181396,0.0,0.0,0.0,0.0,0.0,0.0,0.0,0.0,0.0,2.207517147064209,0.34542328119277954,0.1646633744239807,0.0,0.0,0.0,0.0,0.0,0.0,0.0,0.0,0.0,-0.022061048075556755,0.012023942545056343,0.3083548843860626,0.0,0.0,0.0,0.0,0.0,0.0,0.0,0.0,0.0
1606826297304753052,587847,1606826297292120463,imu_link,0.0013776399428024888,0.0030426017474383116,0.019259553402662277,0.9998089671134949,0.0,0.0,0.0,0.0,0.0,0.0,0.0,0.0,0.0,2.207627058029175,0.3455515503883362,0.1645539104938507,0.0,0.0,0.0,0.0,0.0,0.0,0.0,0.0,0.0,0.001502231345511973,0.005258465651422739,0.30491146445274353,0.0,0.0,0.0,0.0,0.0,0.0,0.0,0.0,0.0
1606826297304769461,587848,1606826297292238120,imu_link,0.0013776399428024888,0.0030426017474383116,0.019259553402662277,0.9998089671134949,0.0,0.0,0.0,0.0,0.0,0.0,0.0,0.0,0.0,2.207627058029175,0.3455515503883362,0.1645539104938507,0.0,0.0,0.0,0.0,0.0,0.0,0.0,0.0,0.0,0.001502231345511973,0.005258465651422739,0.30491146445274353,0.0,0.0,0.0,0.0,0.0,0.0,0.0,0.0,0.0
1606826297313356859,587849,1606826297304459658,imu_link,0.0013780250446870923,0.003040954703465104,0.01926088146865368,0.9998089075088501,0.0,0.0,0.0,0.0,0.0,0.0,0.0,0.0,0.0,2.2077794075012207,0.34536170959472656,0.1645948588848114,0.0,0.0,0.0,0.0,0.0,0.0,0.0,0.0,0.0,0.007947362028062344,-0.004770644009113312,0.3215562105178833,0.0,0.0,0.0,0.0,0.0,0.0,0.0,0.0,0.0
1606826297313377198,587850,1606826297304602954,imu_link,0.0013780250446870923,0.003040954703465104,0.01926088146865368,0.9998089075088501,0.0,0.0,0.0,0.0,0.0,0.0,0.0,0.0,0.0,2.2077794075012207,0.34536170959472656,0.1645948588848114,0.0,0.0,0.0,0.0,0.0,0.0,0.0,0.0,0.0,0.007947362028062344,-0.004770644009113312,0.3215562105178833,0.0,0.0,0.0,0.0,0.0,0.0,0.0,0.0,0.0
1606826297313403467,587851,1606826297304760808,imu_link,0.0013783688191324472,0.003039610804989934,0.019260559231042862,0.9998089671134949,0.0,0.0,0.0,0.0,0.0,0.0,0.0,0.0,0.0,2.2077419757843018,0.3452070653438568,0.16463115811347961,0.0,0.0,0.0,0.0,0.0,0.0,0.0,0.0,0.0,0.008039860054850578,0.0020492030307650566,0.3418976366519928,0.0,0.0,0.0,0.0,0.0,0.0,0.0,0.0,0.0
1606826297313425190,587852,1606826297304841068,imu_link,0.0013783688191324472,0.003039610804989934,0.019260559231042862,0.9998089671134949,0.0,0.0,0.0,0.0,0.0,0.0,0.0,0.0,0.0,2.2077419757843018,0.3452070653438568,0.16463115811347961,0.0,0.0,0.0,0.0,0.0,0.0,0.0,0.0,0.0,0.008039860054850578,0.0020492030307650566,0.3418976366519928,0.0,0.0,0.0,0.0,0.0,0.0,0.0,0.0,0.0
1606826297313433565,587853,1606826297304918397,imu_link,0.0013791013043373823,0.0030390366446226835,0.019262490794062614,0.9998089075088501,0.0,0.0,0.0,0.0,0.0,0.0,0.0,0.0,0.0,2.207963466644287,0.34513935446739197,0.1647145003080368,0.0,0.0,0.0,0.0,0.0,0.0,0.0,0.0,0.0,0.021969767287373543,0.017404595389962196,0.3402721881866455,0.0,0.0,0.0,0.0,0.0,0.0,0.0,0.0,0.0
1606826297314311019,587854,1606826297305008710,imu_link,0.0013791013043373823,0.0030390366446226835,0.019262490794062614,0.9998089075088501,0.0,0.0,0.0,0.0,0.0,0.0,0.0,0.0,0.0,2.207963466644287,0.34513935446739197,0.1647145003080368,0.0,0.0,0.0,0.0,0.0,0.0,0.0,0.0,0.0,0.021969767287373543,0.017404595389962196,0.3402721881866455,0.0,0.0,0.0,0.0,0.0,0.0,0.0,0.0,0.0
1606826297314327682,587855,1606826297305136515,imu_link,0.0013792099198326468,0.0030392755288630724,0.019260425120592117,0.9998089671134949,0.0,0.0,0.0,0.0,0.0,0.0,0.0,0.0,0.0,2.2077267169952393,0.3451668322086334,0.16472674906253815,0.0,0.0,0.0,0.0,0.0,0.0,0.0,0.0,0.0,0.0053194742649793625,-0.010181151330471039,0.3213261067867279,0.0,0.0,0.0,0.0,0.0,0.0,0.0,0.0,0.0
1606826297314336478,587856,1606826297305218981,imu_link,0.0013792099198326468,0.0030392755288630724,0.019260425120592117,0.9998089671134949,0.0,0.0,0.0,0.0,0.0,0.0,0.0,0.0,0.0,2.2077267169952393,0.3451668322086334,0.16472674906253815,0.0,0.0,0.0,0.0,0.0,0.0,0.0,0.0,0.0,0.0053194742649793625,-0.010181151330471039,0.3213261067867279,0.0,0.0,0.0,0.0,0.0,0.0,0.0,0.0,0.0
1606826297314356534,587857,1606826297305307780,imu_link,0.0013807907234877348,0.003040279960259795,0.01925158128142357,0.9998091459274292,0.0,0.0,0.0,0.0,0.0,0.0,0.0,0.0,0.0,2.206713914871216,0.34527987241744995,0.16490702331066132,0.0,0.0,0.0,0.0,0.0,0.0,0.0,0.0,0.0,-0.004465852398425341,-0.011813797987997532,0.33744943141937256,0.0,0.0,0.0,0.0,0.0,0.0,0.0,0.0,0.0
1606826297314368188,587858,1606826297305392722,imu_link,0.0013807907234877348,0.003040279960259795,0.01925158128142357,0.9998091459274292,0.0,0.0,0.0,0.0,0.0,0.0,0.0,0.0,0.0,2.206713914871216,0.34527987241744995,0.16490702331066132,0.0,0.0,0.0,0.0,0.0,0.0,0.0,0.0,0.0,-0.004465852398425341,-0.011813797987997532,0.33744943141937256,0.0,0.0,0.0,0.0,0.0,0.0,0.0,0.0,0.0
1606826297314385247,587859,1606826297305708636,imu_link,0.0013832584954798222,0.003041326766833663,0.019251925870776176,0.9998090863227844,0.0,0.0,0.0,0.0,0.0,0.0,0.0,0.0,0.0,2.2067549228668213,0.3453942835330963,0.16519221663475037,0.0,0.0,0.0,0.0,0.0,0.0,0.0,0.0,0.0,-0.002613118849694729,0.021366890519857407,0.35003671050071716,0.0,0.0,0.0,0.0,0.0,0.0,0.0,0.0,0.0
1606826297322912526,587860,1606826297318214485,imu_link,0.0013832584954798222,0.003041326766833663,0.019251925870776176,0.9998090863227844,0.0,0.0,0.0,0.0,0.0,0.0,0.0,0.0,0.0,2.2067549228668213,0.3453942835330963,0.16519221663475037,0.0,0.0,0.0,0.0,0.0,0.0,0.0,0.0,0.0,-0.002613118849694729,0.021366890519857407,0.35003671050071716,0.0,0.0,0.0,0.0,0.0,0.0,0.0,0.0,0.0
1606826297323401866,587861,1606826297318357645,imu_link,0.0013804275076836348,0.003041974501684308,0.01924239657819271,0.9998092651367188,0.0,0.0,0.0,0.0,0.0,0.0,0.0,0.0,0.0,2.2056612968444824,0.34547629952430725,0.16486597061157227,0.0,0.0,0.0,0.0,0.0,0.0,0.0,0.0,0.0,-0.010084526613354683,0.014769320376217365,0.3327135741710663,0.0,0.0,0.0,0.0,0.0,0.0,0.0,0.0,0.0
1606826297323418493,587862,1606826297318529206,imu_link,0.0013804275076836348,0.003041974501684308,0.01924239657819271,0.9998092651367188,0.0,0.0,0.0,0.0,0.0,0.0,0.0,0.0,0.0,2.2056612968444824,0.34547629952430725,0.16486597061157227,0.0,0.0,0.0,0.0,0.0,0.0,0.0,0.0,0.0,-0.010084526613354683,0.014769320376217365,0.3327135741710663,0.0,0.0,0.0,0.0,0.0,0.0,0.0,0.0,0.0
1606826297323429282,587863,1606826297318610449,imu_link,0.0013808272778987885,0.003042614320293069,0.01924036256968975,0.9998093247413635,0.0,0.0,0.0,0.0,0.0,0.0,0.0,0.0,0.0,2.2054286003112793,0.3455491065979004,0.16491249203681946,0.0,0.0,0.0,0.0,0.0,0.0,0.0,0.0,0.0,-0.01369069330394268,0.011704659089446068,0.336213082075119,0.0,0.0,0.0,0.0,0.0,0.0,0.0,0.0,0.0
1606826297323438741,587864,1606826297318687797,imu_link,0.0013808272778987885,0.003042614320293069,0.01924036256968975,0.9998093247413635,0.0,0.0,0.0,0.0,0.0,0.0,0.0,0.0,0.0,2.2054286003112793,0.3455491065979004,0.16491249203681946,0.0,0.0,0.0,0.0,0.0,0.0,0.0,0.0,0.0,-0.01369069330394268,0.011704659089446068,0.336213082075119,0.0,0.0,0.0,0.0,0.0,0.0,0.0,0.0,0.0
1606826297324357767,587865,1606826297318785247,imu_link,0.00138285499997437,0.0030410978943109512,0.019238846376538277,0.9998093247413635,0.0,0.0,0.0,0.0,0.0,0.0,0.0,0.0,0.0,2.2052552700042725,0.3453710973262787,0.16514094173908234,0.0,0.0,0.0,0.0,0.0,0.0,0.0,0.0,0.0,-0.0019624195992946625,0.012386652640998363,0.3388129472732544,0.0,0.0,0.0,0.0,0.0,0.0,0.0,0.0,0.0
1606826297324375026,587866,1606826297318886761,imu_link,0.00138285499997437,0.0030410978943109512,0.019238846376538277,0.9998093247413635,0.0,0.0,0.0,0.0,0.0,0.0,0.0,0.0,0.0,2.2052552700042725,0.3453710973262787,0.16514094173908234,0.0,0.0,0.0,0.0,0.0,0.0,0.0,0.0,0.0,-0.0019624195992946625,0.012386652640998363,0.3388129472732544,0.0,0.0,0.0,0.0,0.0,0.0,0.0,0.0,0.0
1606826297324415563,587867,1606826297318992851,imu_link,0.001384430448524654,0.0030408340971916914,0.01923835277557373,0.9998093843460083,0.0,0.0,0.0,0.0,0.0,0.0,0.0,0.0,0.0,2.2051990032196045,0.34533751010894775,0.16532070934772491,0.0,0.0,0.0,0.0,0.0,0.0,0.0,0.0,0.0,0.006081762723624706,0.0017405891558155417,0.32809150218963623,0.0,0.0,0.0,0.0,0.0,0.0,0.0,0.0,0.0
1606826297324423755,587868,1606826297319075046,imu_link,0.001384430448524654,0.0030408340971916914,0.01923835277557373,0.9998093843460083,0.0,0.0,0.0,0.0,0.0,0.0,0.0,0.0,0.0,2.2051990032196045,0.34533751010894775,0.16532070934772491,0.0,0.0,0.0,0.0,0.0,0.0,0.0,0.0,0.0,0.006081762723624706,0.0017405891558155417,0.32809150218963623,0.0,0.0,0.0,0.0,0.0,0.0,0.0,0.0,0.0
1606826297324434057,587869,1606826297319164818,imu_link,0.0013836108846589923,0.00304004386998713,0.019234728068113327,0.9998094439506531,0.0,0.0,0.0,0.0,0.0,0.0,0.0,0.0,0.0,2.2047829627990723,0.34524935483932495,0.16522379219532013,0.0,0.0,0.0,0.0,0.0,0.0,0.0,0.0,0.0,0.012310061603784561,0.0004804265918210149,0.33700013160705566,0.0,0.0,0.0,0.0,0.0,0.0,0.0,0.0,0.0
1606826297324466253,587870,1606826297319251603,imu_link,0.0013836108846589923,0.00304004386998713,0.019234728068113327,0.9998094439506531,0.0,0.0,0.0,0.0,0.0,0.0,0.0,0.0,0.0,2.2047829627990723,0.34524935483932495,0.16522379219532013,0.0,0.0,0.0,0.0,0.0,0.0,0.0,0.0,0.0,0.012310061603784561,0.0004804265918210149,0.33700013160705566,0.0,0.0,0.0,0.0,0.0,0.0,0.0,0.0,0.0
1606826297335824791,587871,1606826297331154607,imu_link,0.0013840587344020605,0.0030406955629587173,0.01923452503979206,0.9998094439506531,0.0,0.0,0.0,0.0,0.0,0.0,0.0,0.0,0.0,2.2047600746154785,0.3453230857849121,0.16527646780014038,0.0,0.0,0.0,0.0,0.0,0.0,0.0,0.0,0.0,-0.0008610284421592951,-0.008477594703435898,0.3461030423641205,0.0,0.0,0.0,0.0,0.0,0.0,0.0,0.0,0.0
1606826297338548255,587872,1606826297331358883,imu_link,0.0013840587344020605,0.0030406955629587173,0.01923452503979206,0.9998094439506531,0.0,0.0,0.0,0.0,0.0,0.0,0.0,0.0,0.0,2.2047600746154785,0.3453230857849121,0.16527646780014038,0.0,0.0,0.0,0.0,0.0,0.0,0.0,0.0,0.0,-0.0008610284421592951,-0.008477594703435898,0.3461030423641205,0.0,0.0,0.0,0.0,0.0,0.0,0.0,0.0,0.0
1606826297338566534,587873,1606826297331460002,imu_link,0.0013846964575350285,0.003042096272110939,0.019233332946896553,0.9998094439506531,0.0,0.0,0.0,0.0,0.0,0.0,0.0,0.0,0.0,2.2046241760253906,0.34548234939575195,0.1653522104024887,0.0,0.0,0.0,0.0,0.0,0.0,0.0,0.0,0.0,-0.0030147964134812355,0.0015686238184571266,0.3243263065814972,0.0,0.0,0.0,0.0,0.0,0.0,0.0,0.0,0.0
1606826297338578499,587874,1606826297331539305,imu_link,0.0013846964575350285,0.003042096272110939,0.019233332946896553,0.9998094439506531,0.0,0.0,0.0,0.0,0.0,0.0,0.0,0.0,0.0,2.2046241760253906,0.34548234939575195,0.1653522104024887,0.0,0.0,0.0,0.0,0.0,0.0,0.0,0.0,0.0,-0.0030147964134812355,0.0015686238184571266,0.3243263065814972,0.0,0.0,0.0,0.0,0.0,0.0,0.0,0.0,0.0
1606826297338601867,587875,1606826297331618938,imu_link,0.0013849037932232022,0.0030437707901000977,0.019232846796512604,0.9998094439506531,0.0,0.0,0.0,0.0,0.0,0.0,0.0,0.0,0.0,2.20456862449646,0.3456738591194153,0.16537950932979584,0.0,0.0,0.0,0.0,0.0,0.0,0.0,0.0,0.0,-0.010862213559448719,0.01611354388296604,0.30955103039741516,0.0,0.0,0.0,0.0,0.0,0.0,0.0,0.0,0.0
1606826297338643767,587876,1606826297331717315,imu_link,0.0013849037932232022,0.0030437707901000977,0.019232846796512604,0.9998094439506531,0.0,0.0,0.0,0.0,0.0,0.0,0.0,0.0,0.0,2.20456862449646,0.3456738591194153,0.16537950932979584,0.0,0.0,0.0,0.0,0.0,0.0,0.0,0.0,0.0,-0.010862213559448719,0.01611354388296604,0.30955103039741516,0.0,0.0,0.0,0.0,0.0,0.0,0.0,0.0,0.0
1606826297338681582,587877,1606826297331811683,imu_link,0.0013849663082510233,0.0030428566969931126,0.01922840252518654,0.9998095035552979,0.0,0.0,0.0,0.0,0.0,0.0,0.0,0.0,0.0,2.20405912399292,0.3455697000026703,0.16538313031196594,0.0,0.0,0.0,0.0,0.0,0.0,0.0,0.0,0.0,-0.017314612865447998,0.008770683780312538,0.31867069005966187,0.0,0.0,0.0,0.0,0.0,0.0,0.0,0.0,0.0
1606826297338691388,587878,1606826297331929159,imu_link,0.0013849663082510233,0.0030428566969931126,0.01922840252518654,0.9998095035552979,0.0,0.0,0.0,0.0,0.0,0.0,0.0,0.0,0.0,2.20405912399292,0.3455697000026703,0.16538313031196594,0.0,0.0,0.0,0.0,0.0,0.0,0.0,0.0,0.0,-0.017314612865447998,0.008770683780312538,0.31867069005966187,0.0,0.0,0.0,0.0,0.0,0.0,0.0,0.0,0.0
1606826297338717757,587879,1606826297332019824,imu_link,0.0013850103132426739,0.0030426953453570604,0.019226761534810066,0.9998095631599426,0.0,0.0,0.0,0.0,0.0,0.0,0.0,0.0,0.0,2.203871250152588,0.34555140137672424,0.16538722813129425,0.0,0.0,0.0,0.0,0.0,0.0,0.0,0.0,0.0,-0.004651060327887535,0.00795411691069603,0.33297282457351685,0.0,0.0,0.0,0.0,0.0,0.0,0.0,0.0,0.0
1606826297338743333,587880,1606826297332097894,imu_link,0.0013850103132426739,0.0030426953453570604,0.019226761534810066,0.9998095631599426,0.0,0.0,0.0,0.0,0.0,0.0,0.0,0.0,0.0,2.203871250152588,0.34555140137672424,0.16538722813129425,0.0,0.0,0.0,0.0,0.0,0.0,0.0,0.0,0.0,-0.004651060327887535,0.00795411691069603,0.33297282457351685,0.0,0.0,0.0,0.0,0.0,0.0,0.0,0.0,0.0
1606826297349211963,587881,1606826297344583501,imu_link,0.0013840619940310717,0.003042318392544985,0.019229087978601456,0.9998095035552979,0.0,0.0,0.0,0.0,0.0,0.0,0.0,0.0,0.0,2.2041375637054443,0.34550991654396057,0.1652785688638687,0.0,0.0,0.0,0.0,0.0,0.0,0.0,0.0,0.0,0.00032735266722738743,-0.009995393455028534,0.3753586709499359,0.0,0.0,0.0,0.0,0.0,0.0,0.0,0.0,0.0
1606826297349805602,587882,1606826297344722572,imu_link,0.0013840619940310717,0.003042318392544985,0.019229087978601456,0.9998095035552979,0.0,0.0,0.0,0.0,0.0,0.0,0.0,0.0,0.0,2.2041375637054443,0.34550991654396057,0.1652785688638687,0.0,0.0,0.0,0.0,0.0,0.0,0.0,0.0,0.0,0.00032735266722738743,-0.009995393455028534,0.3753586709499359,0.0,0.0,0.0,0.0,0.0,0.0,0.0,0.0,0.0
1606826297349829671,587883,1606826297344895687,imu_link,0.0013840619940310717,0.003042318392544985,0.019229087978601456,0.9998095035552979,0.0,0.0,0.0,0.0,0.0,0.0,0.0,0.0,0.0,2.2041375637054443,0.34550991654396057,0.1652785688638687,0.0,0.0,0.0,0.0,0.0,0.0,0.0,0.0,0.0,-0.00949484296143055,-0.015608729794621468,0.36715200543403625,0.0,0.0,0.0,0.0,0.0,0.0,0.0,0.0,0.0
1606826297349853067,587884,1606826297344977917,imu_link,0.0013840619940310717,0.003042318392544985,0.019229087978601456,0.9998095035552979,0.0,0.0,0.0,0.0,0.0,0.0,0.0,0.0,0.0,2.2041375637054443,0.34550991654396057,0.1652785688638687,0.0,0.0,0.0,0.0,0.0,0.0,0.0,0.0,0.0,-0.00949484296143055,-0.015608729794621468,0.36715200543403625,0.0,0.0,0.0,0.0,0.0,0.0,0.0,0.0,0.0
1606826297349866218,587885,1606826297345055385,imu_link,0.0013864173088222742,0.003041886491701007,0.019231416285037994,0.9998095035552979,0.0,0.0,0.0,0.0,0.0,0.0,0.0,0.0,0.0,2.2044050693511963,0.3454548418521881,0.16554823517799377,0.0,0.0,0.0,0.0,0.0,0.0,0.0,0.0,0.0,-0.0077875517308712006,-0.0031441713217645884,0.3341485857963562,0.0,0.0,0.0,0.0,0.0,0.0,0.0,0.0,0.0
1606826297352161311,587886,1606826297345134032,imu_link,0.0013864173088222742,0.003041886491701007,0.019231416285037994,0.9998095035552979,0.0,0.0,0.0,0.0,0.0,0.0,0.0,0.0,0.0,2.2044050693511963,0.3454548418521881,0.16554823517799377,0.0,0.0,0.0,0.0,0.0,0.0,0.0,0.0,0.0,-0.0077875517308712006,-0.0031441713217645884,0.3341485857963562,0.0,0.0,0.0,0.0,0.0,0.0,0.0,0.0,0.0
1606826297352173707,587887,1606826297345265756,imu_link,0.0013864538632333279,0.0030416129156947136,0.019230404868721962,0.9998095035552979,0.0,0.0,0.0,0.0,0.0,0.0,0.0,0.0,0.0,2.204288959503174,0.3454235792160034,0.16555148363113403,0.0,0.0,0.0,0.0,0.0,0.0,0.0,0.0,0.0,0.00942257046699524,0.004630944691598415,0.3217822015285492,0.0,0.0,0.0,0.0,0.0,0.0,0.0,0.0,0.0
1606826297352185264,587888,1606826297345376767,imu_link,0.0013864538632333279,0.0030416129156947136,0.019230404868721962,0.9998095035552979,0.0,0.0,0.0,0.0,0.0,0.0,0.0,0.0,0.0,2.204288959503174,0.3454235792160034,0.16555148363113403,0.0,0.0,0.0,0.0,0.0,0.0,0.0,0.0,0.0,0.00942257046699524,0.004630944691598415,0.3217822015285492,0.0,0.0,0.0,0.0,0.0,0.0,0.0,0.0,0.0
1606826297352192203,587889,1606826297345465111,imu_link,0.001386151765473187,0.003043080447241664,0.01923174038529396,0.9998094439506531,0.0,0.0,0.0,0.0,0.0,0.0,0.0,0.0,0.0,2.2044425010681152,0.3455921709537506,0.1655205637216568,0.0,0.0,0.0,0.0,0.0,0.0,0.0,0.0,0.0,-0.004454727750271559,0.004953891038894653,0.3149673640727997,0.0,0.0,0.0,0.0,0.0,0.0,0.0,0.0,0.0
1606826297352203464,587890,1606826297345542149,imu_link,0.001386151765473187,0.003043080447241664,0.01923174038529396,0.9998094439506531,0.0,0.0,0.0,0.0,0.0,0.0,0.0,0.0,0.0,2.2044425010681152,0.3455921709537506,0.1655205637216568,0.0,0.0,0.0,0.0,0.0,0.0,0.0,0.0,0.0,-0.004454727750271559,0.004953891038894653,0.3149673640727997,0.0,0.0,0.0,0.0,0.0,0.0,0.0,0.0,0.0
1606826297352210525,587891,1606826297345629135,imu_link,0.0013864454813301563,0.003042080206796527,0.019229155033826828,0.9998095035552979,0.0,0.0,0.0,0.0,0.0,0.0,0.0,0.0,0.0,2.204145908355713,0.34547731280326843,0.1655511111021042,0.0,0.0,0.0,0.0,0.0,0.0,0.0,0.0,0.0,-0.014688747003674507,-0.001248611370101571,0.33537936210632324,0.0,0.0,0.0,0.0,0.0,0.0,0.0,0.0,0.0
1606826297363056609,587892,1606826297358391897,imu_link,0.0013864454813301563,0.003042080206796527,0.019229155033826828,0.9998095035552979,0.0,0.0,0.0,0.0,0.0,0.0,0.0,0.0,0.0,2.204145908355713,0.34547731280326843,0.1655511111021042,0.0,0.0,0.0,0.0,0.0,0.0,0.0,0.0,0.0,-0.014688747003674507,-0.001248611370101571,0.33537936210632324,0.0,0.0,0.0,0.0,0.0,0.0,0.0,0.0,0.0
1606826297363550142,587893,1606826297358548789,imu_link,0.0013870644615963101,0.003038325347006321,0.019229145720601082,0.9998095631599426,0.0,0.0,0.0,0.0,0.0,0.0,0.0,0.0,0.0,2.2041447162628174,0.345045804977417,0.16561375558376312,0.0,0.0,0.0,0.0,0.0,0.0,0.0,0.0,0.0,-0.016524164006114006,0.005912239197641611,0.3114195466041565,0.0,0.0,0.0,0.0,0.0,0.0,0.0,0.0,0.0
1606826297363591680,587894,1606826297358687755,imu_link,0.0013870644615963101,0.003038325347006321,0.019229145720601082,0.9998095631599426,0.0,0.0,0.0,0.0,0.0,0.0,0.0,0.0,0.0,2.2041447162628174,0.345045804977417,0.16561375558376312,0.0,0.0,0.0,0.0,0.0,0.0,0.0,0.0,0.0,-0.016524164006114006,0.005912239197641611,0.3114195466041565,0.0,0.0,0.0,0.0,0.0,0.0,0.0,0.0,0.0
1606826297363601861,587895,1606826297358775758,imu_link,0.0013866460649296641,0.0030397986993193626,0.019229330122470856,0.9998095631599426,0.0,0.0,0.0,0.0,0.0,0.0,0.0,0.0,0.0,2.2041656970977783,0.34521549940109253,0.16556914150714874,0.0,0.0,0.0,0.0,0.0,0.0,0.0,0.0,0.0,-0.0008505888981744647,-0.0027031113859266043,0.32098710536956787,0.0,0.0,0.0,0.0,0.0,0.0,0.0,0.0,0.0
1606826297363622840,587896,1606826297358862067,imu_link,0.0013866460649296641,0.0030397986993193626,0.019229330122470856,0.9998095631599426,0.0,0.0,0.0,0.0,0.0,0.0,0.0,0.0,0.0,2.2041656970977783,0.34521549940109253,0.16556914150714874,0.0,0.0,0.0,0.0,0.0,0.0,0.0,0.0,0.0,-0.0008505888981744647,-0.0027031113859266043,0.32098710536956787,0.0,0.0,0.0,0.0,0.0,0.0,0.0,0.0,0.0
1606826297365536086,587897,1606826297358953879,imu_link,0.0013861146289855242,0.003042332362383604,0.019229240715503693,0.9998095631599426,0.0,0.0,0.0,0.0,0.0,0.0,0.0,0.0,0.0,2.204155683517456,0.3455069661140442,0.1655137985944748,0.0,0.0,0.0,0.0,0.0,0.0,0.0,0.0,0.0,0.003206513123586774,0.003435492515563965,0.33229607343673706,0.0,0.0,0.0,0.0,0.0,0.0,0.0,0.0,0.0
1606826297365560097,587898,1606826297359051865,imu_link,0.0013861146289855242,0.003042332362383604,0.019229240715503693,0.9998095631599426,0.0,0.0,0.0,0.0,0.0,0.0,0.0,0.0,0.0,2.204155683517456,0.3455069661140442,0.1655137985944748,0.0,0.0,0.0,0.0,0.0,0.0,0.0,0.0,0.0,0.003206513123586774,0.003435492515563965,0.33229607343673706,0.0,0.0,0.0,0.0,0.0,0.0,0.0,0.0,0.0
1606826297365575579,587899,1606826297359125209,imu_link,0.0013855628203600645,0.003044622018933296,0.019228415563702583,0.9998095035552979,0.0,0.0,0.0,0.0,0.0,0.0,0.0,0.0,0.0,2.204061269760132,0.3457706570625305,0.16545537114143372,0.0,0.0,0.0,0.0,0.0,0.0,0.0,0.0,0.0,-0.009684296324849129,0.014952722005546093,0.29982706904411316,0.0,0.0,0.0,0.0,0.0,0.0,0.0,0.0,0.0
1606826297365583904,587900,1606826297359212361,imu_link,0.0013855628203600645,0.003044622018933296,0.019228415563702583,0.9998095035552979,0.0,0.0,0.0,0.0,0.0,0.0,0.0,0.0,0.0,2.204061269760132,0.3457706570625305,0.16545537114143372,0.0,0.0,0.0,0.0,0.0,0.0,0.0,0.0,0.0,-0.009684296324849129,0.014952722005546093,0.29982706904411316,0.0,0.0,0.0,0.0,0.0,0.0,0.0,0.0,0.0
1606826297365595149,587901,1606826297359331325,imu_link,0.0013849623501300812,0.00304343830794096,0.019229315221309662,0.9998095035552979,0.0,0.0,0.0,0.0,0.0,0.0,0.0,0.0,0.0,2.2041640281677246,0.3456362187862396,0.16538427770137787,0.0,0.0,0.0,0.0,0.0,0.0,0.0,0.0,0.0,0.008512257598340511,0.008167344145476818,0.3271377682685852,0.0,0.0,0.0,0.0,0.0,0.0,0.0,0.0,0.0
1606826297365612001,587902,1606826297359420100,imu_link,0.0013849623501300812,0.00304343830794096,0.019229315221309662,0.9998095035552979,0.0,0.0,0.0,0.0,0.0,0.0,0.0,0.0,0.0,2.2041640281677246,0.3456362187862396,0.16538427770137787,0.0,0.0,0.0,0.0,0.0,0.0,0.0,0.0,0.0,0.008512257598340511,0.008167344145476818,0.3271377682685852,0.0,0.0,0.0,0.0,0.0,0.0,0.0,0.0,0.0
1606826297379001454,587903,1606826297371905852,imu_link,0.00138547969982028,0.0030442497227340937,0.019228314980864525,0.9998095035552979,0.0,0.0,0.0,0.0,0.0,0.0,0.0,0.0,0.0,2.204049587249756,0.34572818875312805,0.1654449999332428,0.0,0.0,0.0,0.0,0.0,0.0,0.0,0.0,0.0,0.019304785877466202,0.02160373330116272,0.34131500124931335,0.0,0.0,0.0,0.0,0.0,0.0,0.0,0.0,0.0
1606826297379026786,587904,1606826297372018757,imu_link,0.00138547969982028,0.0030442497227340937,0.019228314980864525,0.9998095035552979,0.0,0.0,0.0,0.0,0.0,0.0,0.0,0.0,0.0,2.204049587249756,0.34572818875312805,0.1654449999332428,0.0,0.0,0.0,0.0,0.0,0.0,0.0,0.0,0.0,0.019304785877466202,0.02160373330116272,0.34131500124931335,0.0,0.0,0.0,0.0,0.0,0.0,0.0,0.0,0.0
1606826297379041137,587905,1606826297372159297,imu_link,0.0013850313844159245,0.0030482567381113768,0.01922300085425377,0.9998096227645874,0.0,0.0,0.0,0.0,0.0,0.0,0.0,0.0,0.0,2.2034413814544678,0.3461891710758209,0.16540059447288513,0.0,0.0,0.0,0.0,0.0,0.0,0.0,0.0,0.0,0.008419726975262165,0.024792583659291267,0.30887752771377563,0.0,0.0,0.0,0.0,0.0,0.0,0.0,0.0,0.0
1606826297379066870,587906,1606826297372225891,imu_link,0.0013850313844159245,0.0030482567381113768,0.01922300085425377,0.9998096227645874,0.0,0.0,0.0,0.0,0.0,0.0,0.0,0.0,0.0,2.2034413814544678,0.3461891710758209,0.16540059447288513,0.0,0.0,0.0,0.0,0.0,0.0,0.0,0.0,0.0,0.008419726975262165,0.024792583659291267,0.30887752771377563,0.0,0.0,0.0,0.0,0.0,0.0,0.0,0.0,0.0
1606826297379080197,587907,1606826297372296746,imu_link,0.0013844217173755169,0.003047023434191942,0.01922253519296646,0.9998096823692322,0.0,0.0,0.0,0.0,0.0,0.0,0.0,0.0,0.0,2.2033872604370117,0.3460492789745331,0.16532786190509796,0.0,0.0,0.0,0.0,0.0,0.0,0.0,0.0,0.0,-0.0010899435728788376,0.02049742266535759,0.304093599319458,0.0,0.0,0.0,0.0,0.0,0.0,0.0,0.0,0.0
1606826297379094642,587908,1606826297372366576,imu_link,0.0013844217173755169,0.003047023434191942,0.01922253519296646,0.9998096823692322,0.0,0.0,0.0,0.0,0.0,0.0,0.0,0.0,0.0,2.2033872604370117,0.3460492789745331,0.16532786190509796,0.0,0.0,0.0,0.0,0.0,0.0,0.0,0.0,0.0,-0.0010899435728788376,0.02049742266535759,0.304093599319458,0.0,0.0,0.0,0.0,0.0,0.0,0.0,0.0,0.0
1606826297379108887,587909,1606826297372445822,imu_link,0.0013828214723616838,0.0030449405312538147,0.019214056432247162,0.9998098611831665,0.0,0.0,0.0,0.0,0.0,0.0,0.0,0.0,0.0,2.2024147510528564,0.3458155393600464,0.16513699293136597,0.0,0.0,0.0,0.0,0.0,0.0,0.0,0.0,0.0,0.00241501210257411,0.011617828160524368,0.3101191520690918,0.0,0.0,0.0,0.0,0.0,0.0,0.0,0.0,0.0
1606826297379130630,587910,1606826297372512003,imu_link,0.0013828214723616838,0.0030449405312538147,0.019214056432247162,0.9998098611831665,0.0,0.0,0.0,0.0,0.0,0.0,0.0,0.0,0.0,2.2024147510528564,0.3458155393600464,0.16513699293136597,0.0,0.0,0.0,0.0,0.0,0.0,0.0,0.0,0.0,0.00241501210257411,0.011617828160524368,0.3101191520690918,0.0,0.0,0.0,0.0,0.0,0.0,0.0,0.0,0.0
1606826297386126052,587911,1606826297372579695,imu_link,0.0013824390480294824,0.003044741926714778,0.01921272464096546,0.9998098611831665,0.0,0.0,0.0,0.0,0.0,0.0,0.0,0.0,0.0,2.2022619247436523,0.3457939028739929,0.16509228944778442,0.0,0.0,0.0,0.0,0.0,0.0,0.0,0.0,0.0,0.014724599197506905,0.006709726992994547,0.28966018557548523,0.0,0.0,0.0,0.0,0.0,0.0,0.0,0.0,0.0
1606826297386147246,587912,1606826297372647151,imu_link,0.0013824390480294824,0.003044741926714778,0.01921272464096546,0.9998098611831665,0.0,0.0,0.0,0.0,0.0,0.0,0.0,0.0,0.0,2.2022619247436523,0.3457939028739929,0.16509228944778442,0.0,0.0,0.0,0.0,0.0,0.0,0.0,0.0,0.0,0.014724599197506905,0.006709726992994547,0.28966018557548523,0.0,0.0,0.0,0.0,0.0,0.0,0.0,0.0,0.0
1606826297386161276,587913,1606826297372708473,imu_link,0.0013817467261105776,0.003045950550585985,0.019208963960409164,0.9998099207878113,0.0,0.0,0.0,0.0,0.0,0.0,0.0,0.0,0.0,2.201831102371216,0.3459344804286957,0.1650143265724182,0.0,0.0,0.0,0.0,0.0,0.0,0.0,0.0,0.0,0.0031401209998875856,0.00860576517879963,0.31918564438819885,0.0,0.0,0.0,0.0,0.0,0.0,0.0,0.0,0.0
1606826297390275219,587914,1606826297385640841,imu_link,0.0013817467261105776,0.003045950550585985,0.019208963960409164,0.9998099207878113,0.0,0.0,0.0,0.0,0.0,0.0,0.0,0.0,0.0,2.201831102371216,0.3459344804286957,0.1650143265724182,0.0,0.0,0.0,0.0,0.0,0.0,0.0,0.0,0.0,0.0031401209998875856,0.00860576517879963,0.31918564438819885,0.0,0.0,0.0,0.0,0.0,0.0,0.0,0.0,0.0
1606826297395495068,587915,1606826297385750583,imu_link,0.001381022040732205,0.0030457954853773117,0.019210269674658775,0.9998099207878113,0.0,0.0,0.0,0.0,0.0,0.0,0.0,0.0,0.0,2.2019801139831543,0.34591808915138245,0.16493141651153564,0.0,0.0,0.0,0.0,0.0,0.0,0.0,0.0,0.0,-0.013860909268260002,0.010087593458592892,0.38696378469467163,0.0,0.0,0.0,0.0,0.0,0.0,0.0,0.0,0.0
1606826297395516334,587916,1606826297385892991,imu_link,0.001381022040732205,0.0030457954853773117,0.019210269674658775,0.9998099207878113,0.0,0.0,0.0,0.0,0.0,0.0,0.0,0.0,0.0,2.2019801139831543,0.34591808915138245,0.16493141651153564,0.0,0.0,0.0,0.0,0.0,0.0,0.0,0.0,0.0,-0.013860909268260002,0.010087593458592892,0.38696378469467163,0.0,0.0,0.0,0.0,0.0,0.0,0.0,0.0,0.0
1606826297395540950,587917,1606826297385960090,imu_link,0.0013804823393002152,0.003044980578124523,0.01920763961970806,0.999809980392456,0.0,0.0,0.0,0.0,0.0,0.0,0.0,0.0,0.0,2.201678514480591,0.3458263576030731,0.1648668795824051,0.0,0.0,0.0,0.0,0.0,0.0,0.0,0.0,0.0,-0.024092257022857666,0.00961952842772007,0.3706028163433075,0.0,0.0,0.0,0.0,0.0,0.0,0.0,0.0,0.0
1606826297395545429,587918,1606826297386038652,imu_link,0.0013804823393002152,0.003044980578124523,0.01920763961970806,0.999809980392456,0.0,0.0,0.0,0.0,0.0,0.0,0.0,0.0,0.0,2.201678514480591,0.3458263576030731,0.1648668795824051,0.0,0.0,0.0,0.0,0.0,0.0,0.0,0.0,0.0,-0.024092257022857666,0.00961952842772007,0.3706028163433075,0.0,0.0,0.0,0.0,0.0,0.0,0.0,0.0,0.0
1606826297395554833,587919,1606826297386125332,imu_link,0.0013805044582113624,0.003043278818950057,0.019205881282687187,0.9998100399971008,0.0,0.0,0.0,0.0,0.0,0.0,0.0,0.0,0.0,2.2014763355255127,0.3456316590309143,0.16486504673957825,0.0,0.0,0.0,0.0,0.0,0.0,0.0,0.0,0.0,-0.00684709195047617,-0.00619219895452261,0.33536556363105774,0.0,0.0,0.0,0.0,0.0,0.0,0.0,0.0,0.0
1606826297395577514,587920,1606826297386191737,imu_link,0.0013805044582113624,0.003043278818950057,0.019205881282687187,0.9998100399971008,0.0,0.0,0.0,0.0,0.0,0.0,0.0,0.0,0.0,2.2014763355255127,0.3456316590309143,0.16486504673957825,0.0,0.0,0.0,0.0,0.0,0.0,0.0,0.0,0.0,-0.00684709195047617,-0.00619219895452261,0.33536556363105774,0.0,0.0,0.0,0.0,0.0,0.0,0.0,0.0,0.0
1606826297395598484,587921,1606826297386253319,imu_link,0.0013826063368469477,0.0030444073490798473,0.019198426976799965,0.9998100996017456,0.0,0.0,0.0,0.0,0.0,0.0,0.0,0.0,0.0,2.2006232738494873,0.34575751423835754,0.16510578989982605,0.0,0.0,0.0,0.0,0.0,0.0,0.0,0.0,0.0,0.009278131648898125,-0.010385416448116302,0.3239075541496277,0.0,0.0,0.0,0.0,0.0,0.0,0.0,0.0,0.0
1606826297395617810,587922,1606826297386368377,imu_link,0.0013826063368469477,0.0030444073490798473,0.019198426976799965,0.9998100996017456,0.0,0.0,0.0,0.0,0.0,0.0,0.0,0.0,0.0,2.2006232738494873,0.34575751423835754,0.16510578989982605,0.0,0.0,0.0,0.0,0.0,0.0,0.0,0.0,0.0,0.009278131648898125,-0.010385416448116302,0.3239075541496277,0.0,0.0,0.0,0.0,0.0,0.0,0.0,0.0,0.0
1606826297395624769,587923,1606826297386445687,imu_link,0.001382691552862525,0.0030426173470914364,0.019198354333639145,0.9998100996017456,0.0,0.0,0.0,0.0,0.0,0.0,0.0,0.0,0.0,2.2006146907806396,0.3455522358417511,0.16511160135269165,0.0,0.0,0.0,0.0,0.0,0.0,0.0,0.0,0.0,-0.003326058853417635,-0.002430386608466506,0.32122594118118286,0.0,0.0,0.0,0.0,0.0,0.0,0.0,0.0,0.0
1606826297395632151,587924,1606826297386512641,imu_link,0.001382691552862525,0.0030426173470914364,0.019198354333639145,0.9998100996017456,0.0,0.0,0.0,0.0,0.0,0.0,0.0,0.0,0.0,2.2006146907806396,0.3455522358417511,0.16511160135269165,0.0,0.0,0.0,0.0,0.0,0.0,0.0,0.0,0.0,-0.003326058853417635,-0.002430386608466506,0.32122594118118286,0.0,0.0,0.0,0.0,0.0,0.0,0.0,0.0,0.0
1606826297403188429,587925,1606826297398601816,imu_link,0.0013829416129738092,0.0030425037257373333,0.01919298619031906,0.9998102188110352,0.0,0.0,0.0,0.0,0.0,0.0,0.0,0.0,0.0,2.1999993324279785,0.3455395996570587,0.1651381254196167,0.0,0.0,0.0,0.0,0.0,0.0,0.0,0.0,0.0,-0.015764553099870682,-0.006940952967852354,0.32659241557121277,0.0,0.0,0.0,0.0,0.0,0.0,0.0,0.0,0.0
1606826297404478110,587926,1606826297398714103,imu_link,0.0013829416129738092,0.0030425037257373333,0.01919298619031906,0.9998102188110352,0.0,0.0,0.0,0.0,0.0,0.0,0.0,0.0,0.0,2.1999993324279785,0.3455395996570587,0.1651381254196167,0.0,0.0,0.0,0.0,0.0,0.0,0.0,0.0,0.0,-0.015764553099870682,-0.006940952967852354,0.32659241557121277,0.0,0.0,0.0,0.0,0.0,0.0,0.0,0.0,0.0
1606826297404507802,587927,1606826297398859503,imu_link,0.001382030313834548,0.0030437035020440817,0.019193680956959724,0.9998102188110352,0.0,0.0,0.0,0.0,0.0,0.0,0.0,0.0,0.0,2.2000787258148193,0.3456789553165436,0.16503660380840302,0.0,0.0,0.0,0.0,0.0,0.0,0.0,0.0,0.0,-0.015085535123944283,-0.011243462562561035,0.31075558066368103,0.0,0.0,0.0,0.0,0.0,0.0,0.0,0.0,0.0
1606826297404533662,587928,1606826297398924537,imu_link,0.001382030313834548,0.0030437035020440817,0.019193680956959724,0.9998102188110352,0.0,0.0,0.0,0.0,0.0,0.0,0.0,0.0,0.0,2.2000787258148193,0.3456789553165436,0.16503660380840302,0.0,0.0,0.0,0.0,0.0,0.0,0.0,0.0,0.0,-0.015085535123944283,-0.011243462562561035,0.31075558066368103,0.0,0.0,0.0,0.0,0.0,0.0,0.0,0.0,0.0
1606826297404577214,587929,1606826297398986600,imu_link,0.0013838947052136064,0.003044061129912734,0.01919856294989586,0.9998100996017456,0.0,0.0,0.0,0.0,0.0,0.0,0.0,0.0,0.0,2.200639247894287,0.3457149863243103,0.1652527004480362,0.0,0.0,0.0,0.0,0.0,0.0,0.0,0.0,0.0,-0.005189609248191118,-0.0027662552893161774,0.2945713400840759,0.0,0.0,0.0,0.0,0.0,0.0,0.0,0.0,0.0
1606826297404595052,587930,1606826297399085845,imu_link,0.0013838947052136064,0.003044061129912734,0.01919856294989586,0.9998100996017456,0.0,0.0,0.0,0.0,0.0,0.0,0.0,0.0,0.0,2.200639247894287,0.3457149863243103,0.1652527004480362,0.0,0.0,0.0,0.0,0.0,0.0,0.0,0.0,0.0,-0.005189609248191118,-0.0027662552893161774,0.2945713400840759,0.0,0.0,0.0,0.0,0.0,0.0,0.0,0.0,0.0
1606826297404634763,587931,1606826297399155626,imu_link,0.0013846298679709435,0.003042732598260045,0.019196050241589546,0.9998101592063904,0.0,0.0,0.0,0.0,0.0,0.0,0.0,0.0,0.0,2.2003509998321533,0.34556159377098083,0.1653331071138382,0.0,0.0,0.0,0.0,0.0,0.0,0.0,0.0,0.0,0.012287921272218227,0.005074947606772184,0.29581767320632935,0.0,0.0,0.0,0.0,0.0,0.0,0.0,0.0,0.0
1606826297404644718,587932,1606826297399214422,imu_link,0.0013846298679709435,0.003042732598260045,0.019196050241589546,0.9998101592063904,0.0,0.0,0.0,0.0,0.0,0.0,0.0,0.0,0.0,2.2003509998321533,0.34556159377098083,0.1653331071138382,0.0,0.0,0.0,0.0,0.0,0.0,0.0,0.0,0.0,0.012287921272218227,0.005074947606772184,0.29581767320632935,0.0,0.0,0.0,0.0,0.0,0.0,0.0,0.0,0.0
1606826297404662526,587933,1606826297399275194,imu_link,0.001384649658575654,0.0030447368044406176,0.01920093409717083,0.9998100399971008,0.0,0.0,0.0,0.0,0.0,0.0,0.0,0.0,0.0,2.200911045074463,0.3457903563976288,0.16534148156642914,0.0,0.0,0.0,0.0,0.0,0.0,0.0,0.0,0.0,0.014200481586158276,0.013361237943172455,0.3082854151725769,0.0,0.0,0.0,0.0,0.0,0.0,0.0,0.0,0.0
1606826297404685568,587934,1606826297399368538,imu_link,0.001384649658575654,0.0030447368044406176,0.01920093409717083,0.9998100399971008,0.0,0.0,0.0,0.0,0.0,0.0,0.0,0.0,0.0,2.200911045074463,0.3457903563976288,0.16534148156642914,0.0,0.0,0.0,0.0,0.0,0.0,0.0,0.0,0.0,0.014200481586158276,0.013361237943172455,0.3082854151725769,0.0,0.0,0.0,0.0,0.0,0.0,0.0,0.0,0.0
1606826297438751153,587935,1606826297412109453,imu_link,0.0013842632761225104,0.003043815027922392,0.01920180581510067,0.9998100399971008,0.0,0.0,0.0,0.0,0.0,0.0,0.0,0.0,0.0,2.2010109424591064,0.3456854522228241,0.16529549658298492,0.0,0.0,0.0,0.0,0.0,0.0,0.0,0.0,0.0,0.006002070382237434,0.024259554222226143,0.308859646320343,0.0,0.0,0.0,0.0,0.0,0.0,0.0,0.0,0.0
1606826297438814925,587936,1606826297412231486,imu_link,0.0013842632761225104,0.003043815027922392,0.01920180581510067,0.9998100399971008,0.0,0.0,0.0,0.0,0.0,0.0,0.0,0.0,0.0,2.2010109424591064,0.3456854522228241,0.16529549658298492,0.0,0.0,0.0,0.0,0.0,0.0,0.0,0.0,0.0,0.006002070382237434,0.024259554222226143,0.308859646320343,0.0,0.0,0.0,0.0,0.0,0.0,0.0,0.0,0.0
1606826297438851274,587937,1606826297412394743,imu_link,0.0013840446481481194,0.003045458812266588,0.01920824870467186,0.9998099207878113,0.0,0.0,0.0,0.0,0.0,0.0,0.0,0.0,0.0,2.201749324798584,0.3458732068538666,0.16527627408504486,0.0,0.0,0.0,0.0,0.0,0.0,0.0,0.0,0.0,0.00946730189025402,0.022923920303583145,0.32200920581817627,0.0,0.0,0.0,0.0,0.0,0.0,0.0,0.0,0.0
1606826297438930902,587938,1606826297412493255,imu_link,0.0013840446481481194,0.003045458812266588,0.01920824870467186,0.9998099207878113,0.0,0.0,0.0,0.0,0.0,0.0,0.0,0.0,0.0,2.201749324798584,0.3458732068538666,0.16527627408504486,0.0,0.0,0.0,0.0,0.0,0.0,0.0,0.0,0.0,0.00946730189025402,0.022923920303583145,0.32200920581817627,0.0,0.0,0.0,0.0,0.0,0.0,0.0,0.0,0.0
1606826297438993349,587939,1606826297412563216,imu_link,0.0013832834083586931,0.0030448532197624445,0.01920558325946331,0.999809980392456,0.0,0.0,0.0,0.0,0.0,0.0,0.0,0.0,0.0,2.201443672180176,0.34580594301223755,0.165186807513237,0.0,0.0,0.0,0.0,0.0,0.0,0.0,0.0,0.0,0.006489635910838842,0.006628675386309624,0.3421851098537445,0.0,0.0,0.0,0.0,0.0,0.0,0.0,0.0,0.0
1606826297439035235,587940,1606826297412649335,imu_link,0.0013832834083586931,0.0030448532197624445,0.01920558325946331,0.999809980392456,0.0,0.0,0.0,0.0,0.0,0.0,0.0,0.0,0.0,2.201443672180176,0.34580594301223755,0.165186807513237,0.0,0.0,0.0,0.0,0.0,0.0,0.0,0.0,0.0,0.006489635910838842,0.006628675386309624,0.3421851098537445,0.0,0.0,0.0,0.0,0.0,0.0,0.0,0.0,0.0
1606826297439042507,587941,1606826297412738225,imu_link,0.00138287921436131,0.0030471645295619965,0.019212989136576653,0.9998098611831665,0.0,0.0,0.0,0.0,0.0,0.0,0.0,0.0,0.0,2.2022926807403564,0.34607043862342834,0.16514815390110016,0.0,0.0,0.0,0.0,0.0,0.0,0.0,0.0,0.0,7.658079266548157e-05,0.00696157943457365,0.34156468510627747,0.0,0.0,0.0,0.0,0.0,0.0,0.0,0.0,0.0
1606826297439093532,587942,1606826297412816027,imu_link,0.00138287921436131,0.0030471645295619965,0.019212989136576653,0.9998098611831665,0.0,0.0,0.0,0.0,0.0,0.0,0.0,0.0,0.0,2.2022926807403564,0.34607043862342834,0.16514815390110016,0.0,0.0,0.0,0.0,0.0,0.0,0.0,0.0,0.0,7.658079266548157e-05,0.00696157943457365,0.34156468510627747,0.0,0.0,0.0,0.0,0.0,0.0,0.0,0.0,0.0
1606826297439112678,587943,1606826297412890572,imu_link,0.001382819376885891,0.003045543096959591,0.019211972132325172,0.9998098611831665,0.0,0.0,0.0,0.0,0.0,0.0,0.0,0.0,0.0,2.2021758556365967,0.34588494896888733,0.1651373654603958,0.0,0.0,0.0,0.0,0.0,0.0,0.0,0.0,0.0,-0.005793098825961351,0.00773036852478981,0.33745187520980835,0.0,0.0,0.0,0.0,0.0,0.0,0.0,0.0,0.0
1606826297439139265,587944,1606826297412968628,imu_link,0.001382819376885891,0.003045543096959591,0.019211972132325172,0.9998098611831665,0.0,0.0,0.0,0.0,0.0,0.0,0.0,0.0,0.0,2.2021758556365967,0.34588494896888733,0.1651373654603958,0.0,0.0,0.0,0.0,0.0,0.0,0.0,0.0,0.0,-0.005793098825961351,0.00773036852478981,0.33745187520980835,0.0,0.0,0.0,0.0,0.0,0.0,0.0,0.0,0.0
1606826297439170026,587945,1606826297413036433,imu_link,0.0013823448680341244,0.0030454888474196196,0.019212966784834862,0.9998098611831665,0.0,0.0,0.0,0.0,0.0,0.0,0.0,0.0,0.0,2.2022898197174072,0.34587961435317993,0.16508322954177856,0.0,0.0,0.0,0.0,0.0,0.0,0.0,0.0,0.0,-0.008956151083111763,0.005052297376096249,0.3292844891548157,0.0,0.0,0.0,0.0,0.0,0.0,0.0,0.0,0.0
1606826297439183208,587946,1606826297425868165,imu_link,0.0013823448680341244,0.0030454888474196196,0.019212966784834862,0.9998098611831665,0.0,0.0,0.0,0.0,0.0,0.0,0.0,0.0,0.0,2.2022898197174072,0.34587961435317993,0.16508322954177856,0.0,0.0,0.0,0.0,0.0,0.0,0.0,0.0,0.0,-0.008956151083111763,0.005052297376096249,0.3292844891548157,0.0,0.0,0.0,0.0,0.0,0.0,0.0,0.0,0.0
1606826297439195224,587947,1606826297425986349,imu_link,0.0013831312535330653,0.003046525176614523,0.019211744889616966,0.9998098611831665,0.0,0.0,0.0,0.0,0.0,0.0,0.0,0.0,0.0,2.2021501064300537,0.34599682688713074,0.1651751846075058,0.0,0.0,0.0,0.0,0.0,0.0,0.0,0.0,0.0,-0.013366623781621456,-0.0024895824026316404,0.32928434014320374,0.0,0.0,0.0,0.0,0.0,0.0,0.0,0.0,0.0
1606826297439213496,587948,1606826297426149195,imu_link,0.0013831312535330653,0.003046525176614523,0.019211744889616966,0.9998098611831665,0.0,0.0,0.0,0.0,0.0,0.0,0.0,0.0,0.0,2.2021501064300537,0.34599682688713074,0.1651751846075058,0.0,0.0,0.0,0.0,0.0,0.0,0.0,0.0,0.0,-0.013366623781621456,-0.0024895824026316404,0.32928434014320374,0.0,0.0,0.0,0.0,0.0,0.0,0.0,0.0,0.0
1606826297439402561,587949,1606826297426245423,imu_link,0.0013823204208165407,0.003046249970793724,0.019212979823350906,0.9998098611831665,0.0,0.0,0.0,0.0,0.0,0.0,0.0,0.0,0.0,2.202291488647461,0.3459668457508087,0.16508211195468903,0.0,0.0,0.0,0.0,0.0,0.0,0.0,0.0,0.0,-0.0033653434365987778,-0.015991760417819023,0.3186984360218048,0.0,0.0,0.0,0.0,0.0,0.0,0.0,0.0,0.0
1606826297439417433,587950,1606826297426328725,imu_link,0.0013823204208165407,0.003046249970793724,0.019212979823350906,0.9998098611831665,0.0,0.0,0.0,0.0,0.0,0.0,0.0,0.0,0.0,2.202291488647461,0.3459668457508087,0.16508211195468903,0.0,0.0,0.0,0.0,0.0,0.0,0.0,0.0,0.0,-0.0033653434365987778,-0.015991760417819023,0.3186984360218048,0.0,0.0,0.0,0.0,0.0,0.0,0.0,0.0,0.0
1606826297439436204,587951,1606826297426398629,imu_link,0.0013827963266521692,0.0030463896691799164,0.01921255514025688,0.9998098611831665,0.0,0.0,0.0,0.0,0.0,0.0,0.0,0.0,0.0,2.2022430896759033,0.3459818661212921,0.16513681411743164,0.0,0.0,0.0,0.0,0.0,0.0,0.0,0.0,0.0,0.0019273438956588507,-0.009358893148601055,0.3249570429325104,0.0,0.0,0.0,0.0,0.0,0.0,0.0,0.0,0.0
1606826297439446783,587952,1606826297426512973,imu_link,0.0013827963266521692,0.0030463896691799164,0.01921255514025688,0.9998098611831665,0.0,0.0,0.0,0.0,0.0,0.0,0.0,0.0,0.0,2.2022430896759033,0.3459818661212921,0.16513681411743164,0.0,0.0,0.0,0.0,0.0,0.0,0.0,0.0,0.0,0.0019273438956588507,-0.009358893148601055,0.3249570429325104,0.0,0.0,0.0,0.0,0.0,0.0,0.0,0.0,0.0
1606826297445737754,587953,1606826297426589946,imu_link,0.0013842398766428232,0.0030447847675532103,0.019206976518034935,0.9998099207878113,0.0,0.0,0.0,0.0,0.0,0.0,0.0,0.0,0.0,2.201603651046753,0.34579572081565857,0.165296733379364,0.0,0.0,0.0,0.0,0.0,0.0,0.0,0.0,0.0,-0.018168678507208824,0.005287874024361372,0.3460313081741333,0.0,0.0,0.0,0.0,0.0,0.0,0.0,0.0,0.0
1606826297445763210,587954,1606826297426666424,imu_link,0.0013842398766428232,0.0030447847675532103,0.019206976518034935,0.9998099207878113,0.0,0.0,0.0,0.0,0.0,0.0,0.0,0.0,0.0,2.201603651046753,0.34579572081565857,0.165296733379364,0.0,0.0,0.0,0.0,0.0,0.0,0.0,0.0,0.0,-0.018168678507208824,0.005287874024361372,0.3460313081741333,0.0,0.0,0.0,0.0,0.0,0.0,0.0,0.0,0.0
1606826297445799496,587955,1606826297426739371,imu_link,0.0013864447828382254,0.003042934462428093,0.0192090030759573,0.9998099207878113,0.0,0.0,0.0,0.0,0.0,0.0,0.0,0.0,0.0,2.201836347579956,0.3455785810947418,0.1655459702014923,0.0,0.0,0.0,0.0,0.0,0.0,0.0,0.0,0.0,-0.017285164445638657,0.01191208977252245,0.34807851910591125,0.0,0.0,0.0,0.0,0.0,0.0,0.0,0.0,0.0
1606826297445808231,587956,1606826297426813675,imu_link,0.0013864447828382254,0.003042934462428093,0.0192090030759573,0.9998099207878113,0.0,0.0,0.0,0.0,0.0,0.0,0.0,0.0,0.0,2.201836347579956,0.3455785810947418,0.1655459702014923,0.0,0.0,0.0,0.0,0.0,0.0,0.0,0.0,0.0,-0.017285164445638657,0.01191208977252245,0.34807851910591125,0.0,0.0,0.0,0.0,0.0,0.0,0.0,0.0,0.0
1606826297445818234,587957,1606826297439377041,imu_link,0.0013844661880284548,0.003040757030248642,0.019204190000891685,0.999809980392456,0.0,0.0,0.0,0.0,0.0,0.0,0.0,0.0,0.0,2.2012836933135986,0.3453342020511627,0.16531282663345337,0.0,0.0,0.0,0.0,0.0,0.0,0.0,0.0,0.0,0.007188873365521431,0.009041450917720795,0.34640806913375854,0.0,0.0,0.0,0.0,0.0,0.0,0.0,0.0,0.0
1606826297445899296,587958,1606826297439502959,imu_link,0.0013844661880284548,0.003040757030248642,0.019204190000891685,0.999809980392456,0.0,0.0,0.0,0.0,0.0,0.0,0.0,0.0,0.0,2.2012836933135986,0.3453342020511627,0.16531282663345337,0.0,0.0,0.0,0.0,0.0,0.0,0.0,0.0,0.0,0.007188873365521431,0.009041450917720795,0.34640806913375854,0.0,0.0,0.0,0.0,0.0,0.0,0.0,0.0,0.0
1606826297445914133,587959,1606826297439654794,imu_link,0.0013856691075488925,0.0030416541267186403,0.019204705953598022,0.999809980392456,0.0,0.0,0.0,0.0,0.0,0.0,0.0,0.0,0.0,2.201343297958374,0.3454342782497406,0.16545279324054718,0.0,0.0,0.0,0.0,0.0,0.0,0.0,0.0,0.0,0.016057802364230156,0.004750397522002459,0.33289995789527893,0.0,0.0,0.0,0.0,0.0,0.0,0.0,0.0,0.0
1606826297445932312,587960,1606826297439727402,imu_link,0.0013856691075488925,0.0030416541267186403,0.019204705953598022,0.999809980392456,0.0,0.0,0.0,0.0,0.0,0.0,0.0,0.0,0.0,2.201343297958374,0.3454342782497406,0.16545279324054718,0.0,0.0,0.0,0.0,0.0,0.0,0.0,0.0,0.0,0.016057802364230156,0.004750397522002459,0.33289995789527893,0.0,0.0,0.0,0.0,0.0,0.0,0.0,0.0,0.0
1606826297450719923,587961,1606826297439796209,imu_link,0.0013858890160918236,0.0030414399225264788,0.019195912405848503,0.9998101592063904,0.0,0.0,0.0,0.0,0.0,0.0,0.0,0.0,0.0,2.2003355026245117,0.34541070461273193,0.16547448933124542,0.0,0.0,0.0,0.0,0.0,0.0,0.0,0.0,0.0,0.020244209095835686,-0.005629764869809151,0.3336867094039917,0.0,0.0,0.0,0.0,0.0,0.0,0.0,0.0,0.0
1606826297450751252,587962,1606826297439881375,imu_link,0.0013858890160918236,0.0030414399225264788,0.019195912405848503,0.9998101592063904,0.0,0.0,0.0,0.0,0.0,0.0,0.0,0.0,0.0,2.2003355026245117,0.34541070461273193,0.16547448933124542,0.0,0.0,0.0,0.0,0.0,0.0,0.0,0.0,0.0,0.020244209095835686,-0.005629764869809151,0.3336867094039917,0.0,0.0,0.0,0.0,0.0,0.0,0.0,0.0,0.0
1606826297450765404,587963,1606826297439970211,imu_link,0.001384529983624816,0.0030415691435337067,0.019195402041077614,0.9998102188110352,0.0,0.0,0.0,0.0,0.0,0.0,0.0,0.0,0.0,2.2002766132354736,0.34542861580848694,0.16531889140605927,0.0,0.0,0.0,0.0,0.0,0.0,0.0,0.0,0.0,0.0066869985312223434,0.0013818357838317752,0.331257700920105,0.0,0.0,0.0,0.0,0.0,0.0,0.0,0.0,0.0
1606826297450777624,587964,1606826297440045082,imu_link,0.001384529983624816,0.0030415691435337067,0.019195402041077614,0.9998102188110352,0.0,0.0,0.0,0.0,0.0,0.0,0.0,0.0,0.0,2.2002766132354736,0.34542861580848694,0.16531889140605927,0.0,0.0,0.0,0.0,0.0,0.0,0.0,0.0,0.0,0.0066869985312223434,0.0013818357838317752,0.331257700920105,0.0,0.0,0.0,0.0,0.0,0.0,0.0,0.0,0.0
1606826297450787335,587965,1606826297440118798,imu_link,0.0013851715484634042,0.00304351351223886,0.01918693445622921,0.9998103380203247,0.0,0.0,0.0,0.0,0.0,0.0,0.0,0.0,0.0,2.1993062496185303,0.34565138816833496,0.16539372503757477,0.0,0.0,0.0,0.0,0.0,0.0,0.0,0.0,0.0,0.000375711708329618,0.023088347166776657,0.3201189339160919,0.0,0.0,0.0,0.0,0.0,0.0,0.0,0.0,0.0
1606826297450803544,587966,1606826297440195469,imu_link,0.0013851715484634042,0.00304351351223886,0.01918693445622921,0.9998103380203247,0.0,0.0,0.0,0.0,0.0,0.0,0.0,0.0,0.0,2.1993062496185303,0.34565138816833496,0.16539372503757477,0.0,0.0,0.0,0.0,0.0,0.0,0.0,0.0,0.0,0.000375711708329618,0.023088347166776657,0.3201189339160919,0.0,0.0,0.0,0.0,0.0,0.0,0.0,0.0,0.0
1606826297450843453,587967,1606826297440264392,imu_link,0.0013852851698175073,0.0030421719420701265,0.019187023863196373,0.9998103380203247,0.0,0.0,0.0,0.0,0.0,0.0,0.0,0.0,0.0,2.1993165016174316,0.34549739956855774,0.1654038280248642,0.0,0.0,0.0,0.0,0.0,0.0,0.0,0.0,0.0,0.010574358515441418,0.013299006037414074,0.30790218710899353,0.0,0.0,0.0,0.0,0.0,0.0,0.0,0.0,0.0
1606826297456784728,587968,1606826297452313754,imu_link,0.0013852851698175073,0.0030421719420701265,0.019187023863196373,0.9998103380203247,0.0,0.0,0.0,0.0,0.0,0.0,0.0,0.0,0.0,2.1993165016174316,0.34549739956855774,0.1654038280248642,0.0,0.0,0.0,0.0,0.0,0.0,0.0,0.0,0.0,0.010574358515441418,0.013299006037414074,0.30790218710899353,0.0,0.0,0.0,0.0,0.0,0.0,0.0,0.0,0.0
1606826297461584182,587969,1606826297452437721,imu_link,0.0013848039088770747,0.003043905133381486,0.019179658964276314,0.999810516834259,0.0,0.0,0.0,0.0,0.0,0.0,0.0,0.0,0.0,2.198472499847412,0.3456982672214508,0.16534996032714844,0.0,0.0,0.0,0.0,0.0,0.0,0.0,0.0,0.0,0.03023410588502884,0.004083334002643824,0.31492647528648376,0.0,0.0,0.0,0.0,0.0,0.0,0.0,0.0,0.0
1606826297461602280,587970,1606826297452606251,imu_link,0.0013848039088770747,0.003043905133381486,0.019179658964276314,0.999810516834259,0.0,0.0,0.0,0.0,0.0,0.0,0.0,0.0,0.0,2.198472499847412,0.3456982672214508,0.16534996032714844,0.0,0.0,0.0,0.0,0.0,0.0,0.0,0.0,0.0,0.03023410588502884,0.004083334002643824,0.31492647528648376,0.0,0.0,0.0,0.0,0.0,0.0,0.0,0.0,0.0
1606826297461615167,587971,1606826297452764581,imu_link,0.0013850572286173701,0.003043522359803319,0.019179364666342735,0.999810516834259,0.0,0.0,0.0,0.0,0.0,0.0,0.0,0.0,0.0,2.198438882827759,0.3456538915634155,0.16537804901599884,0.0,0.0,0.0,0.0,0.0,0.0,0.0,0.0,0.0,0.011339704506099224,0.018512703478336334,0.34018298983573914,0.0,0.0,0.0,0.0,0.0,0.0,0.0,0.0,0.0
1606826297461633142,587972,1606826297452841594,imu_link,0.0013850572286173701,0.003043522359803319,0.019179364666342735,0.999810516834259,0.0,0.0,0.0,0.0,0.0,0.0,0.0,0.0,0.0,2.198438882827759,0.3456538915634155,0.16537804901599884,0.0,0.0,0.0,0.0,0.0,0.0,0.0,0.0,0.0,0.011339704506099224,0.018512703478336334,0.34018298983573914,0.0,0.0,0.0,0.0,0.0,0.0,0.0,0.0,0.0
1606826297461645151,587973,1606826297452938386,imu_link,0.0013825228670611978,0.0030453905928879976,0.019173989072442055,0.9998106360435486,0.0,0.0,0.0,0.0,0.0,0.0,0.0,0.0,0.0,2.197822332382202,0.3458743989467621,0.1650899201631546,0.0,0.0,0.0,0.0,0.0,0.0,0.0,0.0,0.0,-0.019125228747725487,0.0008749349508434534,0.3288145661354065,0.0,0.0,0.0,0.0,0.0,0.0,0.0,0.0,0.0
1606826297461658654,587974,1606826297453014402,imu_link,0.0013825228670611978,0.0030453905928879976,0.019173989072442055,0.9998106360435486,0.0,0.0,0.0,0.0,0.0,0.0,0.0,0.0,0.0,2.197822332382202,0.3458743989467621,0.1650899201631546,0.0,0.0,0.0,0.0,0.0,0.0,0.0,0.0,0.0,-0.019125228747725487,0.0008749349508434534,0.3288145661354065,0.0,0.0,0.0,0.0,0.0,0.0,0.0,0.0,0.0
1606826297461677857,587975,1606826297453082822,imu_link,0.0013818284496665,0.0030464460141956806,0.019172947853803635,0.9998106360435486,0.0,0.0,0.0,0.0,0.0,0.0,0.0,0.0,0.0,2.1977028846740723,0.34599700570106506,0.16501230001449585,0.0,0.0,0.0,0.0,0.0,0.0,0.0,0.0,0.0,-0.008532115258276463,0.0016186167486011982,0.3160720467567444,0.0,0.0,0.0,0.0,0.0,0.0,0.0,0.0,0.0
1606826297461688941,587976,1606826297453209074,imu_link,0.0013818284496665,0.0030464460141956806,0.019172947853803635,0.9998106360435486,0.0,0.0,0.0,0.0,0.0,0.0,0.0,0.0,0.0,2.1977028846740723,0.34599700570106506,0.16501230001449585,0.0,0.0,0.0,0.0,0.0,0.0,0.0,0.0,0.0,-0.008532115258276463,0.0016186167486011982,0.3160720467567444,0.0,0.0,0.0,0.0,0.0,0.0,0.0,0.0,0.0
1606826297461734673,587977,1606826297453288113,imu_link,0.0013832688564434648,0.0030466674361377954,0.019176704809069633,0.999810516834259,0.0,0.0,0.0,0.0,0.0,0.0,0.0,0.0,0.0,2.198133945465088,0.34601858258247375,0.16517914831638336,0.0,0.0,0.0,0.0,0.0,0.0,0.0,0.0,0.0,-0.003963440656661987,0.02139812335371971,0.33404260873794556,0.0,0.0,0.0,0.0,0.0,0.0,0.0,0.0,0.0
1606826297486610031,587978,1606826297465966421,imu_link,0.0013832688564434648,0.0030466674361377954,0.019176704809069633,0.999810516834259,0.0,0.0,0.0,0.0,0.0,0.0,0.0,0.0,0.0,2.198133945465088,0.34601858258247375,0.16517914831638336,0.0,0.0,0.0,0.0,0.0,0.0,0.0,0.0,0.0,-0.003963440656661987,0.02139812335371971,0.33404260873794556,0.0,0.0,0.0,0.0,0.0,0.0,0.0,0.0,0.0
1606826297486630740,587979,1606826297466106220,imu_link,0.0013827342772856355,0.0030474180821329355,0.019176678732037544,0.999810516834259,0.0,0.0,0.0,0.0,0.0,0.0,0.0,0.0,0.0,2.1981308460235596,0.34610578417778015,0.16511952877044678,0.0,0.0,0.0,0.0,0.0,0.0,0.0,0.0,0.0,-0.010033140890300274,0.0153282405808568,0.32025212049484253,0.0,0.0,0.0,0.0,0.0,0.0,0.0,0.0,0.0
1606826297486645262,587980,1606826297466265583,imu_link,0.0013827342772856355,0.0030474180821329355,0.019176678732037544,0.999810516834259,0.0,0.0,0.0,0.0,0.0,0.0,0.0,0.0,0.0,2.1981308460235596,0.34610578417778015,0.16511952877044678,0.0,0.0,0.0,0.0,0.0,0.0,0.0,0.0,0.0,-0.010033140890300274,0.0153282405808568,0.32025212049484253,0.0,0.0,0.0,0.0,0.0,0.0,0.0,0.0,0.0
1606826297486659340,587981,1606826297466419904,imu_link,0.0013832919066771865,0.003044565673917532,0.01918109320104122,0.9998104572296143,0.0,0.0,0.0,0.0,0.0,0.0,0.0,0.0,0.0,2.198636770248413,0.3457770049571991,0.16517868638038635,0.0,0.0,0.0,0.0,0.0,0.0,0.0,0.0,0.0,-0.02149599976837635,0.009787383489310741,0.28530892729759216,0.0,0.0,0.0,0.0,0.0,0.0,0.0,0.0,0.0
1606826297486669633,587982,1606826297466500103,imu_link,0.0013832919066771865,0.003044565673917532,0.01918109320104122,0.9998104572296143,0.0,0.0,0.0,0.0,0.0,0.0,0.0,0.0,0.0,2.198636770248413,0.3457770049571991,0.16517868638038635,0.0,0.0,0.0,0.0,0.0,0.0,0.0,0.0,0.0,-0.02149599976837635,0.009787383489310741,0.28530892729759216,0.0,0.0,0.0,0.0,0.0,0.0,0.0,0.0,0.0
1606826297486698986,587983,1606826297466570153,imu_link,0.0013840710744261742,0.0030445947777479887,0.019180163741111755,0.9998104572296143,0.0,0.0,0.0,0.0,0.0,0.0,0.0,0.0,0.0,2.198530435562134,0.34577879309654236,0.1652677059173584,0.0,0.0,0.0,0.0,0.0,0.0,0.0,0.0,0.0,-0.004553879611194134,0.006441740319132805,0.3099174499511719,0.0,0.0,0.0,0.0,0.0,0.0,0.0,0.0,0.0
1606826297486714107,587984,1606826297466655225,imu_link,0.0013840710744261742,0.0030445947777479887,0.019180163741111755,0.9998104572296143,0.0,0.0,0.0,0.0,0.0,0.0,0.0,0.0,0.0,2.198530435562134,0.34577879309654236,0.1652677059173584,0.0,0.0,0.0,0.0,0.0,0.0,0.0,0.0,0.0,-0.004553879611194134,0.006441740319132805,0.3099174499511719,0.0,0.0,0.0,0.0,0.0,0.0,0.0,0.0,0.0
1606826297486730304,587985,1606826297466733619,imu_link,0.0013832396361976862,0.0030443225987255573,0.019181743264198303,0.9998103976249695,0.0,0.0,0.0,0.0,0.0,0.0,0.0,0.0,0.0,2.1987109184265137,0.345749169588089,0.16517238318920135,0.0,0.0,0.0,0.0,0.0,0.0,0.0,0.0,0.0,0.002205819357186556,0.001461658626794815,0.3335317075252533,0.0,0.0,0.0,0.0,0.0,0.0,0.0,0.0,0.0
1606826297486739303,587986,1606826297466810173,imu_link,0.0013832396361976862,0.0030443225987255573,0.019181743264198303,0.9998103976249695,0.0,0.0,0.0,0.0,0.0,0.0,0.0,0.0,0.0,2.1987109184265137,0.345749169588089,0.16517238318920135,0.0,0.0,0.0,0.0,0.0,0.0,0.0,0.0,0.0,0.002205819357186556,0.001461658626794815,0.3335317075252533,0.0,0.0,0.0,0.0,0.0,0.0,0.0,0.0,0.0
1606826297486748986,587987,1606826297466885454,imu_link,0.001383041380904615,0.0030455943197011948,0.019180793315172195,0.9998104572296143,0.0,0.0,0.0,0.0,0.0,0.0,0.0,0.0,0.0,2.1986024379730225,0.3458954989910126,0.16515211760997772,0.0,0.0,0.0,0.0,0.0,0.0,0.0,0.0,0.0,0.0032405913807451725,-0.003912447951734066,0.3259258270263672,0.0,0.0,0.0,0.0,0.0,0.0,0.0,0.0,0.0
1606826297486757716,587988,1606826297466959901,imu_link,0.001383041380904615,0.0030455943197011948,0.019180793315172195,0.9998104572296143,0.0,0.0,0.0,0.0,0.0,0.0,0.0,0.0,0.0,2.1986024379730225,0.3458954989910126,0.16515211760997772,0.0,0.0,0.0,0.0,0.0,0.0,0.0,0.0,0.0,0.0032405913807451725,-0.003912447951734066,0.3259258270263672,0.0,0.0,0.0,0.0,0.0,0.0,0.0,0.0,0.0
1606826297486781459,587989,1606826297479489181,imu_link,0.0013832879485562444,0.0030448578763753176,0.01918470673263073,0.9998103976249695,0.0,0.0,0.0,0.0,0.0,0.0,0.0,0.0,0.0,2.1990509033203125,0.3458099067211151,0.16518011689186096,0.0,0.0,0.0,0.0,0.0,0.0,0.0,0.0,0.0,0.01873028837144375,-0.0027818772941827774,0.3349808156490326,0.0,0.0,0.0,0.0,0.0,0.0,0.0,0.0,0.0
1606826297486792741,587990,1606826297479623263,imu_link,0.0013832879485562444,0.0030448578763753176,0.01918470673263073,0.9998103976249695,0.0,0.0,0.0,0.0,0.0,0.0,0.0,0.0,0.0,2.1990509033203125,0.3458099067211151,0.16518011689186096,0.0,0.0,0.0,0.0,0.0,0.0,0.0,0.0,0.0,0.01873028837144375,-0.0027818772941827774,0.3349808156490326,0.0,0.0,0.0,0.0,0.0,0.0,0.0,0.0,0.0
1606826297486819849,587991,1606826297479775433,imu_link,0.001383447670377791,0.003046102588996291,0.019183337688446045,0.9998103976249695,0.0,0.0,0.0,0.0,0.0,0.0,0.0,0.0,0.0,2.1988940238952637,0.3459523618221283,0.16520069539546967,0.0,0.0,0.0,0.0,0.0,0.0,0.0,0.0,0.0,0.006665992550551891,0.010243331082165241,0.3302640914916992,0.0,0.0,0.0,0.0,0.0,0.0,0.0,0.0,0.0
1606826297487465282,587992,1606826297479858081,imu_link,0.001383447670377791,0.003046102588996291,0.019183337688446045,0.9998103976249695,0.0,0.0,0.0,0.0,0.0,0.0,0.0,0.0,0.0,2.1988940238952637,0.3459523618221283,0.16520069539546967,0.0,0.0,0.0,0.0,0.0,0.0,0.0,0.0,0.0,0.006665992550551891,0.010243331082165241,0.3302640914916992,0.0,0.0,0.0,0.0,0.0,0.0,0.0,0.0,0.0
1606826297487475574,587993,1606826297479935856,imu_link,0.0013813632540404797,0.003047592705115676,0.019183428958058357,0.9998103976249695,0.0,0.0,0.0,0.0,0.0,0.0,0.0,0.0,0.0,2.198904037475586,0.3461276590824127,0.1649651676416397,0.0,0.0,0.0,0.0,0.0,0.0,0.0,0.0,0.0,-0.0008133043302223086,0.012916077859699726,0.31821760535240173,0.0,0.0,0.0,0.0,0.0,0.0,0.0,0.0,0.0
1606826297487489281,587994,1606826297480006681,imu_link,0.0013813632540404797,0.003047592705115676,0.019183428958058357,0.9998103976249695,0.0,0.0,0.0,0.0,0.0,0.0,0.0,0.0,0.0,2.198904037475586,0.3461276590824127,0.1649651676416397,0.0,0.0,0.0,0.0,0.0,0.0,0.0,0.0,0.0,-0.0008133043302223086,0.012916077859699726,0.31821760535240173,0.0,0.0,0.0,0.0,0.0,0.0,0.0,0.0,0.0
1606826297487497864,587995,1606826297480093576,imu_link,0.0013808687217533588,0.0030485219322144985,0.01918143965303898,0.9998104572296143,0.0,0.0,0.0,0.0,0.0,0.0,0.0,0.0,0.0,2.198676109313965,0.3462355434894562,0.16490988433361053,0.0,0.0,0.0,0.0,0.0,0.0,0.0,0.0,0.0,-0.002122296253219247,-0.0033137998543679714,0.33327430486679077,0.0,0.0,0.0,0.0,0.0,0.0,0.0,0.0,0.0
1606826297490040445,587996,1606826297480171761,imu_link,0.0013808687217533588,0.0030485219322144985,0.01918143965303898,0.9998104572296143,0.0,0.0,0.0,0.0,0.0,0.0,0.0,0.0,0.0,2.198676109313965,0.3462355434894562,0.16490988433361053,0.0,0.0,0.0,0.0,0.0,0.0,0.0,0.0,0.0,-0.002122296253219247,-0.0033137998543679714,0.33327430486679077,0.0,0.0,0.0,0.0,0.0,0.0,0.0,0.0,0.0
1606826297490060636,587997,1606826297480248600,imu_link,0.0013815019046887755,0.0030487857293337584,0.019180862233042717,0.9998104572296143,0.0,0.0,0.0,0.0,0.0,0.0,0.0,0.0,0.0,2.198610305786133,0.34626448154449463,0.16498279571533203,0.0,0.0,0.0,0.0,0.0,0.0,0.0,0.0,0.0,-0.008908264338970184,-0.018308518454432487,0.34312430024147034,0.0,0.0,0.0,0.0,0.0,0.0,0.0,0.0,0.0
1606826297490067694,587998,1606826297480324972,imu_link,0.0013815019046887755,0.0030487857293337584,0.019180862233042717,0.9998104572296143,0.0,0.0,0.0,0.0,0.0,0.0,0.0,0.0,0.0,2.198610305786133,0.34626448154449463,0.16498279571533203,0.0,0.0,0.0,0.0,0.0,0.0,0.0,0.0,0.0,-0.008908264338970184,-0.018308518454432487,0.34312430024147034,0.0,0.0,0.0,0.0,0.0,0.0,0.0,0.0,0.0
1606826297490077795,587999,1606826297480400248,imu_link,0.0013815384590998292,0.0030478076077997684,0.01918131485581398,0.9998104572296143,0.0,0.0,0.0,0.0,0.0,0.0,0.0,0.0,0.0,2.198662042617798,0.34615227580070496,0.16498500108718872,0.0,0.0,0.0,0.0,0.0,0.0,0.0,0.0,0.0,-0.0008956263773143291,-0.015261244028806686,0.3205566108226776,0.0,0.0,0.0,0.0,0.0,0.0,0.0,0.0,0.0
1606826297497952989,588000,1606826297493417650,imu_link,0.0013815384590998292,0.0030478076077997684,0.01918131485581398,0.9998104572296143,0.0,0.0,0.0,0.0,0.0,0.0,0.0,0.0,0.0,2.198662042617798,0.34615227580070496,0.16498500108718872,0.0,0.0,0.0,0.0,0.0,0.0,0.0,0.0,0.0,-0.0008956263773143291,-0.015261244028806686,0.3205566108226776,0.0,0.0,0.0,0.0,0.0,0.0,0.0,0.0,0.0
1606826297500752047,588001,1606826297493556581,imu_link,0.0013830596581101418,0.003047890029847622,0.01917881704866886,0.999810516834259,0.0,0.0,0.0,0.0,0.0,0.0,0.0,0.0,0.0,2.198376417160034,0.34615880250930786,0.16515859961509705,0.0,0.0,0.0,0.0,0.0,0.0,0.0,0.0,0.0,0.008244494907557964,-0.0035039065405726433,0.30947986245155334,0.0,0.0,0.0,0.0,0.0,0.0,0.0,0.0,0.0
1606826297500773251,588002,1606826297493740981,imu_link,0.0013830596581101418,0.003047890029847622,0.01917881704866886,0.999810516834259,0.0,0.0,0.0,0.0,0.0,0.0,0.0,0.0,0.0,2.198376417160034,0.34615880250930786,0.16515859961509705,0.0,0.0,0.0,0.0,0.0,0.0,0.0,0.0,0.0,0.008244494907557964,-0.0035039065405726433,0.30947986245155334,0.0,0.0,0.0,0.0,0.0,0.0,0.0,0.0,0.0
1606826297500788195,588003,1606826297493820625,imu_link,0.0013824420748278499,0.003048800164833665,0.019179942086338997,0.999810516834259,0.0,0.0,0.0,0.0,0.0,0.0,0.0,0.0,0.0,2.198505163192749,0.3462642431259155,0.16509021818637848,0.0,0.0,0.0,0.0,0.0,0.0,0.0,0.0,0.0,-0.000888848677277565,-0.00878309179097414,0.3293721079826355,0.0,0.0,0.0,0.0,0.0,0.0,0.0,0.0,0.0
1606826297500806431,588004,1606826297493898244,imu_link,0.0013824420748278499,0.003048800164833665,0.019179942086338997,0.999810516834259,0.0,0.0,0.0,0.0,0.0,0.0,0.0,0.0,0.0,2.198505163192749,0.3462642431259155,0.16509021818637848,0.0,0.0,0.0,0.0,0.0,0.0,0.0,0.0,0.0,-0.000888848677277565,-0.00878309179097414,0.3293721079826355,0.0,0.0,0.0,0.0,0.0,0.0,0.0,0.0,0.0
1606826297500816703,588005,1606826297493990006,imu_link,0.0013833901612088084,0.003048899583518505,0.01917744241654873,0.9998104572296143,0.0,0.0,0.0,0.0,0.0,0.0,0.0,0.0,0.0,2.1982192993164062,0.34627392888069153,0.1651982218027115,0.0,0.0,0.0,0.0,0.0,0.0,0.0,0.0,0.0,-0.002713983180001378,-0.011468159966170788,0.3354257047176361,0.0,0.0,0.0,0.0,0.0,0.0,0.0,0.0,0.0
1606826297500825819,588006,1606826297494103242,imu_link,0.0013833901612088084,0.003048899583518505,0.01917744241654873,0.9998104572296143,0.0,0.0,0.0,0.0,0.0,0.0,0.0,0.0,0.0,2.1982192993164062,0.34627392888069153,0.1651982218027115,0.0,0.0,0.0,0.0,0.0,0.0,0.0,0.0,0.0,-0.002713983180001378,-0.011468159966170788,0.3354257047176361,0.0,0.0,0.0,0.0,0.0,0.0,0.0,0.0,0.0
1606826297500835807,588007,1606826297494193360,imu_link,0.0013847373193129897,0.0030477847903966904,0.019176935777068138,0.999810516834259,0.0,0.0,0.0,0.0,0.0,0.0,0.0,0.0,0.0,2.1981613636016846,0.34614333510398865,0.16534991562366486,0.0,0.0,0.0,0.0,0.0,0.0,0.0,0.0,0.0,0.005780657287687063,0.013088501058518887,0.29462239146232605,0.0,0.0,0.0,0.0,0.0,0.0,0.0,0.0,0.0
1606826297500863426,588008,1606826297494273455,imu_link,0.0013847373193129897,0.0030477847903966904,0.019176935777068138,0.999810516834259,0.0,0.0,0.0,0.0,0.0,0.0,0.0,0.0,0.0,2.1981613636016846,0.34614333510398865,0.16534991562366486,0.0,0.0,0.0,0.0,0.0,0.0,0.0,0.0,0.0,0.005780657287687063,0.013088501058518887,0.29462239146232605,0.0,0.0,0.0,0.0,0.0,0.0,0.0,0.0,0.0
1606826297500891188,588009,1606826297494355575,imu_link,0.0013832567492499948,0.0030473896767944098,0.019174987450242043,0.999810516834259,0.0,0.0,0.0,0.0,0.0,0.0,0.0,0.0,0.0,2.197937488555908,0.34610164165496826,0.16517874598503113,0.0,0.0,0.0,0.0,0.0,0.0,0.0,0.0,0.0,0.00944590661674738,0.023060396313667297,0.2859524190425873,0.0,0.0,0.0,0.0,0.0,0.0,0.0,0.0,0.0
1606826297502580188,588010,1606826297494443823,imu_link,0.0013832567492499948,0.0030473896767944098,0.019174987450242043,0.999810516834259,0.0,0.0,0.0,0.0,0.0,0.0,0.0,0.0,0.0,2.197937488555908,0.34610164165496826,0.16517874598503113,0.0,0.0,0.0,0.0,0.0,0.0,0.0,0.0,0.0,0.00944590661674738,0.023060396313667297,0.2859524190425873,0.0,0.0,0.0,0.0,0.0,0.0,0.0,0.0,0.0
1606826297512899094,588011,1606826297506816234,imu_link,0.001384045695886016,0.0030470136553049088,0.019175993278622627,0.999810516834259,0.0,0.0,0.0,0.0,0.0,0.0,0.0,0.0,0.0,2.1980528831481934,0.34605666995048523,0.165268674492836,0.0,0.0,0.0,0.0,0.0,0.0,0.0,0.0,0.0,0.012469359673559666,-0.002593320095911622,0.3197701871395111,0.0,0.0,0.0,0.0,0.0,0.0,0.0,0.0,0.0
1606826297512920760,588012,1606826297506957997,imu_link,0.001384045695886016,0.0030470136553049088,0.019175993278622627,0.999810516834259,0.0,0.0,0.0,0.0,0.0,0.0,0.0,0.0,0.0,2.1980528831481934,0.34605666995048523,0.165268674492836,0.0,0.0,0.0,0.0,0.0,0.0,0.0,0.0,0.0,0.012469359673559666,-0.002593320095911622,0.3197701871395111,0.0,0.0,0.0,0.0,0.0,0.0,0.0,0.0,0.0
1606826297512927634,588013,1606826297507141690,imu_link,0.0013843285851180553,0.0030485782772302628,0.01917419210076332,0.9998105764389038,0.0,0.0,0.0,0.0,0.0,0.0,0.0,0.0,0.0,2.1978466510772705,0.34623560309410095,0.16530390083789825,0.0,0.0,0.0,0.0,0.0,0.0,0.0,0.0,0.0,0.006362284999340773,-0.0033934139646589756,0.3360733985900879,0.0,0.0,0.0,0.0,0.0,0.0,0.0,0.0,0.0
1606826297512933856,588014,1606826297507253032,imu_link,0.0013843285851180553,0.0030485782772302628,0.01917419210076332,0.9998105764389038,0.0,0.0,0.0,0.0,0.0,0.0,0.0,0.0,0.0,2.1978466510772705,0.34623560309410095,0.16530390083789825,0.0,0.0,0.0,0.0,0.0,0.0,0.0,0.0,0.0,0.006362284999340773,-0.0033934139646589756,0.3360733985900879,0.0,0.0,0.0,0.0,0.0,0.0,0.0,0.0,0.0
1606826297512945789,588015,1606826297507366675,imu_link,0.0013834109995514154,0.003048800630494952,0.01917276345193386,0.9998105764389038,0.0,0.0,0.0,0.0,0.0,0.0,0.0,0.0,0.0,2.1976828575134277,0.3462633192539215,0.16519875824451447,0.0,0.0,0.0,0.0,0.0,0.0,0.0,0.0,0.0,0.004763797856867313,0.011118338443338871,0.34178030490875244,0.0,0.0,0.0,0.0,0.0,0.0,0.0,0.0,0.0
1606826297513543460,588016,1606826297507468179,imu_link,0.0013834109995514154,0.003048800630494952,0.01917276345193386,0.9998105764389038,0.0,0.0,0.0,0.0,0.0,0.0,0.0,0.0,0.0,2.1976828575134277,0.3462633192539215,0.16519875824451447,0.0,0.0,0.0,0.0,0.0,0.0,0.0,0.0,0.0,0.004763797856867313,0.011118338443338871,0.34178030490875244,0.0,0.0,0.0,0.0,0.0,0.0,0.0,0.0,0.0
1606826297513555165,588017,1606826297507555566,imu_link,0.0013823645422235131,0.0030495538376271725,0.01916854828596115,0.9998106360435486,0.0,0.0,0.0,0.0,0.0,0.0,0.0,0.0,0.0,2.197199583053589,0.34635260701179504,0.1650790572166443,0.0,0.0,0.0,0.0,0.0,0.0,0.0,0.0,0.0,0.010210789740085602,0.024237221106886864,0.32927820086479187,0.0,0.0,0.0,0.0,0.0,0.0,0.0,0.0,0.0
1606826297513563116,588018,1606826297507632819,imu_link,0.0013823645422235131,0.0030495538376271725,0.01916854828596115,0.9998106360435486,0.0,0.0,0.0,0.0,0.0,0.0,0.0,0.0,0.0,2.197199583053589,0.34635260701179504,0.1650790572166443,0.0,0.0,0.0,0.0,0.0,0.0,0.0,0.0,0.0,0.010210789740085602,0.024237221106886864,0.32927820086479187,0.0,0.0,0.0,0.0,0.0,0.0,0.0,0.0,0.0
1606826297513567129,588019,1606826297507709937,imu_link,0.0013804211048409343,0.003048939863219857,0.019169190898537636,0.9998106360435486,0.0,0.0,0.0,0.0,0.0,0.0,0.0,0.0,0.0,2.197272300720215,0.346286416053772,0.16485527157783508,0.0,0.0,0.0,0.0,0.0,0.0,0.0,0.0,0.0,0.0029908441938459873,0.02818458154797554,0.29325464367866516,0.0,0.0,0.0,0.0,0.0,0.0,0.0,0.0,0.0
1606826297517883145,588020,1606826297507786679,imu_link,0.0013804211048409343,0.003048939863219857,0.019169190898537636,0.9998106360435486,0.0,0.0,0.0,0.0,0.0,0.0,0.0,0.0,0.0,2.197272300720215,0.346286416053772,0.16485527157783508,0.0,0.0,0.0,0.0,0.0,0.0,0.0,0.0,0.0,0.0029908441938459873,0.02818458154797554,0.29325464367866516,0.0,0.0,0.0,0.0,0.0,0.0,0.0,0.0,0.0
1606826297517898600,588021,1606826297507869711,imu_link,0.0013775902334600687,0.0030495007522404194,0.019164973869919777,0.9998107552528381,0.0,0.0,0.0,0.0,0.0,0.0,0.0,0.0,0.0,2.1967880725860596,0.3463576138019562,0.1645307093858719,0.0,0.0,0.0,0.0,0.0,0.0,0.0,0.0,0.0,-0.00630874652415514,0.00751799950376153,0.30096954107284546,0.0,0.0,0.0,0.0,0.0,0.0,0.0,0.0,0.0
1606826297524299133,588022,1606826297519634981,imu_link,0.0013775902334600687,0.0030495007522404194,0.019164973869919777,0.9998107552528381,0.0,0.0,0.0,0.0,0.0,0.0,0.0,0.0,0.0,2.1967880725860596,0.3463576138019562,0.1645307093858719,0.0,0.0,0.0,0.0,0.0,0.0,0.0,0.0,0.0,-0.00630874652415514,0.00751799950376153,0.30096954107284546,0.0,0.0,0.0,0.0,0.0,0.0,0.0,0.0,0.0
1606826297524833477,588023,1606826297519774298,imu_link,0.0013769963989034295,0.0030486423056572676,0.01916331611573696,0.9998108148574829,0.0,0.0,0.0,0.0,0.0,0.0,0.0,0.0,0.0,2.1965975761413574,0.34626084566116333,0.1644601970911026,0.0,0.0,0.0,0.0,0.0,0.0,0.0,0.0,0.0,-0.018266525119543076,0.0050923642702400684,0.3268638551235199,0.0,0.0,0.0,0.0,0.0,0.0,0.0,0.0,0.0
1606826297524846854,588024,1606826297519955762,imu_link,0.0013769963989034295,0.0030486423056572676,0.01916331611573696,0.9998108148574829,0.0,0.0,0.0,0.0,0.0,0.0,0.0,0.0,0.0,2.1965975761413574,0.34626084566116333,0.1644601970911026,0.0,0.0,0.0,0.0,0.0,0.0,0.0,0.0,0.0,-0.018266525119543076,0.0050923642702400684,0.3268638551235199,0.0,0.0,0.0,0.0,0.0,0.0,0.0,0.0,0.0
1606826297524862599,588025,1606826297520033065,imu_link,0.0013777533313259482,0.0030486725736409426,0.019165994599461555,0.9998107552528381,0.0,0.0,0.0,0.0,0.0,0.0,0.0,0.0,0.0,2.1969051361083984,0.34626221656799316,0.1645479053258896,0.0,0.0,0.0,0.0,0.0,0.0,0.0,0.0,0.0,-0.006376572884619236,0.01740317791700363,0.3263195753097534,0.0,0.0,0.0,0.0,0.0,0.0,0.0,0.0,0.0
1606826297524904149,588026,1606826297520113992,imu_link,0.0013777533313259482,0.0030486725736409426,0.019165994599461555,0.9998107552528381,0.0,0.0,0.0,0.0,0.0,0.0,0.0,0.0,0.0,2.1969051361083984,0.34626221656799316,0.1645479053258896,0.0,0.0,0.0,0.0,0.0,0.0,0.0,0.0,0.0,-0.006376572884619236,0.01740317791700363,0.3263195753097534,0.0,0.0,0.0,0.0,0.0,0.0,0.0,0.0,0.0
1606826297525369588,588027,1606826297520230476,imu_link,0.001376646338030696,0.0030468362383544445,0.01916656643152237,0.9998107552528381,0.0,0.0,0.0,0.0,0.0,0.0,0.0,0.0,0.0,2.196969747543335,0.34605419635772705,0.16441723704338074,0.0,0.0,0.0,0.0,0.0,0.0,0.0,0.0,0.0,0.008651345036923885,0.012773285619914532,0.3389333188533783,0.0,0.0,0.0,0.0,0.0,0.0,0.0,0.0,0.0
1606826297525384733,588028,1606826297520313673,imu_link,0.001376646338030696,0.0030468362383544445,0.01916656643152237,0.9998107552528381,0.0,0.0,0.0,0.0,0.0,0.0,0.0,0.0,0.0,2.196969747543335,0.34605419635772705,0.16441723704338074,0.0,0.0,0.0,0.0,0.0,0.0,0.0,0.0,0.0,0.008651345036923885,0.012773285619914532,0.3389333188533783,0.0,0.0,0.0,0.0,0.0,0.0,0.0,0.0,0.0
1606826297525399834,588029,1606826297520393221,imu_link,0.0013753060484305024,0.003047882579267025,0.019171833992004395,0.9998105764389038,0.0,0.0,0.0,0.0,0.0,0.0,0.0,0.0,0.0,2.197573184967041,0.3461760878562927,0.16426780819892883,0.0,0.0,0.0,0.0,0.0,0.0,0.0,0.0,0.0,-0.008007837459445,0.012009359896183014,0.338350385427475,0.0,0.0,0.0,0.0,0.0,0.0,0.0,0.0,0.0
1606826297525408979,588030,1606826297520555060,imu_link,0.0013753060484305024,0.003047882579267025,0.019171833992004395,0.9998105764389038,0.0,0.0,0.0,0.0,0.0,0.0,0.0,0.0,0.0,2.197573184967041,0.3461760878562927,0.16426780819892883,0.0,0.0,0.0,0.0,0.0,0.0,0.0,0.0,0.0,-0.008007837459445,0.012009359896183014,0.338350385427475,0.0,0.0,0.0,0.0,0.0,0.0,0.0,0.0,0.0
1606826297528595639,588031,1606826297520635125,imu_link,0.001373302424326539,0.003047700971364975,0.01917199417948723,0.9998105764389038,0.0,0.0,0.0,0.0,0.0,0.0,0.0,0.0,0.0,2.1975908279418945,0.3461596369743347,0.16403791308403015,0.0,0.0,0.0,0.0,0.0,0.0,0.0,0.0,0.0,-0.022489303722977638,-0.0002727913670241833,0.32784461975097656,0.0,0.0,0.0,0.0,0.0,0.0,0.0,0.0,0.0
1606826297538159821,588032,1606826297533490360,imu_link,0.001373302424326539,0.003047700971364975,0.01917199417948723,0.9998105764389038,0.0,0.0,0.0,0.0,0.0,0.0,0.0,0.0,0.0,2.1975908279418945,0.3461596369743347,0.16403791308403015,0.0,0.0,0.0,0.0,0.0,0.0,0.0,0.0,0.0,-0.022489303722977638,-0.0002727913670241833,0.32784461975097656,0.0,0.0,0.0,0.0,0.0,0.0,0.0,0.0,0.0
1606826297540857406,588033,1606826297533631741,imu_link,0.0013742794981226325,0.0030449610203504562,0.019177109003067017,0.999810516834259,0.0,0.0,0.0,0.0,0.0,0.0,0.0,0.0,0.0,2.1981770992279053,0.34584277868270874,0.1641455888748169,0.0,0.0,0.0,0.0,0.0,0.0,0.0,0.0,0.0,-0.00737320352345705,-0.0027242384385317564,0.3245011568069458,0.0,0.0,0.0,0.0,0.0,0.0,0.0,0.0,0.0
1606826297540880446,588034,1606826297533815014,imu_link,0.0013742794981226325,0.0030449610203504562,0.019177109003067017,0.999810516834259,0.0,0.0,0.0,0.0,0.0,0.0,0.0,0.0,0.0,2.1981770992279053,0.34584277868270874,0.1641455888748169,0.0,0.0,0.0,0.0,0.0,0.0,0.0,0.0,0.0,-0.00737320352345705,-0.0027242384385317564,0.3245011568069458,0.0,0.0,0.0,0.0,0.0,0.0,0.0,0.0,0.0
1606826297540899029,588035,1606826297533894182,imu_link,0.0013736819382756948,0.003046321216970682,0.019174668937921524,0.9998105764389038,0.0,0.0,0.0,0.0,0.0,0.0,0.0,0.0,0.0,2.197897434234619,0.3460003435611725,0.16407927870750427,0.0,0.0,0.0,0.0,0.0,0.0,0.0,0.0,0.0,0.008900666609406471,0.005302424542605877,0.32641324400901794,0.0,0.0,0.0,0.0,0.0,0.0,0.0,0.0,0.0
1606826297540910071,588036,1606826297533994408,imu_link,0.0013736819382756948,0.003046321216970682,0.019174668937921524,0.9998105764389038,0.0,0.0,0.0,0.0,0.0,0.0,0.0,0.0,0.0,2.197897434234619,0.3460003435611725,0.16407927870750427,0.0,0.0,0.0,0.0,0.0,0.0,0.0,0.0,0.0,0.008900666609406471,0.005302424542605877,0.32641324400901794,0.0,0.0,0.0,0.0,0.0,0.0,0.0,0.0,0.0
1606826297540925611,588037,1606826297534071877,imu_link,0.0013724971795454621,0.003049068618565798,0.019180985167622566,0.9998104572296143,0.0,0.0,0.0,0.0,0.0,0.0,0.0,0.0,0.0,2.1986212730407715,0.3463166654109955,0.16395175457000732,0.0,0.0,0.0,0.0,0.0,0.0,0.0,0.0,0.0,-0.014202895574271679,0.0043988777324557304,0.3358609080314636,0.0,0.0,0.0,0.0,0.0,0.0,0.0,0.0,0.0
1606826297540939299,588038,1606826297534179766,imu_link,0.0013724971795454621,0.003049068618565798,0.019180985167622566,0.9998104572296143,0.0,0.0,0.0,0.0,0.0,0.0,0.0,0.0,0.0,2.1986212730407715,0.3463166654109955,0.16395175457000732,0.0,0.0,0.0,0.0,0.0,0.0,0.0,0.0,0.0,-0.014202895574271679,0.0043988777324557304,0.3358609080314636,0.0,0.0,0.0,0.0,0.0,0.0,0.0,0.0,0.0
1606826297540948790,588039,1606826297534258458,imu_link,0.0013737279223278165,0.0030473321676254272,0.01918114349246025,0.9998104572296143,0.0,0.0,0.0,0.0,0.0,0.0,0.0,0.0,0.0,2.198639392852783,0.34611499309539795,0.16408900916576385,0.0,0.0,0.0,0.0,0.0,0.0,0.0,0.0,0.0,-0.020030517131090164,0.0028984451200813055,0.3331797122955322,0.0,0.0,0.0,0.0,0.0,0.0,0.0,0.0,0.0
1606826297540959872,588040,1606826297534345674,imu_link,0.0013737279223278165,0.0030473321676254272,0.01918114349246025,0.9998104572296143,0.0,0.0,0.0,0.0,0.0,0.0,0.0,0.0,0.0,2.198639392852783,0.34611499309539795,0.16408900916576385,0.0,0.0,0.0,0.0,0.0,0.0,0.0,0.0,0.0,-0.020030517131090164,0.0028984451200813055,0.3331797122955322,0.0,0.0,0.0,0.0,0.0,0.0,0.0,0.0,0.0
1606826297540975289,588041,1606826297534430004,imu_link,0.0013737196568399668,0.00304639944806695,0.019179249182343483,0.9998104572296143,0.0,0.0,0.0,0.0,0.0,0.0,0.0,0.0,0.0,2.1984221935272217,0.34600844979286194,0.16408535838127136,0.0,0.0,0.0,0.0,0.0,0.0,0.0,0.0,0.0,-0.02152514085173607,-0.0069321985356509686,0.33583009243011475,0.0,0.0,0.0,0.0,0.0,0.0,0.0,0.0,0.0
1606826297542971032,588042,1606826297534514038,imu_link,0.0013737196568399668,0.00304639944806695,0.019179249182343483,0.9998104572296143,0.0,0.0,0.0,0.0,0.0,0.0,0.0,0.0,0.0,2.1984221935272217,0.34600844979286194,0.16408535838127136,0.0,0.0,0.0,0.0,0.0,0.0,0.0,0.0,0.0,-0.02152514085173607,-0.0069321985356509686,0.33583009243011475,0.0,0.0,0.0,0.0,0.0,0.0,0.0,0.0,0.0
1606826297553961288,588043,1606826297546980717,imu_link,0.0013727000914514065,0.0030473375227302313,0.019178438931703568,0.999810516834259,0.0,0.0,0.0,0.0,0.0,0.0,0.0,0.0,0.0,2.198329448699951,0.34611833095550537,0.16397032141685486,0.0,0.0,0.0,0.0,0.0,0.0,0.0,0.0,0.0,-0.01934109814465046,-0.005478679668158293,0.352068156003952,0.0,0.0,0.0,0.0,0.0,0.0,0.0,0.0,0.0
1606826297554003333,588044,1606826297547121792,imu_link,0.0013727000914514065,0.0030473375227302313,0.019178438931703568,0.999810516834259,0.0,0.0,0.0,0.0,0.0,0.0,0.0,0.0,0.0,2.198329448699951,0.34611833095550537,0.16397032141685486,0.0,0.0,0.0,0.0,0.0,0.0,0.0,0.0,0.0,-0.01934109814465046,-0.005478679668158293,0.352068156003952,0.0,0.0,0.0,0.0,0.0,0.0,0.0,0.0,0.0
1606826297554015792,588045,1606826297547363831,imu_link,0.0013734011445194483,0.0030448343604803085,0.019174892455339432,0.9998105764389038,0.0,0.0,0.0,0.0,0.0,0.0,0.0,0.0,0.0,2.197922706604004,0.3458305895328522,0.16404391825199127,0.0,0.0,0.0,0.0,0.0,0.0,0.0,0.0,0.0,-0.006480851210653782,0.0008320877677761018,0.3382391035556793,0.0,0.0,0.0,0.0,0.0,0.0,0.0,0.0,0.0
1606826297554024932,588046,1606826297547485146,imu_link,0.0013734011445194483,0.0030448343604803085,0.019174892455339432,0.9998105764389038,0.0,0.0,0.0,0.0,0.0,0.0,0.0,0.0,0.0,2.197922706604004,0.3458305895328522,0.16404391825199127,0.0,0.0,0.0,0.0,0.0,0.0,0.0,0.0,0.0,-0.006480851210653782,0.0008320877677761018,0.3382391035556793,0.0,0.0,0.0,0.0,0.0,0.0,0.0,0.0,0.0
1606826297554043928,588047,1606826297547559327,imu_link,0.0013744665775448084,0.003044191747903824,0.019175847992300987,0.9998105764389038,0.0,0.0,0.0,0.0,0.0,0.0,0.0,0.0,0.0,2.1980321407318115,0.3457544147968292,0.16416491568088531,0.0,0.0,0.0,0.0,0.0,0.0,0.0,0.0,0.0,-0.005616072565317154,0.008070324547588825,0.3068460524082184,0.0,0.0,0.0,0.0,0.0,0.0,0.0,0.0,0.0
1606826297555767166,588048,1606826297547646990,imu_link,0.0013744665775448084,0.003044191747903824,0.019175847992300987,0.9998105764389038,0.0,0.0,0.0,0.0,0.0,0.0,0.0,0.0,0.0,2.1980321407318115,0.3457544147968292,0.16416491568088531,0.0,0.0,0.0,0.0,0.0,0.0,0.0,0.0,0.0,-0.005616072565317154,0.008070324547588825,0.3068460524082184,0.0,0.0,0.0,0.0,0.0,0.0,0.0,0.0,0.0
1606826297555779862,588049,1606826297547747762,imu_link,0.0013746184995397925,0.0030431628692895174,0.019171876832842827,0.9998106360435486,0.0,0.0,0.0,0.0,0.0,0.0,0.0,0.0,0.0,2.1975772380828857,0.34563687443733215,0.16417866945266724,0.0,0.0,0.0,0.0,0.0,0.0,0.0,0.0,0.0,-0.0011434403713792562,0.006662849802523851,0.31043246388435364,0.0,0.0,0.0,0.0,0.0,0.0,0.0,0.0,0.0
1606826297555785780,588050,1606826297547826985,imu_link,0.0013746184995397925,0.0030431628692895174,0.019171876832842827,0.9998106360435486,0.0,0.0,0.0,0.0,0.0,0.0,0.0,0.0,0.0,2.1975772380828857,0.34563687443733215,0.16417866945266724,0.0,0.0,0.0,0.0,0.0,0.0,0.0,0.0,0.0,-0.0011434403713792562,0.006662849802523851,0.31043246388435364,0.0,0.0,0.0,0.0,0.0,0.0,0.0,0.0,0.0
1606826297555795868,588051,1606826297547909721,imu_link,0.0013736872933804989,0.0030437365639954805,0.01917216368019581,0.9998106360435486,0.0,0.0,0.0,0.0,0.0,0.0,0.0,0.0,0.0,2.1976099014282227,0.345704585313797,0.16407334804534912,0.0,0.0,0.0,0.0,0.0,0.0,0.0,0.0,0.0,-0.004241823684424162,-0.007210445124655962,0.31394118070602417,0.0,0.0,0.0,0.0,0.0,0.0,0.0,0.0,0.0
1606826297555817010,588052,1606826297547995128,imu_link,0.0013736872933804989,0.0030437365639954805,0.01917216368019581,0.9998106360435486,0.0,0.0,0.0,0.0,0.0,0.0,0.0,0.0,0.0,2.1976099014282227,0.345704585313797,0.16407334804534912,0.0,0.0,0.0,0.0,0.0,0.0,0.0,0.0,0.0,-0.004241823684424162,-0.007210445124655962,0.31394118070602417,0.0,0.0,0.0,0.0,0.0,0.0,0.0,0.0,0.0
1606826297555839007,588053,1606826297548077649,imu_link,0.0013754195533692837,0.003042739350348711,0.019169442355632782,0.9998106956481934,0.0,0.0,0.0,0.0,0.0,0.0,0.0,0.0,0.0,2.197298526763916,0.34558701515197754,0.16426867246627808,0.0,0.0,0.0,0.0,0.0,0.0,0.0,0.0,0.0,-0.005922449752688408,-0.021810591220855713,0.3011714518070221,0.0,0.0,0.0,0.0,0.0,0.0,0.0,0.0,0.0
1606826297565400994,588054,1606826297560714144,imu_link,0.0013754195533692837,0.003042739350348711,0.019169442355632782,0.9998106956481934,0.0,0.0,0.0,0.0,0.0,0.0,0.0,0.0,0.0,2.197298526763916,0.34558701515197754,0.16426867246627808,0.0,0.0,0.0,0.0,0.0,0.0,0.0,0.0,0.0,-0.005922449752688408,-0.021810591220855713,0.3011714518070221,0.0,0.0,0.0,0.0,0.0,0.0,0.0,0.0,0.0
1606826297565854241,588055,1606826297560850263,imu_link,0.0013743086019530892,0.0030444543808698654,0.019170435145497322,0.9998106360435486,0.0,0.0,0.0,0.0,0.0,0.0,0.0,0.0,0.0,2.1974120140075684,0.3457857370376587,0.16414551436901093,0.0,0.0,0.0,0.0,0.0,0.0,0.0,0.0,0.0,-0.010144863277673721,-0.012644575908780098,0.32243093848228455,0.0,0.0,0.0,0.0,0.0,0.0,0.0,0.0,0.0
1606826297565877748,588056,1606826297561022927,imu_link,0.0013743086019530892,0.0030444543808698654,0.019170435145497322,0.9998106360435486,0.0,0.0,0.0,0.0,0.0,0.0,0.0,0.0,0.0,2.1974120140075684,0.3457857370376587,0.16414551436901093,0.0,0.0,0.0,0.0,0.0,0.0,0.0,0.0,0.0,-0.010144863277673721,-0.012644575908780098,0.32243093848228455,0.0,0.0,0.0,0.0,0.0,0.0,0.0,0.0,0.0
1606826297565897325,588057,1606826297561110108,imu_link,0.0013757217675447464,0.0030453712679445744,0.019168583676218987,0.9998106956481934,0.0,0.0,0.0,0.0,0.0,0.0,0.0,0.0,0.0,2.1972005367279053,0.34588801860809326,0.1643088012933731,0.0,0.0,0.0,0.0,0.0,0.0,0.0,0.0,0.0,-0.01072219293564558,0.001838300726376474,0.3236190676689148,0.0,0.0,0.0,0.0,0.0,0.0,0.0,0.0,0.0
1606826297565913968,588058,1606826297561182741,imu_link,0.0013757217675447464,0.0030453712679445744,0.019168583676218987,0.9998106956481934,0.0,0.0,0.0,0.0,0.0,0.0,0.0,0.0,0.0,2.1972005367279053,0.34588801860809326,0.1643088012933731,0.0,0.0,0.0,0.0,0.0,0.0,0.0,0.0,0.0,-0.01072219293564558,0.001838300726376474,0.3236190676689148,0.0,0.0,0.0,0.0,0.0,0.0,0.0,0.0,0.0
1606826297567889420,588059,1606826297561275094,imu_link,0.0013749427162110806,0.0030473421793431044,0.019169213250279427,0.9998106956481934,0.0,0.0,0.0,0.0,0.0,0.0,0.0,0.0,0.0,2.197272539138794,0.3461154103279114,0.1642240732908249,0.0,0.0,0.0,0.0,0.0,0.0,0.0,0.0,0.0,-0.008469299413263798,-0.01076734159141779,0.30549705028533936,0.0,0.0,0.0,0.0,0.0,0.0,0.0,0.0,0.0
1606826297567905233,588060,1606826297561384356,imu_link,0.0013749427162110806,0.0030473421793431044,0.019169213250279427,0.9998106956481934,0.0,0.0,0.0,0.0,0.0,0.0,0.0,0.0,0.0,2.197272539138794,0.3461154103279114,0.1642240732908249,0.0,0.0,0.0,0.0,0.0,0.0,0.0,0.0,0.0,-0.008469299413263798,-0.01076734159141779,0.30549705028533936,0.0,0.0,0.0,0.0,0.0,0.0,0.0,0.0,0.0
1606826297567913564,588061,1606826297561505676,imu_link,0.001377742737531662,0.003046210389584303,0.019166432321071625,0.9998106956481934,0.0,0.0,0.0,0.0,0.0,0.0,0.0,0.0,0.0,2.1969547271728516,0.34598004817962646,0.16454145312309265,0.0,0.0,0.0,0.0,0.0,0.0,0.0,0.0,0.0,-0.0012642478104680777,-0.010592194274067879,0.30660921335220337,0.0,0.0,0.0,0.0,0.0,0.0,0.0,0.0,0.0
1606826297567923165,588062,1606826297561618877,imu_link,0.001377742737531662,0.003046210389584303,0.019166432321071625,0.9998106956481934,0.0,0.0,0.0,0.0,0.0,0.0,0.0,0.0,0.0,2.1969547271728516,0.34598004817962646,0.16454145312309265,0.0,0.0,0.0,0.0,0.0,0.0,0.0,0.0,0.0,-0.0012642478104680777,-0.010592194274067879,0.30660921335220337,0.0,0.0,0.0,0.0,0.0,0.0,0.0,0.0,0.0
1606826297567937357,588063,1606826297561693685,imu_link,0.0013762165326625109,0.003045360092073679,0.019167229533195496,0.9998106956481934,0.0,0.0,0.0,0.0,0.0,0.0,0.0,0.0,0.0,2.1970455646514893,0.34588584303855896,0.1643649786710739,0.0,0.0,0.0,0.0,0.0,0.0,0.0,0.0,0.0,0.0001678540138527751,0.004338108003139496,0.3189062774181366,0.0,0.0,0.0,0.0,0.0,0.0,0.0,0.0,0.0
1606826297567950227,588064,1606826297561782745,imu_link,0.0013762165326625109,0.003045360092073679,0.019167229533195496,0.9998106956481934,0.0,0.0,0.0,0.0,0.0,0.0,0.0,0.0,0.0,2.1970455646514893,0.34588584303855896,0.1643649786710739,0.0,0.0,0.0,0.0,0.0,0.0,0.0,0.0,0.0,0.0001678540138527751,0.004338108003139496,0.3189062774181366,0.0,0.0,0.0,0.0,0.0,0.0,0.0,0.0,0.0
1606826297578300269,588065,1606826297573619070,imu_link,0.0013753888197243214,0.003043675096705556,0.019162409007549286,0.9998108148574829,0.0,0.0,0.0,0.0,0.0,0.0,0.0,0.0,0.0,2.1964924335479736,0.345695436000824,0.16426478326320648,0.0,0.0,0.0,0.0,0.0,0.0,0.0,0.0,0.0,0.0021517002023756504,0.0061254967004060745,0.30789414048194885,0.0,0.0,0.0,0.0,0.0,0.0,0.0,0.0,0.0
1606826297580146280,588066,1606826297573770083,imu_link,0.0013753888197243214,0.003043675096705556,0.019162409007549286,0.9998108148574829,0.0,0.0,0.0,0.0,0.0,0.0,0.0,0.0,0.0,2.1964924335479736,0.345695436000824,0.16426478326320648,0.0,0.0,0.0,0.0,0.0,0.0,0.0,0.0,0.0,0.0021517002023756504,0.0061254967004060745,0.30789414048194885,0.0,0.0,0.0,0.0,0.0,0.0,0.0,0.0,0.0
1606826297580173174,588067,1606826297573907861,imu_link,0.001374949119053781,0.003045528894290328,0.01916358806192875,0.9998107552528381,0.0,0.0,0.0,0.0,0.0,0.0,0.0,0.0,0.0,2.1966278553009033,0.34590858221054077,0.16421890258789062,0.0,0.0,0.0,0.0,0.0,0.0,0.0,0.0,0.0,0.0037258341908454895,0.005059426184743643,0.3041090965270996,0.0,0.0,0.0,0.0,0.0,0.0,0.0,0.0,0.0
1606826297580184465,588068,1606826297573987029,imu_link,0.001374949119053781,0.003045528894290328,0.01916358806192875,0.9998107552528381,0.0,0.0,0.0,0.0,0.0,0.0,0.0,0.0,0.0,2.1966278553009033,0.34590858221054077,0.16421890258789062,0.0,0.0,0.0,0.0,0.0,0.0,0.0,0.0,0.0,0.0037258341908454895,0.005059426184743643,0.3041090965270996,0.0,0.0,0.0,0.0,0.0,0.0,0.0,0.0,0.0
1606826297580197869,588069,1606826297574069349,imu_link,0.0013731555081903934,0.003046696772798896,0.01915784552693367,0.9998108744621277,0.0,0.0,0.0,0.0,0.0,0.0,0.0,0.0,0.0,2.1959691047668457,0.3460472822189331,0.16401398181915283,0.0,0.0,0.0,0.0,0.0,0.0,0.0,0.0,0.0,0.0057175131514668465,0.015928827226161957,0.34903770685195923,0.0,0.0,0.0,0.0,0.0,0.0,0.0,0.0,0.0
1606826297580227344,588070,1606826297574193566,imu_link,0.0013731555081903934,0.003046696772798896,0.01915784552693367,0.9998108744621277,0.0,0.0,0.0,0.0,0.0,0.0,0.0,0.0,0.0,2.1959691047668457,0.3460472822189331,0.16401398181915283,0.0,0.0,0.0,0.0,0.0,0.0,0.0,0.0,0.0,0.0057175131514668465,0.015928827226161957,0.34903770685195923,0.0,0.0,0.0,0.0,0.0,0.0,0.0,0.0,0.0
1606826297580237116,588071,1606826297574280321,imu_link,0.001374414307065308,0.0030462678987532854,0.019157638773322105,0.9998108744621277,0.0,0.0,0.0,0.0,0.0,0.0,0.0,0.0,0.0,2.1959457397460938,0.34599539637565613,0.1641571819782257,0.0,0.0,0.0,0.0,0.0,0.0,0.0,0.0,0.0,-0.005721898749470711,0.019187968224287033,0.33244314789772034,0.0,0.0,0.0,0.0,0.0,0.0,0.0,0.0,0.0
1606826297580246858,588072,1606826297574357319,imu_link,0.001374414307065308,0.0030462678987532854,0.019157638773322105,0.9998108744621277,0.0,0.0,0.0,0.0,0.0,0.0,0.0,0.0,0.0,2.1959457397460938,0.34599539637565613,0.1641571819782257,0.0,0.0,0.0,0.0,0.0,0.0,0.0,0.0,0.0,-0.005721898749470711,0.019187968224287033,0.33244314789772034,0.0,0.0,0.0,0.0,0.0,0.0,0.0,0.0,0.0
1606826297580258031,588073,1606826297574440736,imu_link,0.0013733275700360537,0.00304477964527905,0.019163213670253754,0.9998108148574829,0.0,0.0,0.0,0.0,0.0,0.0,0.0,0.0,0.0,2.1965839862823486,0.3458263874053955,0.16403131186962128,0.0,0.0,0.0,0.0,0.0,0.0,0.0,0.0,0.0,-0.004134657792747021,0.006729865446686745,0.3114013075828552,0.0,0.0,0.0,0.0,0.0,0.0,0.0,0.0,0.0
1606826297580273263,588074,1606826297574517233,imu_link,0.0013733275700360537,0.00304477964527905,0.019163213670253754,0.9998108148574829,0.0,0.0,0.0,0.0,0.0,0.0,0.0,0.0,0.0,2.1965839862823486,0.3458263874053955,0.16403131186962128,0.0,0.0,0.0,0.0,0.0,0.0,0.0,0.0,0.0,-0.004134657792747021,0.006729865446686745,0.3114013075828552,0.0,0.0,0.0,0.0,0.0,0.0,0.0,0.0,0.0
1606826297582567696,588075,1606826297574598801,imu_link,0.0013750640209764242,0.0030459766276180744,0.01916179247200489,0.9998108148574829,0.0,0.0,0.0,0.0,0.0,0.0,0.0,0.0,0.0,2.1964221000671387,0.34595993161201477,0.16423240303993225,0.0,0.0,0.0,0.0,0.0,0.0,0.0,0.0,0.0,0.020605167374014854,-0.0006633005104959011,0.3409886062145233,0.0,0.0,0.0,0.0,0.0,0.0,0.0,0.0,0.0
1606826297591817360,588076,1606826297587139205,imu_link,0.0013750640209764242,0.0030459766276180744,0.01916179247200489,0.9998108148574829,0.0,0.0,0.0,0.0,0.0,0.0,0.0,0.0,0.0,2.1964221000671387,0.34595993161201477,0.16423240303993225,0.0,0.0,0.0,0.0,0.0,0.0,0.0,0.0,0.0,0.020605167374014854,-0.0006633005104959011,0.3409886062145233,0.0,0.0,0.0,0.0,0.0,0.0,0.0,0.0,0.0
1606826297592883070,588077,1606826297587276462,imu_link,0.0013744443422183394,0.00304960529319942,0.01916787400841713,0.9998106956481934,0.0,0.0,0.0,0.0,0.0,0.0,0.0,0.0,0.0,2.1971192359924316,0.3463760316371918,0.164171501994133,0.0,0.0,0.0,0.0,0.0,0.0,0.0,0.0,0.0,0.015351309441030025,-0.004794353619217873,0.3365837335586548,0.0,0.0,0.0,0.0,0.0,0.0,0.0,0.0,0.0
1606826297592946209,588078,1606826297587505019,imu_link,0.0013744443422183394,0.00304960529319942,0.01916787400841713,0.9998106956481934,0.0,0.0,0.0,0.0,0.0,0.0,0.0,0.0,0.0,2.1971192359924316,0.3463760316371918,0.164171501994133,0.0,0.0,0.0,0.0,0.0,0.0,0.0,0.0,0.0,0.015351309441030025,-0.004794353619217873,0.3365837335586548,0.0,0.0,0.0,0.0,0.0,0.0,0.0,0.0,0.0
1606826297592960745,588079,1606826297587602875,imu_link,0.0013738261768594384,0.003046484896913171,0.019166314974427223,0.9998107552528381,0.0,0.0,0.0,0.0,0.0,0.0,0.0,0.0,0.0,2.1969399452209473,0.3460201323032379,0.1640932559967041,0.0,0.0,0.0,0.0,0.0,0.0,0.0,0.0,0.0,0.006036803591996431,-0.014560006558895111,0.3176349997520447,0.0,0.0,0.0,0.0,0.0,0.0,0.0,0.0,0.0
1606826297592974155,588080,1606826297587681231,imu_link,0.0013738261768594384,0.003046484896913171,0.019166314974427223,0.9998107552528381,0.0,0.0,0.0,0.0,0.0,0.0,0.0,0.0,0.0,2.1969399452209473,0.3460201323032379,0.1640932559967041,0.0,0.0,0.0,0.0,0.0,0.0,0.0,0.0,0.0,0.006036803591996431,-0.014560006558895111,0.3176349997520447,0.0,0.0,0.0,0.0,0.0,0.0,0.0,0.0,0.0
1606826297592983422,588081,1606826297587783597,imu_link,0.0013746938202530146,0.0030463694129139185,0.01916961744427681,0.9998106956481934,0.0,0.0,0.0,0.0,0.0,0.0,0.0,0.0,0.0,2.1973187923431396,0.3460044860839844,0.16419357061386108,0.0,0.0,0.0,0.0,0.0,0.0,0.0,0.0,0.0,-0.010950162075459957,-0.007528785150498152,0.30046403408050537,0.0,0.0,0.0,0.0,0.0,0.0,0.0,0.0,0.0
1606826297592991535,588082,1606826297587868067,imu_link,0.0013746938202530146,0.0030463694129139185,0.01916961744427681,0.9998106956481934,0.0,0.0,0.0,0.0,0.0,0.0,0.0,0.0,0.0,2.1973187923431396,0.3460044860839844,0.16419357061386108,0.0,0.0,0.0,0.0,0.0,0.0,0.0,0.0,0.0,-0.010950162075459957,-0.007528785150498152,0.30046403408050537,0.0,0.0,0.0,0.0,0.0,0.0,0.0,0.0,0.0
1606826297593005739,588083,1606826297587945751,imu_link,0.001375283463858068,0.00304874568246305,0.019169164821505547,0.9998106956481934,0.0,0.0,0.0,0.0,0.0,0.0,0.0,0.0,0.0,2.197267532348633,0.3462755084037781,0.1642661839723587,0.0,0.0,0.0,0.0,0.0,0.0,0.0,0.0,0.0,-0.01267228927463293,0.012662604451179504,0.2946944832801819,0.0,0.0,0.0,0.0,0.0,0.0,0.0,0.0,0.0
1606826297593017186,588084,1606826297588022899,imu_link,0.001375283463858068,0.00304874568246305,0.019169164821505547,0.9998106956481934,0.0,0.0,0.0,0.0,0.0,0.0,0.0,0.0,0.0,2.197267532348633,0.3462755084037781,0.1642661839723587,0.0,0.0,0.0,0.0,0.0,0.0,0.0,0.0,0.0,-0.01267228927463293,0.012662604451179504,0.2946944832801819,0.0,0.0,0.0,0.0,0.0,0.0,0.0,0.0,0.0
1606826297593954317,588085,1606826297588100584,imu_link,0.0013726920587942004,0.003046372439712286,0.01917058788239956,0.9998106956481934,0.0,0.0,0.0,0.0,0.0,0.0,0.0,0.0,0.0,2.1974291801452637,0.3460090756416321,0.16396456956863403,0.0,0.0,0.0,0.0,0.0,0.0,0.0,0.0,0.0,-0.0016424476634711027,0.009526439942419529,0.3164820671081543,0.0,0.0,0.0,0.0,0.0,0.0,0.0,0.0,0.0
1606826297621076212,588086,1606826297601010245,imu_link,0.0013726920587942004,0.003046372439712286,0.01917058788239956,0.9998106956481934,0.0,0.0,0.0,0.0,0.0,0.0,0.0,0.0,0.0,2.1974291801452637,0.3460090756416321,0.16396456956863403,0.0,0.0,0.0,0.0,0.0,0.0,0.0,0.0,0.0,-0.0016424476634711027,0.009526439942419529,0.3164820671081543,0.0,0.0,0.0,0.0,0.0,0.0,0.0,0.0,0.0
1606826297621106613,588087,1606826297601144906,imu_link,0.0013726024189963937,0.0030457209795713425,0.019170178100466728,0.9998106956481934,0.0,0.0,0.0,0.0,0.0,0.0,0.0,0.0,0.0,2.1973822116851807,0.3459346890449524,0.16395272314548492,0.0,0.0,0.0,0.0,0.0,0.0,0.0,0.0,0.0,-0.007806023582816124,-0.0005120706046000123,0.33279889822006226,0.0,0.0,0.0,0.0,0.0,0.0,0.0,0.0,0.0
1606826297621123367,588088,1606826297601327277,imu_link,0.0013726024189963937,0.0030457209795713425,0.019170178100466728,0.9998106956481934,0.0,0.0,0.0,0.0,0.0,0.0,0.0,0.0,0.0,2.1973822116851807,0.3459346890449524,0.16395272314548492,0.0,0.0,0.0,0.0,0.0,0.0,0.0,0.0,0.0,-0.007806023582816124,-0.0005120706046000123,0.33279889822006226,0.0,0.0,0.0,0.0,0.0,0.0,0.0,0.0,0.0
1606826297621135356,588089,1606826297601405432,imu_link,0.0013728310586884618,0.003044908633455634,0.019170155748724937,0.9998106956481934,0.0,0.0,0.0,0.0,0.0,0.0,0.0,0.0,0.0,2.1973798274993896,0.34584110975265503,0.16397711634635925,0.0,0.0,0.0,0.0,0.0,0.0,0.0,0.0,0.0,-0.016289986670017242,0.002597736194729805,0.3384447395801544,0.0,0.0,0.0,0.0,0.0,0.0,0.0,0.0,0.0
1606826297621154035,588090,1606826297601485903,imu_link,0.0013728310586884618,0.003044908633455634,0.019170155748724937,0.9998106956481934,0.0,0.0,0.0,0.0,0.0,0.0,0.0,0.0,0.0,2.1973798274993896,0.34584110975265503,0.16397711634635925,0.0,0.0,0.0,0.0,0.0,0.0,0.0,0.0,0.0,-0.016289986670017242,0.002597736194729805,0.3384447395801544,0.0,0.0,0.0,0.0,0.0,0.0,0.0,0.0,0.0
1606826297621162623,588091,1606826297601580962,imu_link,0.0013717690017074347,0.0030413654167205095,0.019169054925441742,0.9998107552528381,0.0,0.0,0.0,0.0,0.0,0.0,0.0,0.0,0.0,2.1972522735595703,0.3454376757144928,0.16384728252887726,0.0,0.0,0.0,0.0,0.0,0.0,0.0,0.0,0.0,-0.02394064888358116,-0.0009792497148737311,0.332815557718277,0.0,0.0,0.0,0.0,0.0,0.0,0.0,0.0,0.0
1606826297621176910,588092,1606826297601690655,imu_link,0.0013717690017074347,0.0030413654167205095,0.019169054925441742,0.9998107552528381,0.0,0.0,0.0,0.0,0.0,0.0,0.0,0.0,0.0,2.1972522735595703,0.3454376757144928,0.16384728252887726,0.0,0.0,0.0,0.0,0.0,0.0,0.0,0.0,0.0,-0.02394064888358116,-0.0009792497148737311,0.332815557718277,0.0,0.0,0.0,0.0,0.0,0.0,0.0,0.0,0.0
1606826297621186161,588093,1606826297601764807,imu_link,0.001373079838231206,0.0030386277940124273,0.019169697538018227,0.9998107552528381,0.0,0.0,0.0,0.0,0.0,0.0,0.0,0.0,0.0,2.1973257064819336,0.34512102603912354,0.16399164497852325,0.0,0.0,0.0,0.0,0.0,0.0,0.0,0.0,0.0,-0.02659313753247261,-0.002631558571010828,0.32351449131965637,0.0,0.0,0.0,0.0,0.0,0.0,0.0,0.0,0.0
1606826297621198080,588094,1606826297601850359,imu_link,0.001373079838231206,0.0030386277940124273,0.019169697538018227,0.9998107552528381,0.0,0.0,0.0,0.0,0.0,0.0,0.0,0.0,0.0,2.1973257064819336,0.34512102603912354,0.16399164497852325,0.0,0.0,0.0,0.0,0.0,0.0,0.0,0.0,0.0,-0.02659313753247261,-0.002631558571010828,0.32351449131965637,0.0,0.0,0.0,0.0,0.0,0.0,0.0,0.0,0.0
1606826297621241027,588095,1606826297601933997,imu_link,0.0013721717987209558,0.003037784481421113,0.019170129671692848,0.9998107552528381,0.0,0.0,0.0,0.0,0.0,0.0,0.0,0.0,0.0,2.1973750591278076,0.3450263440608978,0.16388589143753052,0.0,0.0,0.0,0.0,0.0,0.0,0.0,0.0,0.0,-0.022709425538778305,0.0022087604738771915,0.33308103680610657,0.0,0.0,0.0,0.0,0.0,0.0,0.0,0.0,0.0
1606826297621309684,588096,1606826297602007041,imu_link,0.0013721717987209558,0.003037784481421113,0.019170129671692848,0.9998107552528381,0.0,0.0,0.0,0.0,0.0,0.0,0.0,0.0,0.0,2.1973750591278076,0.3450263440608978,0.16388589143753052,0.0,0.0,0.0,0.0,0.0,0.0,0.0,0.0,0.0,-0.022709425538778305,0.0022087604738771915,0.33308103680610657,0.0,0.0,0.0,0.0,0.0,0.0,0.0,0.0,0.0
1606826297621326828,588097,1606826297614425373,imu_link,0.0013720543356612325,0.003033240558579564,0.01916477642953396,0.9998107552528381,0.0,0.0,0.0,0.0,0.0,0.0,0.0,0.0,0.0,2.196760654449463,0.3445068597793579,0.16386066377162933,0.0,0.0,0.0,0.0,0.0,0.0,0.0,0.0,0.0,-0.010400304570794106,-0.0018564378842711449,0.3430594801902771,0.0,0.0,0.0,0.0,0.0,0.0,0.0,0.0,0.0
1606826297621382371,588098,1606826297614562494,imu_link,0.0013720543356612325,0.003033240558579564,0.01916477642953396,0.9998107552528381,0.0,0.0,0.0,0.0,0.0,0.0,0.0,0.0,0.0,2.196760654449463,0.3445068597793579,0.16386066377162933,0.0,0.0,0.0,0.0,0.0,0.0,0.0,0.0,0.0,-0.010400304570794106,-0.0018564378842711449,0.3430594801902771,0.0,0.0,0.0,0.0,0.0,0.0,0.0,0.0,0.0
1606826297621391235,588099,1606826297614740545,imu_link,0.001372932456433773,0.0030340165831148624,0.019165556877851486,0.9998108148574829,0.0,0.0,0.0,0.0,0.0,0.0,0.0,0.0,0.0,2.196850299835205,0.34459373354911804,0.1639631986618042,0.0,0.0,0.0,0.0,0.0,0.0,0.0,0.0,0.0,-0.007719056215137243,0.006998968310654163,0.3308468461036682,0.0,0.0,0.0,0.0,0.0,0.0,0.0,0.0,0.0
1606826297621763261,588100,1606826297614835765,imu_link,0.001372932456433773,0.0030340165831148624,0.019165556877851486,0.9998108148574829,0.0,0.0,0.0,0.0,0.0,0.0,0.0,0.0,0.0,2.196850299835205,0.34459373354911804,0.1639631986618042,0.0,0.0,0.0,0.0,0.0,0.0,0.0,0.0,0.0,-0.007719056215137243,0.006998968310654163,0.3308468461036682,0.0,0.0,0.0,0.0,0.0,0.0,0.0,0.0,0.0
1606826297621776641,588101,1606826297614923743,imu_link,0.0013727220939472318,0.00303644104860723,0.019162872806191444,0.9998108148574829,0.0,0.0,0.0,0.0,0.0,0.0,0.0,0.0,0.0,2.1965434551239014,0.3448724150657654,0.16394349932670593,0.0,0.0,0.0,0.0,0.0,0.0,0.0,0.0,0.0,-0.0057614585384726524,0.020232245326042175,0.30329418182373047,0.0,0.0,0.0,0.0,0.0,0.0,0.0,0.0,0.0
1606826297621789649,588102,1606826297615004490,imu_link,0.0013727220939472318,0.00303644104860723,0.019162872806191444,0.9998108148574829,0.0,0.0,0.0,0.0,0.0,0.0,0.0,0.0,0.0,2.1965434551239014,0.3448724150657654,0.16394349932670593,0.0,0.0,0.0,0.0,0.0,0.0,0.0,0.0,0.0,-0.0057614585384726524,0.020232245326042175,0.30329418182373047,0.0,0.0,0.0,0.0,0.0,0.0,0.0,0.0,0.0
1606826297621797915,588103,1606826297615132595,imu_link,0.0013718681875616312,0.003034410532563925,0.019161757081747055,0.9998108744621277,0.0,0.0,0.0,0.0,0.0,0.0,0.0,0.0,0.0,2.1964144706726074,0.3446418046951294,0.16384084522724152,0.0,0.0,0.0,0.0,0.0,0.0,0.0,0.0,0.0,0.005936152301728725,0.025712857022881508,0.29665783047676086,0.0,0.0,0.0,0.0,0.0,0.0,0.0,0.0,0.0
1606826297627272990,588104,1606826297615220122,imu_link,0.0013718681875616312,0.003034410532563925,0.019161757081747055,0.9998108744621277,0.0,0.0,0.0,0.0,0.0,0.0,0.0,0.0,0.0,2.1964144706726074,0.3446418046951294,0.16384084522724152,0.0,0.0,0.0,0.0,0.0,0.0,0.0,0.0,0.0,0.005936152301728725,0.025712857022881508,0.29665783047676086,0.0,0.0,0.0,0.0,0.0,0.0,0.0,0.0,0.0
1606826297627298752,588105,1606826297615335519,imu_link,0.0013692734064534307,0.003034452209249139,0.019154155626893044,0.9998109936714172,0.0,0.0,0.0,0.0,0.0,0.0,0.0,0.0,0.0,2.195542573928833,0.34465354681015015,0.1635410338640213,0.0,0.0,0.0,0.0,0.0,0.0,0.0,0.0,0.0,-0.011801102198660374,0.017736298963427544,0.3188427984714508,0.0,0.0,0.0,0.0,0.0,0.0,0.0,0.0,0.0
1606826297627308377,588106,1606826297615423171,imu_link,0.0013692734064534307,0.003034452209249139,0.019154155626893044,0.9998109936714172,0.0,0.0,0.0,0.0,0.0,0.0,0.0,0.0,0.0,2.195542573928833,0.34465354681015015,0.1635410338640213,0.0,0.0,0.0,0.0,0.0,0.0,0.0,0.0,0.0,-0.011801102198660374,0.017736298963427544,0.3188427984714508,0.0,0.0,0.0,0.0,0.0,0.0,0.0,0.0,0.0
1606826297627322943,588107,1606826297615505646,imu_link,0.0013708978658542037,0.0030340091325342655,0.019152473658323288,0.999811053276062,0.0,0.0,0.0,0.0,0.0,0.0,0.0,0.0,0.0,2.195350408554077,0.34459948539733887,0.1637255847454071,0.0,0.0,0.0,0.0,0.0,0.0,0.0,0.0,0.0,-0.025169074535369873,0.0020162384025752544,0.339792400598526,0.0,0.0,0.0,0.0,0.0,0.0,0.0,0.0,0.0
1606826297632672045,588108,1606826297628169531,imu_link,0.0013708978658542037,0.0030340091325342655,0.019152473658323288,0.999811053276062,0.0,0.0,0.0,0.0,0.0,0.0,0.0,0.0,0.0,2.195350408554077,0.34459948539733887,0.1637255847454071,0.0,0.0,0.0,0.0,0.0,0.0,0.0,0.0,0.0,-0.025169074535369873,0.0020162384025752544,0.339792400598526,0.0,0.0,0.0,0.0,0.0,0.0,0.0,0.0,0.0
1606826297633980695,588109,1606826297628283809,imu_link,0.0013696188107132912,0.003031374653801322,0.019144201651215553,0.9998112320899963,0.0,0.0,0.0,0.0,0.0,0.0,0.0,0.0,0.0,2.194401264190674,0.34430181980133057,0.16357040405273438,0.0,0.0,0.0,0.0,0.0,0.0,0.0,0.0,0.0,-0.005196182988584042,-0.0052640400826931,0.34672361612319946,0.0,0.0,0.0,0.0,0.0,0.0,0.0,0.0,0.0
1606826297634005362,588110,1606826297628451196,imu_link,0.0013696188107132912,0.003031374653801322,0.019144201651215553,0.9998112320899963,0.0,0.0,0.0,0.0,0.0,0.0,0.0,0.0,0.0,2.194401264190674,0.34430181980133057,0.16357040405273438,0.0,0.0,0.0,0.0,0.0,0.0,0.0,0.0,0.0,-0.005196182988584042,-0.0052640400826931,0.34672361612319946,0.0,0.0,0.0,0.0,0.0,0.0,0.0,0.0,0.0
1606826297634019126,588111,1606826297628527737,imu_link,0.0013693327782675624,0.003032651264220476,0.019144676625728607,0.9998111724853516,0.0,0.0,0.0,0.0,0.0,0.0,0.0,0.0,0.0,2.194455862045288,0.34444859623908997,0.16354061663150787,0.0,0.0,0.0,0.0,0.0,0.0,0.0,0.0,0.0,-0.00739169679582119,-0.013506567105650902,0.34840384125709534,0.0,0.0,0.0,0.0,0.0,0.0,0.0,0.0,0.0
1606826297634043798,588112,1606826297628604545,imu_link,0.0013693327782675624,0.003032651264220476,0.019144676625728607,0.9998111724853516,0.0,0.0,0.0,0.0,0.0,0.0,0.0,0.0,0.0,2.194455862045288,0.34444859623908997,0.16354061663150787,0.0,0.0,0.0,0.0,0.0,0.0,0.0,0.0,0.0,-0.00739169679582119,-0.013506567105650902,0.34840384125709534,0.0,0.0,0.0,0.0,0.0,0.0,0.0,0.0,0.0
1606826297634054448,588113,1606826297628711060,imu_link,0.0013725898461416364,0.0030336310155689716,0.01914236694574356,0.9998112320899963,0.0,0.0,0.0,0.0,0.0,0.0,0.0,0.0,0.0,2.19419264793396,0.34455406665802,0.16391511261463165,0.0,0.0,0.0,0.0,0.0,0.0,0.0,0.0,0.0,-0.0100729214027524,0.0021926560439169407,0.32331031560897827,0.0,0.0,0.0,0.0,0.0,0.0,0.0,0.0,0.0
1606826297634083041,588114,1606826297628798723,imu_link,0.0013725898461416364,0.0030336310155689716,0.01914236694574356,0.9998112320899963,0.0,0.0,0.0,0.0,0.0,0.0,0.0,0.0,0.0,2.19419264793396,0.34455406665802,0.16391511261463165,0.0,0.0,0.0,0.0,0.0,0.0,0.0,0.0,0.0,-0.0100729214027524,0.0021926560439169407,0.32331031560897827,0.0,0.0,0.0,0.0,0.0,0.0,0.0,0.0,0.0
1606826297634119205,588115,1606826297628878081,imu_link,0.0013723280280828476,0.003032909007743001,0.019143134355545044,0.9998112320899963,0.0,0.0,0.0,0.0,0.0,0.0,0.0,0.0,0.0,2.1942803859710693,0.34447181224823,0.16388380527496338,0.0,0.0,0.0,0.0,0.0,0.0,0.0,0.0,0.0,0.0039058926049619913,0.018834849819540977,0.2970343232154846,0.0,0.0,0.0,0.0,0.0,0.0,0.0,0.0,0.0
1606826297634132235,588116,1606826297628968034,imu_link,0.0013723280280828476,0.003032909007743001,0.019143134355545044,0.9998112320899963,0.0,0.0,0.0,0.0,0.0,0.0,0.0,0.0,0.0,2.1942803859710693,0.34447181224823,0.16388380527496338,0.0,0.0,0.0,0.0,0.0,0.0,0.0,0.0,0.0,0.0039058926049619913,0.018834849819540977,0.2970343232154846,0.0,0.0,0.0,0.0,0.0,0.0,0.0,0.0,0.0
1606826297634219511,588117,1606826297629050604,imu_link,0.0013690651394426823,0.003035117406398058,0.019141625612974167,0.9998112916946411,0.0,0.0,0.0,0.0,0.0,0.0,0.0,0.0,0.0,2.1941065788269043,0.34473228454589844,0.16351428627967834,0.0,0.0,0.0,0.0,0.0,0.0,0.0,0.0,0.0,0.005380617454648018,0.010206782259047031,0.32306477427482605,0.0,0.0,0.0,0.0,0.0,0.0,0.0,0.0,0.0
1606826297634982747,588118,1606826297629129566,imu_link,0.0013690651394426823,0.003035117406398058,0.019141625612974167,0.9998112916946411,0.0,0.0,0.0,0.0,0.0,0.0,0.0,0.0,0.0,2.1941065788269043,0.34473228454589844,0.16351428627967834,0.0,0.0,0.0,0.0,0.0,0.0,0.0,0.0,0.0,0.005380617454648018,0.010206782259047031,0.32306477427482605,0.0,0.0,0.0,0.0,0.0,0.0,0.0,0.0,0.0
1606826297645855553,588119,1606826297641170788,imu_link,0.001368382596410811,0.0030327250715345144,0.019140632823109627,0.9998112916946411,0.0,0.0,0.0,0.0,0.0,0.0,0.0,0.0,0.0,2.1939921379089355,0.34445980191230774,0.16343049705028534,0.0,0.0,0.0,0.0,0.0,0.0,0.0,0.0,0.0,-0.0026375865563750267,0.005383339244872332,0.34372833371162415,0.0,0.0,0.0,0.0,0.0,0.0,0.0,0.0,0.0
1606826297678449873,588120,1606826297641313262,imu_link,0.001368382596410811,0.0030327250715345144,0.019140632823109627,0.9998112916946411,0.0,0.0,0.0,0.0,0.0,0.0,0.0,0.0,0.0,2.1939921379089355,0.34445980191230774,0.16343049705028534,0.0,0.0,0.0,0.0,0.0,0.0,0.0,0.0,0.0,-0.0026375865563750267,0.005383339244872332,0.34372833371162415,0.0,0.0,0.0,0.0,0.0,0.0,0.0,0.0,0.0
1606826297678475649,588121,1606826297641493398,imu_link,0.001367171062156558,0.003031748114153743,0.01914256438612938,0.9998112916946411,0.0,0.0,0.0,0.0,0.0,0.0,0.0,0.0,0.0,2.1942129135131836,0.34435027837753296,0.16329021751880646,0.0,0.0,0.0,0.0,0.0,0.0,0.0,0.0,0.0,-0.0031850736122578382,0.004456609953194857,0.31181037425994873,0.0,0.0,0.0,0.0,0.0,0.0,0.0,0.0,0.0
1606826297678514304,588122,1606826297641575272,imu_link,0.001367171062156558,0.003031748114153743,0.01914256438612938,0.9998112916946411,0.0,0.0,0.0,0.0,0.0,0.0,0.0,0.0,0.0,2.1942129135131836,0.34435027837753296,0.16329021751880646,0.0,0.0,0.0,0.0,0.0,0.0,0.0,0.0,0.0,-0.0031850736122578382,0.004456609953194857,0.31181037425994873,0.0,0.0,0.0,0.0,0.0,0.0,0.0,0.0,0.0
1606826297678527990,588123,1606826297641649448,imu_link,0.0013678835239261389,0.0030330109875649214,0.019142236560583115,0.9998112916946411,0.0,0.0,0.0,0.0,0.0,0.0,0.0,0.0,0.0,2.1941757202148438,0.34449341893196106,0.16337449848651886,0.0,0.0,0.0,0.0,0.0,0.0,0.0,0.0,0.0,0.015814412385225296,-0.0005414829938672483,0.29269805550575256,0.0,0.0,0.0,0.0,0.0,0.0,0.0,0.0,0.0
1606826297678545207,588124,1606826297641763641,imu_link,0.0013678835239261389,0.0030330109875649214,0.019142236560583115,0.9998112916946411,0.0,0.0,0.0,0.0,0.0,0.0,0.0,0.0,0.0,2.1941757202148438,0.34449341893196106,0.16337449848651886,0.0,0.0,0.0,0.0,0.0,0.0,0.0,0.0,0.0,0.015814412385225296,-0.0005414829938672483,0.29269805550575256,0.0,0.0,0.0,0.0,0.0,0.0,0.0,0.0,0.0
1606826297678597587,588125,1606826297641845896,imu_link,0.001369340461678803,0.0030342747922986746,0.019144929945468903,0.9998112320899963,0.0,0.0,0.0,0.0,0.0,0.0,0.0,0.0,0.0,2.1944851875305176,0.3446345627307892,0.1635451316833496,0.0,0.0,0.0,0.0,0.0,0.0,0.0,0.0,0.0,0.017799634486436844,-0.0053139133378863335,0.31043949723243713,0.0,0.0,0.0,0.0,0.0,0.0,0.0,0.0,0.0
1606826297678617594,588126,1606826297641925510,imu_link,0.001369340461678803,0.0030342747922986746,0.019144929945468903,0.9998112320899963,0.0,0.0,0.0,0.0,0.0,0.0,0.0,0.0,0.0,2.1944851875305176,0.3446345627307892,0.1635451316833496,0.0,0.0,0.0,0.0,0.0,0.0,0.0,0.0,0.0,0.017799634486436844,-0.0053139133378863335,0.31043949723243713,0.0,0.0,0.0,0.0,0.0,0.0,0.0,0.0,0.0
1606826297678639109,588127,1606826297642031740,imu_link,0.0013697287067770958,0.003034425200894475,0.019144786521792412,0.9998112320899963,0.0,0.0,0.0,0.0,0.0,0.0,0.0,0.0,0.0,2.1944687366485596,0.3446509838104248,0.16358989477157593,0.0,0.0,0.0,0.0,0.0,0.0,0.0,0.0,0.0,0.002394525334239006,0.009375321678817272,0.32053425908088684,0.0,0.0,0.0,0.0,0.0,0.0,0.0,0.0,0.0
1606826297678647604,588128,1606826297642105285,imu_link,0.0013697287067770958,0.003034425200894475,0.019144786521792412,0.9998112320899963,0.0,0.0,0.0,0.0,0.0,0.0,0.0,0.0,0.0,2.1944687366485596,0.3446509838104248,0.16358989477157593,0.0,0.0,0.0,0.0,0.0,0.0,0.0,0.0,0.0,0.002394525334239006,0.009375321678817272,0.32053425908088684,0.0,0.0,0.0,0.0,0.0,0.0,0.0,0.0,0.0
1606826297678656377,588129,1606826297654646631,imu_link,0.0013684526784345508,0.0030351229943335056,0.019146831706166267,0.9998111724853516,0.0,0.0,0.0,0.0,0.0,0.0,0.0,0.0,0.0,2.1947031021118164,0.3447333574295044,0.16344591975212097,0.0,0.0,0.0,0.0,0.0,0.0,0.0,0.0,0.0,0.00019485107623040676,0.01744282804429531,0.3322046399116516,0.0,0.0,0.0,0.0,0.0,0.0,0.0,0.0,0.0
1606826297678664263,588130,1606826297654787662,imu_link,0.0013684526784345508,0.0030351229943335056,0.019146831706166267,0.9998111724853516,0.0,0.0,0.0,0.0,0.0,0.0,0.0,0.0,0.0,2.1947031021118164,0.3447333574295044,0.16344591975212097,0.0,0.0,0.0,0.0,0.0,0.0,0.0,0.0,0.0,0.00019485107623040676,0.01744282804429531,0.3322046399116516,0.0,0.0,0.0,0.0,0.0,0.0,0.0,0.0,0.0
1606826297678680884,588131,1606826297654975335,imu_link,0.0013687856262549758,0.0030357849318534136,0.01914834976196289,0.9998111128807068,0.0,0.0,0.0,0.0,0.0,0.0,0.0,0.0,0.0,2.1948773860931396,0.3448082208633423,0.1634860634803772,0.0,0.0,0.0,0.0,0.0,0.0,0.0,0.0,0.0,-0.00629429379478097,-0.005763906054198742,0.33858147263526917,0.0,0.0,0.0,0.0,0.0,0.0,0.0,0.0,0.0
1606826297678695341,588132,1606826297655069452,imu_link,0.0013687856262549758,0.0030357849318534136,0.01914834976196289,0.9998111128807068,0.0,0.0,0.0,0.0,0.0,0.0,0.0,0.0,0.0,2.1948773860931396,0.3448082208633423,0.1634860634803772,0.0,0.0,0.0,0.0,0.0,0.0,0.0,0.0,0.0,-0.00629429379478097,-0.005763906054198742,0.33858147263526917,0.0,0.0,0.0,0.0,0.0,0.0,0.0,0.0,0.0
1606826297678721317,588133,1606826297655159510,imu_link,0.0013698239345103502,0.003035086439922452,0.019150400534272194,0.999811053276062,0.0,0.0,0.0,0.0,0.0,0.0,0.0,0.0,0.0,2.195112466812134,0.3447256088256836,0.16360419988632202,0.0,0.0,0.0,0.0,0.0,0.0,0.0,0.0,0.0,0.007909489795565605,-0.012656371109187603,0.33523520827293396,0.0,0.0,0.0,0.0,0.0,0.0,0.0,0.0,0.0
1606826297678747673,588134,1606826297655247413,imu_link,0.0013698239345103502,0.003035086439922452,0.019150400534272194,0.999811053276062,0.0,0.0,0.0,0.0,0.0,0.0,0.0,0.0,0.0,2.195112466812134,0.3447256088256836,0.16360419988632202,0.0,0.0,0.0,0.0,0.0,0.0,0.0,0.0,0.0,0.007909489795565605,-0.012656371109187603,0.33523520827293396,0.0,0.0,0.0,0.0,0.0,0.0,0.0,0.0,0.0
1606826297678756068,588135,1606826297655402326,imu_link,0.001369423815049231,0.0030349367298185825,0.019149305298924446,0.9998111128807068,0.0,0.0,0.0,0.0,0.0,0.0,0.0,0.0,0.0,2.194986581802368,0.34470951557159424,0.16355764865875244,0.0,0.0,0.0,0.0,0.0,0.0,0.0,0.0,0.0,0.030390478670597076,-0.010597693733870983,0.3389342725276947,0.0,0.0,0.0,0.0,0.0,0.0,0.0,0.0,0.0
1606826297678788590,588136,1606826297655491782,imu_link,0.001369423815049231,0.0030349367298185825,0.019149305298924446,0.9998111128807068,0.0,0.0,0.0,0.0,0.0,0.0,0.0,0.0,0.0,2.194986581802368,0.34470951557159424,0.16355764865875244,0.0,0.0,0.0,0.0,0.0,0.0,0.0,0.0,0.0,0.030390478670597076,-0.010597693733870983,0.3389342725276947,0.0,0.0,0.0,0.0,0.0,0.0,0.0,0.0,0.0
1606826297678802740,588137,1606826297655568930,imu_link,0.0013724633026868105,0.003040940035134554,0.019150683656334877,0.999811053276062,0.0,0.0,0.0,0.0,0.0,0.0,0.0,0.0,0.0,2.1951467990875244,0.3453904092311859,0.16391952335834503,0.0,0.0,0.0,0.0,0.0,0.0,0.0,0.0,0.0,6.400980055332184e-06,-0.02000388503074646,0.33011892437934875,0.0,0.0,0.0,0.0,0.0,0.0,0.0,0.0,0.0
1606826297678814562,588138,1606826297655651230,imu_link,0.0013724633026868105,0.003040940035134554,0.019150683656334877,0.999811053276062,0.0,0.0,0.0,0.0,0.0,0.0,0.0,0.0,0.0,2.1951467990875244,0.3453904092311859,0.16391952335834503,0.0,0.0,0.0,0.0,0.0,0.0,0.0,0.0,0.0,6.400980055332184e-06,-0.02000388503074646,0.33011892437934875,0.0,0.0,0.0,0.0,0.0,0.0,0.0,0.0,0.0
1606826297678856553,588139,1606826297655737329,imu_link,0.0013730846112594008,0.003043053438887,0.019150689244270325,0.999811053276062,0.0,0.0,0.0,0.0,0.0,0.0,0.0,0.0,0.0,2.19514799118042,0.3456312119960785,0.16399535536766052,0.0,0.0,0.0,0.0,0.0,0.0,0.0,0.0,0.0,-0.020009920001029968,0.0015405409503728151,0.3361174464225769,0.0,0.0,0.0,0.0,0.0,0.0,0.0,0.0,0.0
