%time,field.header.seq,field.header.stamp,field.header.frame_id,field.orientation.x,field.orientation.y,field.orientation.z,field.orientation.w,field.orientation_covariance0,field.orientation_covariance1,field.orientation_covariance2,field.orientation_covariance3,field.orientation_covariance4,field.orientation_covariance5,field.orientation_covariance6,field.orientation_covariance7,field.orientation_covariance8,field.angular_velocity.x,field.angular_velocity.y,field.angular_velocity.z,field.angular_velocity_covariance0,field.angular_velocity_covariance1,field.angular_velocity_covariance2,field.angular_velocity_covariance3,field.angular_velocity_covariance4,field.angular_velocity_covariance5,field.angular_velocity_covariance6,field.angular_velocity_covariance7,field.angular_velocity_covariance8,field.linear_acceleration.x,field.linear_acceleration.y,field.linear_acceleration.z,field.linear_acceleration_covariance0,field.linear_acceleration_covariance1,field.linear_acceleration_covariance2,field.linear_acceleration_covariance3,field.linear_acceleration_covariance4,field.linear_acceleration_covariance5,field.linear_acceleration_covariance6,field.linear_acceleration_covariance7,field.linear_acceleration_covariance8
1606827754683531107,1753738,1606827754675807106,imu_link,0.001755477744154632,0.0022995569743216038,0.1921752542257309,0.9813563823699951,0.0,0.0,0.0,0.0,0.0,0.0,0.0,0.0,0.0,22.160083770751953,0.21993902325630188,0.24805518984794617,0.0,0.0,0.0,0.0,0.0,0.0,0.0,0.0,0.0,0.002771176630631089,0.009768769145011902,0.3144696354866028,0.0,0.0,0.0,0.0,0.0,0.0,0.0,0.0,0.0
1606827754684241506,1753739,1606827754675927483,imu_link,0.0017559967236593366,0.0023001779336482286,0.1921730488538742,0.9813568592071533,0.0,0.0,0.0,0.0,0.0,0.0,0.0,0.0,0.0,22.15982437133789,0.21999801695346832,0.24812673032283783,0.0,0.0,0.0,0.0,0.0,0.0,0.0,0.0,0.0,-0.006618400104343891,0.010452604852616787,0.3030369281768799,0.0,0.0,0.0,0.0,0.0,0.0,0.0,0.0,0.0
1606827754684263224,1753740,1606827754676080222,imu_link,0.0017559967236593366,0.0023001779336482286,0.1921730488538742,0.9813568592071533,0.0,0.0,0.0,0.0,0.0,0.0,0.0,0.0,0.0,22.15982437133789,0.21999801695346832,0.24812673032283783,0.0,0.0,0.0,0.0,0.0,0.0,0.0,0.0,0.0,-0.006618400104343891,0.010452604852616787,0.3030369281768799,0.0,0.0,0.0,0.0,0.0,0.0,0.0,0.0,0.0
1606827754684271433,1753741,1606827754676156799,imu_link,0.0017528373282402754,0.002299869665876031,0.19216670095920563,0.9813580513000488,0.0,0.0,0.0,0.0,0.0,0.0,0.0,0.0,0.0,22.15908432006836,0.22003449499607086,0.2477632313966751,0.0,0.0,0.0,0.0,0.0,0.0,0.0,0.0,0.0,-0.0163493063300848,0.00031803548336029053,0.29957959055900574,0.0,0.0,0.0,0.0,0.0,0.0,0.0,0.0,0.0
1606827754684283517,1753742,1606827754676247559,imu_link,0.0017528373282402754,0.002299869665876031,0.19216670095920563,0.9813580513000488,0.0,0.0,0.0,0.0,0.0,0.0,0.0,0.0,0.0,22.15908432006836,0.22003449499607086,0.2477632313966751,0.0,0.0,0.0,0.0,0.0,0.0,0.0,0.0,0.0,-0.0163493063300848,0.00031803548336029053,0.29957959055900574,0.0,0.0,0.0,0.0,0.0,0.0,0.0,0.0,0.0
1606827754685117451,1753743,1606827754676335255,imu_link,0.0017534667858853936,0.0022964219097048044,0.19216416776180267,0.9813585877418518,0.0,0.0,0.0,0.0,0.0,0.0,0.0,0.0,0.0,22.158782958984375,0.2196335792541504,0.24775749444961548,0.0,0.0,0.0,0.0,0.0,0.0,0.0,0.0,0.0,-0.024480726569890976,-0.014143921434879303,0.33403265476226807,0.0,0.0,0.0,0.0,0.0,0.0,0.0,0.0,0.0
1606827754685140409,1753744,1606827754676408593,imu_link,0.0017534667858853936,0.0022964219097048044,0.19216416776180267,0.9813585877418518,0.0,0.0,0.0,0.0,0.0,0.0,0.0,0.0,0.0,22.158782958984375,0.2196335792541504,0.24775749444961548,0.0,0.0,0.0,0.0,0.0,0.0,0.0,0.0,0.0,-0.024480726569890976,-0.014143921434879303,0.33403265476226807,0.0,0.0,0.0,0.0,0.0,0.0,0.0,0.0,0.0
1606827754685184345,1753745,1606827754676478755,imu_link,0.001756790210492909,0.0022937681060284376,0.19215387105941772,0.9813606142997742,0.0,0.0,0.0,0.0,0.0,0.0,0.0,0.0,0.0,22.157581329345703,0.21926455199718475,0.24807047843933105,0.0,0.0,0.0,0.0,0.0,0.0,0.0,0.0,0.0,-0.025530952960252762,-0.011789759621024132,0.37888503074645996,0.0,0.0,0.0,0.0,0.0,0.0,0.0,0.0,0.0
1606827754685214977,1753746,1606827754676546600,imu_link,0.001756790210492909,0.0022937681060284376,0.19215387105941772,0.9813606142997742,0.0,0.0,0.0,0.0,0.0,0.0,0.0,0.0,0.0,22.157581329345703,0.21926455199718475,0.24807047843933105,0.0,0.0,0.0,0.0,0.0,0.0,0.0,0.0,0.0,-0.025530952960252762,-0.011789759621024132,0.37888503074645996,0.0,0.0,0.0,0.0,0.0,0.0,0.0,0.0,0.0
1606827754686642545,1753747,1606827754676614424,imu_link,0.0017576661193743348,0.002293376950547099,0.1921519935131073,0.9813609719276428,0.0,0.0,0.0,0.0,0.0,0.0,0.0,0.0,0.0,22.157363891601562,0.21920175850391388,0.2481599748134613,0.0,0.0,0.0,0.0,0.0,0.0,0.0,0.0,0.0,-0.02061309851706028,0.004525334108620882,0.3702719509601593,0.0,0.0,0.0,0.0,0.0,0.0,0.0,0.0,0.0
1606827754697086763,1753748,1606827754689513787,imu_link,0.0017576661193743348,0.002293376950547099,0.1921519935131073,0.9813609719276428,0.0,0.0,0.0,0.0,0.0,0.0,0.0,0.0,0.0,22.157363891601562,0.21920175850391388,0.2481599748134613,0.0,0.0,0.0,0.0,0.0,0.0,0.0,0.0,0.0,-0.02061309851706028,0.004525334108620882,0.3702719509601593,0.0,0.0,0.0,0.0,0.0,0.0,0.0,0.0,0.0
1606827754699230088,1753749,1606827754689661117,imu_link,0.0017592720687389374,0.0022890486288815737,0.19214442372322083,0.9813624620437622,0.0,0.0,0.0,0.0,0.0,0.0,0.0,0.0,0.0,22.156478881835938,0.21868155896663666,0.2482435554265976,0.0,0.0,0.0,0.0,0.0,0.0,0.0,0.0,0.0,-0.021243048831820488,0.02814587764441967,0.36239954829216003,0.0,0.0,0.0,0.0,0.0,0.0,0.0,0.0,0.0
1606827754699247769,1753750,1606827754689838110,imu_link,0.0017592720687389374,0.0022890486288815737,0.19214442372322083,0.9813624620437622,0.0,0.0,0.0,0.0,0.0,0.0,0.0,0.0,0.0,22.156478881835938,0.21868155896663666,0.2482435554265976,0.0,0.0,0.0,0.0,0.0,0.0,0.0,0.0,0.0,-0.021243048831820488,0.02814587764441967,0.36239954829216003,0.0,0.0,0.0,0.0,0.0,0.0,0.0,0.0,0.0
1606827754699277541,1753751,1606827754689919954,imu_link,0.001759229344315827,0.002291096607223153,0.19214485585689545,0.9813622832298279,0.0,0.0,0.0,0.0,0.0,0.0,0.0,0.0,0.0,22.156532287597656,0.21891266107559204,0.2482839822769165,0.0,0.0,0.0,0.0,0.0,0.0,0.0,0.0,0.0,-0.0203563142567873,0.030415549874305725,0.37584859132766724,0.0,0.0,0.0,0.0,0.0,0.0,0.0,0.0,0.0
1606827754699292922,1753752,1606827754689996020,imu_link,0.001759229344315827,0.002291096607223153,0.19214485585689545,0.9813622832298279,0.0,0.0,0.0,0.0,0.0,0.0,0.0,0.0,0.0,22.156532287597656,0.21891266107559204,0.2482839822769165,0.0,0.0,0.0,0.0,0.0,0.0,0.0,0.0,0.0,-0.0203563142567873,0.030415549874305725,0.37584859132766724,0.0,0.0,0.0,0.0,0.0,0.0,0.0,0.0,0.0
1606827754699300503,1753753,1606827754690069960,imu_link,0.00175327411852777,0.002288597170263529,0.19213837385177612,0.9813635945320129,0.0,0.0,0.0,0.0,0.0,0.0,0.0,0.0,0.0,22.155771255493164,0.21876434981822968,0.24755774438381195,0.0,0.0,0.0,0.0,0.0,0.0,0.0,0.0,0.0,-0.007136654574424028,-0.004666537046432495,0.35423824191093445,0.0,0.0,0.0,0.0,0.0,0.0,0.0,0.0,0.0
1606827754699322054,1753754,1606827754690170543,imu_link,0.00175327411852777,0.002288597170263529,0.19213837385177612,0.9813635945320129,0.0,0.0,0.0,0.0,0.0,0.0,0.0,0.0,0.0,22.155771255493164,0.21876434981822968,0.24755774438381195,0.0,0.0,0.0,0.0,0.0,0.0,0.0,0.0,0.0,-0.007136654574424028,-0.004666537046432495,0.35423824191093445,0.0,0.0,0.0,0.0,0.0,0.0,0.0,0.0,0.0
1606827754699341595,1753755,1606827754690248758,imu_link,0.0017519736429676414,0.00228908215649426,0.1921374797821045,0.9813637733459473,0.0,0.0,0.0,0.0,0.0,0.0,0.0,0.0,0.0,22.15566635131836,0.21884776651859283,0.247421994805336,0.0,0.0,0.0,0.0,0.0,0.0,0.0,0.0,0.0,-0.0010360562009736896,-0.02561660297214985,0.32773450016975403,0.0,0.0,0.0,0.0,0.0,0.0,0.0,0.0,0.0
1606827754699355002,1753756,1606827754690338651,imu_link,0.0017519736429676414,0.00228908215649426,0.1921374797821045,0.9813637733459473,0.0,0.0,0.0,0.0,0.0,0.0,0.0,0.0,0.0,22.15566635131836,0.21884776651859283,0.247421994805336,0.0,0.0,0.0,0.0,0.0,0.0,0.0,0.0,0.0,-0.0010360562009736896,-0.02561660297214985,0.32773450016975403,0.0,0.0,0.0,0.0,0.0,0.0,0.0,0.0,0.0
1606827754699363943,1753757,1606827754690425867,imu_link,0.001756965066306293,0.0022891254629939795,0.19213151931762695,0.9813649654388428,0.0,0.0,0.0,0.0,0.0,0.0,0.0,0.0,0.0,22.154970169067383,0.21874426305294037,0.2479829639196396,0.0,0.0,0.0,0.0,0.0,0.0,0.0,0.0,0.0,-0.005985084921121597,-0.007124209776520729,0.325935423374176,0.0,0.0,0.0,0.0,0.0,0.0,0.0,0.0,0.0
1606827754699374174,1753758,1606827754690509891,imu_link,0.001756965066306293,0.0022891254629939795,0.19213151931762695,0.9813649654388428,0.0,0.0,0.0,0.0,0.0,0.0,0.0,0.0,0.0,22.154970169067383,0.21874426305294037,0.2479829639196396,0.0,0.0,0.0,0.0,0.0,0.0,0.0,0.0,0.0,-0.005985084921121597,-0.007124209776520729,0.325935423374176,0.0,0.0,0.0,0.0,0.0,0.0,0.0,0.0,0.0
1606827754710680942,1753759,1606827754702955095,imu_link,0.001756652956828475,0.002288955496624112,0.192130908370018,0.9813650846481323,0.0,0.0,0.0,0.0,0.0,0.0,0.0,0.0,0.0,22.15489959716797,0.21873214840888977,0.24794399738311768,0.0,0.0,0.0,0.0,0.0,0.0,0.0,0.0,0.0,-0.011353621259331703,-0.011960851028561592,0.34493720531463623,0.0,0.0,0.0,0.0,0.0,0.0,0.0,0.0,0.0
1606827754713370509,1753760,1606827754703095309,imu_link,0.001756652956828475,0.002288955496624112,0.192130908370018,0.9813650846481323,0.0,0.0,0.0,0.0,0.0,0.0,0.0,0.0,0.0,22.15489959716797,0.21873214840888977,0.24794399738311768,0.0,0.0,0.0,0.0,0.0,0.0,0.0,0.0,0.0,-0.011353621259331703,-0.011960851028561592,0.34493720531463623,0.0,0.0,0.0,0.0,0.0,0.0,0.0,0.0,0.0
1606827754713398617,1753761,1606827754703304858,imu_link,0.0017578116385266185,0.0022892188280820847,0.19213619828224182,0.9813640713691711,0.0,0.0,0.0,0.0,0.0,0.0,0.0,0.0,0.0,22.155517578125,0.21873493492603302,0.248081237077713,0.0,0.0,0.0,0.0,0.0,0.0,0.0,0.0,0.0,-0.015195222571492195,-0.013851414434611797,0.3383197784423828,0.0,0.0,0.0,0.0,0.0,0.0,0.0,0.0,0.0
1606827754713407458,1753762,1606827754703390826,imu_link,0.0017578116385266185,0.0022892188280820847,0.19213619828224182,0.9813640713691711,0.0,0.0,0.0,0.0,0.0,0.0,0.0,0.0,0.0,22.155517578125,0.21873493492603302,0.248081237077713,0.0,0.0,0.0,0.0,0.0,0.0,0.0,0.0,0.0,-0.015195222571492195,-0.013851414434611797,0.3383197784423828,0.0,0.0,0.0,0.0,0.0,0.0,0.0,0.0,0.0
1606827754713435685,1753763,1606827754703471482,imu_link,0.0017574465600773692,0.0022890151012688875,0.19213810563087463,0.9813636541366577,0.0,0.0,0.0,0.0,0.0,0.0,0.0,0.0,0.0,22.15574073791504,0.21871958673000336,0.24803614616394043,0.0,0.0,0.0,0.0,0.0,0.0,0.0,0.0,0.0,0.0016842011827975512,0.00804508849978447,0.33628472685813904,0.0,0.0,0.0,0.0,0.0,0.0,0.0,0.0,0.0
1606827754713468626,1753764,1606827754703547753,imu_link,0.0017574465600773692,0.0022890151012688875,0.19213810563087463,0.9813636541366577,0.0,0.0,0.0,0.0,0.0,0.0,0.0,0.0,0.0,22.15574073791504,0.21871958673000336,0.24803614616394043,0.0,0.0,0.0,0.0,0.0,0.0,0.0,0.0,0.0,0.0016842011827975512,0.00804508849978447,0.33628472685813904,0.0,0.0,0.0,0.0,0.0,0.0,0.0,0.0,0.0
1606827754713482487,1753765,1606827754703664353,imu_link,0.001757549005560577,0.002288835821673274,0.19213949143886566,0.9813634157180786,0.0,0.0,0.0,0.0,0.0,0.0,0.0,0.0,0.0,22.155900955200195,0.21869683265686035,0.24804401397705078,0.0,0.0,0.0,0.0,0.0,0.0,0.0,0.0,0.0,0.021565452218055725,0.018873726949095726,0.34766650199890137,0.0,0.0,0.0,0.0,0.0,0.0,0.0,0.0,0.0
1606827754713492437,1753766,1606827754703742503,imu_link,0.001757549005560577,0.002288835821673274,0.19213949143886566,0.9813634157180786,0.0,0.0,0.0,0.0,0.0,0.0,0.0,0.0,0.0,22.155900955200195,0.21869683265686035,0.24804401397705078,0.0,0.0,0.0,0.0,0.0,0.0,0.0,0.0,0.0,0.021565452218055725,0.018873726949095726,0.34766650199890137,0.0,0.0,0.0,0.0,0.0,0.0,0.0,0.0,0.0
1606827754713511785,1753767,1606827754703826301,imu_link,0.0017574296798557043,0.00228791288100183,0.19213731586933136,0.981363832950592,0.0,0.0,0.0,0.0,0.0,0.0,0.0,0.0,0.0,22.155649185180664,0.2185961902141571,0.2480097860097885,0.0,0.0,0.0,0.0,0.0,0.0,0.0,0.0,0.0,-0.013368908315896988,0.014260648749768734,0.32331225275993347,0.0,0.0,0.0,0.0,0.0,0.0,0.0,0.0,0.0
1606827754713520292,1753768,1606827754703914495,imu_link,0.0017574296798557043,0.00228791288100183,0.19213731586933136,0.981363832950592,0.0,0.0,0.0,0.0,0.0,0.0,0.0,0.0,0.0,22.155649185180664,0.2185961902141571,0.2480097860097885,0.0,0.0,0.0,0.0,0.0,0.0,0.0,0.0,0.0,-0.013368908315896988,0.014260648749768734,0.32331225275993347,0.0,0.0,0.0,0.0,0.0,0.0,0.0,0.0,0.0
1606827754713530928,1753769,1606827754703998469,imu_link,0.0017557799583300948,0.0022854746785014868,0.19214291870594025,0.9813627600669861,0.0,0.0,0.0,0.0,0.0,0.0,0.0,0.0,0.0,22.156299591064453,0.2183569222688675,0.24777179956436157,0.0,0.0,0.0,0.0,0.0,0.0,0.0,0.0,0.0,-0.03692322596907616,0.007706705946475267,0.3222705125808716,0.0,0.0,0.0,0.0,0.0,0.0,0.0,0.0,0.0
1606827754724424547,1753770,1606827754716807648,imu_link,0.0017557799583300948,0.0022854746785014868,0.19214291870594025,0.9813627600669861,0.0,0.0,0.0,0.0,0.0,0.0,0.0,0.0,0.0,22.156299591064453,0.2183569222688675,0.24777179956436157,0.0,0.0,0.0,0.0,0.0,0.0,0.0,0.0,0.0,-0.03692322596907616,0.007706705946475267,0.3222705125808716,0.0,0.0,0.0,0.0,0.0,0.0,0.0,0.0,0.0
1606827754725918584,1753771,1606827754716939933,imu_link,0.0017548889154568315,0.002285928698256612,0.19214317202568054,0.9813627004623413,0.0,0.0,0.0,0.0,0.0,0.0,0.0,0.0,0.0,22.156330108642578,0.21842752397060394,0.2476816475391388,0.0,0.0,0.0,0.0,0.0,0.0,0.0,0.0,0.0,-0.010705624707043171,0.014292880892753601,0.3294603228569031,0.0,0.0,0.0,0.0,0.0,0.0,0.0,0.0,0.0
1606827754725952687,1753772,1606827754717107951,imu_link,0.0017548889154568315,0.002285928698256612,0.19214317202568054,0.9813627004623413,0.0,0.0,0.0,0.0,0.0,0.0,0.0,0.0,0.0,22.156330108642578,0.21842752397060394,0.2476816475391388,0.0,0.0,0.0,0.0,0.0,0.0,0.0,0.0,0.0,-0.010705624707043171,0.014292880892753601,0.3294603228569031,0.0,0.0,0.0,0.0,0.0,0.0,0.0,0.0,0.0
1606827754725964184,1753773,1606827754717196496,imu_link,0.001753091812133789,0.002283881651237607,0.19214877486228943,0.9813616275787354,0.0,0.0,0.0,0.0,0.0,0.0,0.0,0.0,0.0,22.156984329223633,0.21823549270629883,0.24743573367595673,0.0,0.0,0.0,0.0,0.0,0.0,0.0,0.0,0.0,0.013819986954331398,0.007407839410007,0.29841601848602295,0.0,0.0,0.0,0.0,0.0,0.0,0.0,0.0,0.0
1606827754725971176,1753774,1606827754717276465,imu_link,0.001753091812133789,0.002283881651237607,0.19214877486228943,0.9813616275787354,0.0,0.0,0.0,0.0,0.0,0.0,0.0,0.0,0.0,22.156984329223633,0.21823549270629883,0.24743573367595673,0.0,0.0,0.0,0.0,0.0,0.0,0.0,0.0,0.0,0.013819986954331398,0.007407839410007,0.29841601848602295,0.0,0.0,0.0,0.0,0.0,0.0,0.0,0.0,0.0
1606827754727449404,1753775,1606827754717377709,imu_link,0.0017520592082291842,0.002286445116624236,0.19214971363544464,0.981361448764801,0.0,0.0,0.0,0.0,0.0,0.0,0.0,0.0,0.0,22.157093048095703,0.21854627132415771,0.24737626314163208,0.0,0.0,0.0,0.0,0.0,0.0,0.0,0.0,0.0,0.024952922016382217,-0.004695863928645849,0.28255560994148254,0.0,0.0,0.0,0.0,0.0,0.0,0.0,0.0,0.0
1606827754727469683,1753776,1606827754717463742,imu_link,0.0017520592082291842,0.002286445116624236,0.19214971363544464,0.981361448764801,0.0,0.0,0.0,0.0,0.0,0.0,0.0,0.0,0.0,22.157093048095703,0.21854627132415771,0.24737626314163208,0.0,0.0,0.0,0.0,0.0,0.0,0.0,0.0,0.0,0.024952922016382217,-0.004695863928645849,0.28255560994148254,0.0,0.0,0.0,0.0,0.0,0.0,0.0,0.0,0.0
1606827754727481514,1753777,1606827754717542875,imu_link,0.0017523188143968582,0.0022908151149749756,0.19215022027492523,0.9813613295555115,0.0,0.0,0.0,0.0,0.0,0.0,0.0,0.0,0.0,22.157154083251953,0.21903185546398163,0.24750182032585144,0.0,0.0,0.0,0.0,0.0,0.0,0.0,0.0,0.0,0.021845750510692596,-0.004758885130286217,0.295003205537796,0.0,0.0,0.0,0.0,0.0,0.0,0.0,0.0,0.0
1606827754727497397,1753778,1606827754717634176,imu_link,0.0017523188143968582,0.0022908151149749756,0.19215022027492523,0.9813613295555115,0.0,0.0,0.0,0.0,0.0,0.0,0.0,0.0,0.0,22.157154083251953,0.21903185546398163,0.24750182032585144,0.0,0.0,0.0,0.0,0.0,0.0,0.0,0.0,0.0,0.021845750510692596,-0.004758885130286217,0.295003205537796,0.0,0.0,0.0,0.0,0.0,0.0,0.0,0.0,0.0
1606827754727505666,1753779,1606827754717711720,imu_link,0.0017524745780974627,0.002291833283379674,0.19214682281017303,0.981361985206604,0.0,0.0,0.0,0.0,0.0,0.0,0.0,0.0,0.0,22.15675926208496,0.21914377808570862,0.24754098057746887,0.0,0.0,0.0,0.0,0.0,0.0,0.0,0.0,0.0,0.012315741740167141,-0.010945330373942852,0.3003113269805908,0.0,0.0,0.0,0.0,0.0,0.0,0.0,0.0,0.0
1606827754740602980,1753780,1606827754717795984,imu_link,0.0017524745780974627,0.002291833283379674,0.19214682281017303,0.981361985206604,0.0,0.0,0.0,0.0,0.0,0.0,0.0,0.0,0.0,22.15675926208496,0.21914377808570862,0.24754098057746887,0.0,0.0,0.0,0.0,0.0,0.0,0.0,0.0,0.0,0.012315741740167141,-0.010945330373942852,0.3003113269805908,0.0,0.0,0.0,0.0,0.0,0.0,0.0,0.0,0.0
1606827754740642581,1753781,1606827754729800371,imu_link,0.0017547550378367305,0.0022936046589165926,0.19214442372322083,0.9813624620437622,0.0,0.0,0.0,0.0,0.0,0.0,0.0,0.0,0.0,22.15648078918457,0.21929335594177246,0.2478359043598175,0.0,0.0,0.0,0.0,0.0,0.0,0.0,0.0,0.0,0.004571566823869944,-0.01728125847876072,0.3083163797855377,0.0,0.0,0.0,0.0,0.0,0.0,0.0,0.0,0.0
1606827754740661748,1753782,1606827754729936901,imu_link,0.0017547550378367305,0.0022936046589165926,0.19214442372322083,0.9813624620437622,0.0,0.0,0.0,0.0,0.0,0.0,0.0,0.0,0.0,22.15648078918457,0.21929335594177246,0.2478359043598175,0.0,0.0,0.0,0.0,0.0,0.0,0.0,0.0,0.0,0.004571566823869944,-0.01728125847876072,0.3083163797855377,0.0,0.0,0.0,0.0,0.0,0.0,0.0,0.0,0.0
1606827754740675301,1753783,1606827754730108467,imu_link,0.0017565718153491616,0.002292479621246457,0.1921425759792328,0.9813628196716309,0.0,0.0,0.0,0.0,0.0,0.0,0.0,0.0,0.0,22.156261444091797,0.21912731230258942,0.24801506102085114,0.0,0.0,0.0,0.0,0.0,0.0,0.0,0.0,0.0,-0.004969828762114048,-0.012708055786788464,0.31208536028862,0.0,0.0,0.0,0.0,0.0,0.0,0.0,0.0,0.0
1606827754740719998,1753784,1606827754730197167,imu_link,0.0017565718153491616,0.002292479621246457,0.1921425759792328,0.9813628196716309,0.0,0.0,0.0,0.0,0.0,0.0,0.0,0.0,0.0,22.156261444091797,0.21912731230258942,0.24801506102085114,0.0,0.0,0.0,0.0,0.0,0.0,0.0,0.0,0.0,-0.004969828762114048,-0.012708055786788464,0.31208536028862,0.0,0.0,0.0,0.0,0.0,0.0,0.0,0.0,0.0
1606827754740739136,1753785,1606827754730290322,imu_link,0.0017590138595551252,0.002293503610417247,0.1921369582414627,0.9813638925552368,0.0,0.0,0.0,0.0,0.0,0.0,0.0,0.0,0.0,22.155607223510742,0.21919012069702148,0.24831095337867737,0.0,0.0,0.0,0.0,0.0,0.0,0.0,0.0,0.0,0.0008000778034329414,-0.00943923369050026,0.3361320495605469,0.0,0.0,0.0,0.0,0.0,0.0,0.0,0.0,0.0
1606827754740767725,1753786,1606827754730388223,imu_link,0.0017590138595551252,0.002293503610417247,0.1921369582414627,0.9813638925552368,0.0,0.0,0.0,0.0,0.0,0.0,0.0,0.0,0.0,22.155607223510742,0.21919012069702148,0.24831095337867737,0.0,0.0,0.0,0.0,0.0,0.0,0.0,0.0,0.0,0.0008000778034329414,-0.00943923369050026,0.3361320495605469,0.0,0.0,0.0,0.0,0.0,0.0,0.0,0.0,0.0
1606827754740781482,1753787,1606827754730465992,imu_link,0.001759393373504281,0.0022924370132386684,0.1921343207359314,0.9813644289970398,0.0,0.0,0.0,0.0,0.0,0.0,0.0,0.0,0.0,22.15530014038086,0.21906247735023499,0.24832957983016968,0.0,0.0,0.0,0.0,0.0,0.0,0.0,0.0,0.0,-0.009714915417134762,-0.011233607307076454,0.359038770198822,0.0,0.0,0.0,0.0,0.0,0.0,0.0,0.0,0.0
1606827754746207095,1753788,1606827754730542208,imu_link,0.001759393373504281,0.0022924370132386684,0.1921343207359314,0.9813644289970398,0.0,0.0,0.0,0.0,0.0,0.0,0.0,0.0,0.0,22.15530014038086,0.21906247735023499,0.24832957983016968,0.0,0.0,0.0,0.0,0.0,0.0,0.0,0.0,0.0,-0.009714915417134762,-0.011233607307076454,0.359038770198822,0.0,0.0,0.0,0.0,0.0,0.0,0.0,0.0,0.0
1606827754746224420,1753789,1606827754730630707,imu_link,0.0017629086505621672,0.002291701501235366,0.19213056564331055,0.9813651442527771,0.0,0.0,0.0,0.0,0.0,0.0,0.0,0.0,0.0,22.154861450195312,0.2189033180475235,0.2487078458070755,0.0,0.0,0.0,0.0,0.0,0.0,0.0,0.0,0.0,-0.030265754088759422,-0.007524901535362005,0.34371379017829895,0.0,0.0,0.0,0.0,0.0,0.0,0.0,0.0,0.0
1606827754746231187,1753790,1606827754730703881,imu_link,0.0017629086505621672,0.002291701501235366,0.19213056564331055,0.9813651442527771,0.0,0.0,0.0,0.0,0.0,0.0,0.0,0.0,0.0,22.154861450195312,0.2189033180475235,0.2487078458070755,0.0,0.0,0.0,0.0,0.0,0.0,0.0,0.0,0.0,-0.030265754088759422,-0.007524901535362005,0.34371379017829895,0.0,0.0,0.0,0.0,0.0,0.0,0.0,0.0,0.0
1606827754750725697,1753791,1606827754743113543,imu_link,0.0017628052737563848,0.0022911899723112583,0.19212904572486877,0.981365442276001,0.0,0.0,0.0,0.0,0.0,0.0,0.0,0.0,0.0,22.15468406677246,0.21884845197200775,0.2486845850944519,0.0,0.0,0.0,0.0,0.0,0.0,0.0,0.0,0.0,-0.024961404502391815,0.006007768213748932,0.3256906569004059,0.0,0.0,0.0,0.0,0.0,0.0,0.0,0.0,0.0
1606827754751446612,1753792,1606827754743253161,imu_link,0.0017628052737563848,0.0022911899723112583,0.19212904572486877,0.981365442276001,0.0,0.0,0.0,0.0,0.0,0.0,0.0,0.0,0.0,22.15468406677246,0.21884845197200775,0.2486845850944519,0.0,0.0,0.0,0.0,0.0,0.0,0.0,0.0,0.0,-0.024961404502391815,0.006007768213748932,0.3256906569004059,0.0,0.0,0.0,0.0,0.0,0.0,0.0,0.0,0.0
1606827754751471303,1753793,1606827754743415651,imu_link,0.0017637093551456928,0.0022842632606625557,0.19212506711483002,0.9813662171363831,0.0,0.0,0.0,0.0,0.0,0.0,0.0,0.0,0.0,22.154216766357422,0.21805059909820557,0.24863290786743164,0.0,0.0,0.0,0.0,0.0,0.0,0.0,0.0,0.0,-0.015730952844023705,0.011701041832566261,0.32623547315597534,0.0,0.0,0.0,0.0,0.0,0.0,0.0,0.0,0.0
1606827754751480406,1753794,1606827754743512584,imu_link,0.0017637093551456928,0.0022842632606625557,0.19212506711483002,0.9813662171363831,0.0,0.0,0.0,0.0,0.0,0.0,0.0,0.0,0.0,22.154216766357422,0.21805059909820557,0.24863290786743164,0.0,0.0,0.0,0.0,0.0,0.0,0.0,0.0,0.0,-0.015730952844023705,0.011701041832566261,0.32623547315597534,0.0,0.0,0.0,0.0,0.0,0.0,0.0,0.0,0.0
1606827754751490950,1753795,1606827754743633468,imu_link,0.0017631880473345518,0.00228543090634048,0.19212350249290466,0.9813665151596069,0.0,0.0,0.0,0.0,0.0,0.0,0.0,0.0,0.0,22.154035568237305,0.21819378435611725,0.24859966337680817,0.0,0.0,0.0,0.0,0.0,0.0,0.0,0.0,0.0,-0.022384876385331154,0.006837069522589445,0.3383888304233551,0.0,0.0,0.0,0.0,0.0,0.0,0.0,0.0,0.0
1606827754752963996,1753796,1606827754743712576,imu_link,0.0017631880473345518,0.00228543090634048,0.19212350249290466,0.9813665151596069,0.0,0.0,0.0,0.0,0.0,0.0,0.0,0.0,0.0,22.154035568237305,0.21819378435611725,0.24859966337680817,0.0,0.0,0.0,0.0,0.0,0.0,0.0,0.0,0.0,-0.022384876385331154,0.006837069522589445,0.3383888304233551,0.0,0.0,0.0,0.0,0.0,0.0,0.0,0.0,0.0
1606827754752985163,1753797,1606827754743824109,imu_link,0.0017623549792915583,0.0022797328419983387,0.19211986660957336,0.9813672304153442,0.0,0.0,0.0,0.0,0.0,0.0,0.0,0.0,0.0,22.15361213684082,0.21757227182388306,0.24837970733642578,0.0,0.0,0.0,0.0,0.0,0.0,0.0,0.0,0.0,-0.02439824864268303,-0.012839196249842644,0.3493511974811554,0.0,0.0,0.0,0.0,0.0,0.0,0.0,0.0,0.0
1606827754752998268,1753798,1606827754743905752,imu_link,0.0017623549792915583,0.0022797328419983387,0.19211986660957336,0.9813672304153442,0.0,0.0,0.0,0.0,0.0,0.0,0.0,0.0,0.0,22.15361213684082,0.21757227182388306,0.24837970733642578,0.0,0.0,0.0,0.0,0.0,0.0,0.0,0.0,0.0,-0.02439824864268303,-0.012839196249842644,0.3493511974811554,0.0,0.0,0.0,0.0,0.0,0.0,0.0,0.0,0.0
1606827754753009068,1753799,1606827754743988157,imu_link,0.0017623880412429571,0.0022788129281252623,0.1921190619468689,0.9813674092292786,0.0,0.0,0.0,0.0,0.0,0.0,0.0,0.0,0.0,22.15351676940918,0.2174682915210724,0.2483629733324051,0.0,0.0,0.0,0.0,0.0,0.0,0.0,0.0,0.0,-0.003563670441508293,-0.013307260349392891,0.3501066267490387,0.0,0.0,0.0,0.0,0.0,0.0,0.0,0.0,0.0
1606827754753022198,1753800,1606827754744072186,imu_link,0.0017623880412429571,0.0022788129281252623,0.1921190619468689,0.9813674092292786,0.0,0.0,0.0,0.0,0.0,0.0,0.0,0.0,0.0,22.15351676940918,0.2174682915210724,0.2483629733324051,0.0,0.0,0.0,0.0,0.0,0.0,0.0,0.0,0.0,-0.003563670441508293,-0.013307260349392891,0.3501066267490387,0.0,0.0,0.0,0.0,0.0,0.0,0.0,0.0,0.0
1606827754753032550,1753801,1606827754744155789,imu_link,0.0017648835200816393,0.002277044113725424,0.1921134889125824,0.9813684821128845,0.0,0.0,0.0,0.0,0.0,0.0,0.0,0.0,0.0,22.152864456176758,0.21721583604812622,0.2486034482717514,0.0,0.0,0.0,0.0,0.0,0.0,0.0,0.0,0.0,0.02113758772611618,-0.002166887978091836,0.32313108444213867,0.0,0.0,0.0,0.0,0.0,0.0,0.0,0.0,0.0
1606827754764550203,1753802,1606827754756928595,imu_link,0.0017648835200816393,0.002277044113725424,0.1921134889125824,0.9813684821128845,0.0,0.0,0.0,0.0,0.0,0.0,0.0,0.0,0.0,22.152864456176758,0.21721583604812622,0.2486034482717514,0.0,0.0,0.0,0.0,0.0,0.0,0.0,0.0,0.0,0.02113758772611618,-0.002166887978091836,0.32313108444213867,0.0,0.0,0.0,0.0,0.0,0.0,0.0,0.0,0.0
1606827754765305747,1753803,1606827754757068428,imu_link,0.001763908308930695,0.0022776650730520487,0.19211404025554657,0.9813684225082397,0.0,0.0,0.0,0.0,0.0,0.0,0.0,0.0,0.0,22.152929306030273,0.21730703115463257,0.248507559299469,0.0,0.0,0.0,0.0,0.0,0.0,0.0,0.0,0.0,0.024278106167912483,-0.0010491374414414167,0.3164108991622925,0.0,0.0,0.0,0.0,0.0,0.0,0.0,0.0,0.0
1606827754765329546,1753804,1606827754757252733,imu_link,0.001763908308930695,0.0022776650730520487,0.19211404025554657,0.9813684225082397,0.0,0.0,0.0,0.0,0.0,0.0,0.0,0.0,0.0,22.152929306030273,0.21730703115463257,0.248507559299469,0.0,0.0,0.0,0.0,0.0,0.0,0.0,0.0,0.0,0.024278106167912483,-0.0010491374414414167,0.3164108991622925,0.0,0.0,0.0,0.0,0.0,0.0,0.0,0.0,0.0
1606827754765346688,1753805,1606827754757344600,imu_link,0.0017641159938648343,0.002281653229147196,0.19210654497146606,0.9813699126243591,0.0,0.0,0.0,0.0,0.0,0.0,0.0,0.0,0.0,22.152053833007812,0.2177528291940689,0.2486170530319214,0.0,0.0,0.0,0.0,0.0,0.0,0.0,0.0,0.0,0.0012709555448964238,0.00375268142670393,0.3220783770084381,0.0,0.0,0.0,0.0,0.0,0.0,0.0,0.0,0.0
1606827754765356324,1753806,1606827754757427055,imu_link,0.0017641159938648343,0.002281653229147196,0.19210654497146606,0.9813699126243591,0.0,0.0,0.0,0.0,0.0,0.0,0.0,0.0,0.0,22.152053833007812,0.2177528291940689,0.2486170530319214,0.0,0.0,0.0,0.0,0.0,0.0,0.0,0.0,0.0,0.0012709555448964238,0.00375268142670393,0.3220783770084381,0.0,0.0,0.0,0.0,0.0,0.0,0.0,0.0,0.0
1606827754769693742,1753807,1606827754757518301,imu_link,0.0017637524288147688,0.0022819426376372576,0.19210559129714966,0.9813700914382935,0.0,0.0,0.0,0.0,0.0,0.0,0.0,0.0,0.0,22.151941299438477,0.21779364347457886,0.24858231842517853,0.0,0.0,0.0,0.0,0.0,0.0,0.0,0.0,0.0,-0.003588678315281868,0.009557330049574375,0.32831478118896484,0.0,0.0,0.0,0.0,0.0,0.0,0.0,0.0,0.0
1606827754769714596,1753808,1606827754757619439,imu_link,0.0017637524288147688,0.0022819426376372576,0.19210559129714966,0.9813700914382935,0.0,0.0,0.0,0.0,0.0,0.0,0.0,0.0,0.0,22.151941299438477,0.21779364347457886,0.24858231842517853,0.0,0.0,0.0,0.0,0.0,0.0,0.0,0.0,0.0,-0.003588678315281868,0.009557330049574375,0.32831478118896484,0.0,0.0,0.0,0.0,0.0,0.0,0.0,0.0,0.0
1606827754769733531,1753809,1606827754757697490,imu_link,0.001760976854711771,0.002279927022755146,0.19210363924503326,0.9813704490661621,0.0,0.0,0.0,0.0,0.0,0.0,0.0,0.0,0.0,22.151710510253906,0.21762853860855103,0.2482253909111023,0.0,0.0,0.0,0.0,0.0,0.0,0.0,0.0,0.0,0.011068930849432945,0.008008590899407864,0.34467002749443054,0.0,0.0,0.0,0.0,0.0,0.0,0.0,0.0,0.0
1606827754769746409,1753810,1606827754757779729,imu_link,0.001760976854711771,0.002279927022755146,0.19210363924503326,0.9813704490661621,0.0,0.0,0.0,0.0,0.0,0.0,0.0,0.0,0.0,22.151710510253906,0.21762853860855103,0.2482253909111023,0.0,0.0,0.0,0.0,0.0,0.0,0.0,0.0,0.0,0.011068930849432945,0.008008590899407864,0.34467002749443054,0.0,0.0,0.0,0.0,0.0,0.0,0.0,0.0,0.0
1606827754769757724,1753811,1606827754757865432,imu_link,0.0017603951273486018,0.00227906322106719,0.19210322201251984,0.9813705682754517,0.0,0.0,0.0,0.0,0.0,0.0,0.0,0.0,0.0,22.15166473388672,0.2175443470478058,0.2481408417224884,0.0,0.0,0.0,0.0,0.0,0.0,0.0,0.0,0.0,0.00881496537476778,-0.0007855227449908853,0.33204221725463867,0.0,0.0,0.0,0.0,0.0,0.0,0.0,0.0,0.0
1606827754769766270,1753812,1606827754757949677,imu_link,0.0017603951273486018,0.00227906322106719,0.19210322201251984,0.9813705682754517,0.0,0.0,0.0,0.0,0.0,0.0,0.0,0.0,0.0,22.15166473388672,0.2175443470478058,0.2481408417224884,0.0,0.0,0.0,0.0,0.0,0.0,0.0,0.0,0.0,0.00881496537476778,-0.0007855227449908853,0.33204221725463867,0.0,0.0,0.0,0.0,0.0,0.0,0.0,0.0,0.0
1606827754789173981,1753813,1606827754770315432,imu_link,0.0017604063032194972,0.0022810962982475758,0.19210310280323029,0.9813705682754517,0.0,0.0,0.0,0.0,0.0,0.0,0.0,0.0,0.0,22.151649475097656,0.2177727371454239,0.248186856508255,0.0,0.0,0.0,0.0,0.0,0.0,0.0,0.0,0.0,-0.007050019688904285,-0.0025666658766567707,0.32346364855766296,0.0,0.0,0.0,0.0,0.0,0.0,0.0,0.0,0.0
1606827754789193598,1753814,1606827754770453792,imu_link,0.0017604063032194972,0.0022810962982475758,0.19210310280323029,0.9813705682754517,0.0,0.0,0.0,0.0,0.0,0.0,0.0,0.0,0.0,22.151649475097656,0.2177727371454239,0.248186856508255,0.0,0.0,0.0,0.0,0.0,0.0,0.0,0.0,0.0,-0.007050019688904285,-0.0025666658766567707,0.32346364855766296,0.0,0.0,0.0,0.0,0.0,0.0,0.0,0.0,0.0
1606827754789202788,1753815,1606827754770547713,imu_link,0.001760458224453032,0.00228108000010252,0.1921013742685318,0.9813709259033203,0.0,0.0,0.0,0.0,0.0,0.0,0.0,0.0,0.0,22.151447296142578,0.21777020394802094,0.2481919527053833,0.0,0.0,0.0,0.0,0.0,0.0,0.0,0.0,0.0,-0.015115750953555107,-0.008609144017100334,0.33696627616882324,0.0,0.0,0.0,0.0,0.0,0.0,0.0,0.0,0.0
1606827754789217048,1753816,1606827754770633351,imu_link,0.001760458224453032,0.00228108000010252,0.1921013742685318,0.9813709259033203,0.0,0.0,0.0,0.0,0.0,0.0,0.0,0.0,0.0,22.151447296142578,0.21777020394802094,0.2481919527053833,0.0,0.0,0.0,0.0,0.0,0.0,0.0,0.0,0.0,-0.015115750953555107,-0.008609144017100334,0.33696627616882324,0.0,0.0,0.0,0.0,0.0,0.0,0.0,0.0,0.0
1606827754789229209,1753817,1606827754770722547,imu_link,0.0017631700029596686,0.0022787239868193865,0.19210220873355865,0.981370747089386,0.0,0.0,0.0,0.0,0.0,0.0,0.0,0.0,0.0,22.15154457092285,0.21744535863399506,0.24844521284103394,0.0,0.0,0.0,0.0,0.0,0.0,0.0,0.0,0.0,-0.011121855117380619,0.003386945463716984,0.3365519046783447,0.0,0.0,0.0,0.0,0.0,0.0,0.0,0.0,0.0
1606827754789240512,1753818,1606827754770808390,imu_link,0.0017631700029596686,0.0022787239868193865,0.19210220873355865,0.981370747089386,0.0,0.0,0.0,0.0,0.0,0.0,0.0,0.0,0.0,22.15154457092285,0.21744535863399506,0.24844521284103394,0.0,0.0,0.0,0.0,0.0,0.0,0.0,0.0,0.0,-0.011121855117380619,0.003386945463716984,0.3365519046783447,0.0,0.0,0.0,0.0,0.0,0.0,0.0,0.0,0.0
1606827754789250926,1753819,1606827754770922874,imu_link,0.0017655534902587533,0.002277735387906432,0.1920986771583557,0.9813714623451233,0.0,0.0,0.0,0.0,0.0,0.0,0.0,0.0,0.0,22.151134490966797,0.21728262305259705,0.248690664768219,0.0,0.0,0.0,0.0,0.0,0.0,0.0,0.0,0.0,0.0005716838641092181,0.029991470277309418,0.3356243968009949,0.0,0.0,0.0,0.0,0.0,0.0,0.0,0.0,0.0
1606827754789257038,1753820,1606827754771021397,imu_link,0.0017655534902587533,0.002277735387906432,0.1920986771583557,0.9813714623451233,0.0,0.0,0.0,0.0,0.0,0.0,0.0,0.0,0.0,22.151134490966797,0.21728262305259705,0.248690664768219,0.0,0.0,0.0,0.0,0.0,0.0,0.0,0.0,0.0,0.0005716838641092181,0.029991470277309418,0.3356243968009949,0.0,0.0,0.0,0.0,0.0,0.0,0.0,0.0,0.0
1606827754793679666,1753821,1606827754771108808,imu_link,0.0017605600878596306,0.002277541672810912,0.1920977085828781,0.9813716411590576,0.0,0.0,0.0,0.0,0.0,0.0,0.0,0.0,0.0,22.151020050048828,0.21737098693847656,0.24812467396259308,0.0,0.0,0.0,0.0,0.0,0.0,0.0,0.0,0.0,-0.003053738037124276,0.0325821228325367,0.316527783870697,0.0,0.0,0.0,0.0,0.0,0.0,0.0,0.0,0.0
1606827754793698023,1753822,1606827754771186808,imu_link,0.0017605600878596306,0.002277541672810912,0.1920977085828781,0.9813716411590576,0.0,0.0,0.0,0.0,0.0,0.0,0.0,0.0,0.0,22.151020050048828,0.21737098693847656,0.24812467396259308,0.0,0.0,0.0,0.0,0.0,0.0,0.0,0.0,0.0,-0.003053738037124276,0.0325821228325367,0.316527783870697,0.0,0.0,0.0,0.0,0.0,0.0,0.0,0.0,0.0
1606827754793767235,1753823,1606827754771263716,imu_link,0.0017602514708414674,0.00227889372035861,0.19209767878055573,0.9813716411590576,0.0,0.0,0.0,0.0,0.0,0.0,0.0,0.0,0.0,22.151016235351562,0.21752983331680298,0.24811974167823792,0.0,0.0,0.0,0.0,0.0,0.0,0.0,0.0,0.0,-0.003677146974951029,0.02625860646367073,0.30809643864631653,0.0,0.0,0.0,0.0,0.0,0.0,0.0,0.0,0.0
1606827754793786669,1753824,1606827754784264974,imu_link,0.0017602514708414674,0.00227889372035861,0.19209767878055573,0.9813716411590576,0.0,0.0,0.0,0.0,0.0,0.0,0.0,0.0,0.0,22.151016235351562,0.21752983331680298,0.24811974167823792,0.0,0.0,0.0,0.0,0.0,0.0,0.0,0.0,0.0,-0.003677146974951029,0.02625860646367073,0.30809643864631653,0.0,0.0,0.0,0.0,0.0,0.0,0.0,0.0,0.0
1606827754793805535,1753825,1606827754784404556,imu_link,0.0017567995237186551,0.0022786937188357115,0.19209812581539154,0.9813715815544128,0.0,0.0,0.0,0.0,0.0,0.0,0.0,0.0,0.0,22.15106773376465,0.21758320927619934,0.24772721529006958,0.0,0.0,0.0,0.0,0.0,0.0,0.0,0.0,0.0,0.010627880692481995,0.008183769881725311,0.3187616467475891,0.0,0.0,0.0,0.0,0.0,0.0,0.0,0.0,0.0
1606827754793823907,1753826,1606827754784585253,imu_link,0.0017567995237186551,0.0022786937188357115,0.19209812581539154,0.9813715815544128,0.0,0.0,0.0,0.0,0.0,0.0,0.0,0.0,0.0,22.15106773376465,0.21758320927619934,0.24772721529006958,0.0,0.0,0.0,0.0,0.0,0.0,0.0,0.0,0.0,0.010627880692481995,0.008183769881725311,0.3187616467475891,0.0,0.0,0.0,0.0,0.0,0.0,0.0,0.0,0.0
1606827754793842794,1753827,1606827754784685475,imu_link,0.001756163313984871,0.0022782294545322657,0.1920965611934662,0.9813718795776367,0.0,0.0,0.0,0.0,0.0,0.0,0.0,0.0,0.0,22.1508846282959,0.21754539012908936,0.24764509499073029,0.0,0.0,0.0,0.0,0.0,0.0,0.0,0.0,0.0,0.008958575315773487,0.0010394033743068576,0.31888633966445923,0.0,0.0,0.0,0.0,0.0,0.0,0.0,0.0,0.0
1606827754793866670,1753828,1606827754784763540,imu_link,0.001756163313984871,0.0022782294545322657,0.1920965611934662,0.9813718795776367,0.0,0.0,0.0,0.0,0.0,0.0,0.0,0.0,0.0,22.1508846282959,0.21754539012908936,0.24764509499073029,0.0,0.0,0.0,0.0,0.0,0.0,0.0,0.0,0.0,0.008958575315773487,0.0010394033743068576,0.31888633966445923,0.0,0.0,0.0,0.0,0.0,0.0,0.0,0.0,0.0
1606827754793874268,1753829,1606827754784870993,imu_link,0.0017571154749020934,0.0022799097932875156,0.19209736585617065,0.9813716411590576,0.0,0.0,0.0,0.0,0.0,0.0,0.0,0.0,0.0,22.150981903076172,0.21771320700645447,0.2477893829345703,0.0,0.0,0.0,0.0,0.0,0.0,0.0,0.0,0.0,0.0052817203104496,0.007989991456270218,0.32677599787712097,0.0,0.0,0.0,0.0,0.0,0.0,0.0,0.0,0.0
1606827754794954317,1753830,1606827754784956876,imu_link,0.0017571154749020934,0.0022799097932875156,0.19209736585617065,0.9813716411590576,0.0,0.0,0.0,0.0,0.0,0.0,0.0,0.0,0.0,22.150981903076172,0.21771320700645447,0.2477893829345703,0.0,0.0,0.0,0.0,0.0,0.0,0.0,0.0,0.0,0.0052817203104496,0.007989991456270218,0.32677599787712097,0.0,0.0,0.0,0.0,0.0,0.0,0.0,0.0,0.0
1606827754794977671,1753831,1606827754785039782,imu_link,0.001757715828716755,0.0022793456446379423,0.19209517538547516,0.981372058391571,0.0,0.0,0.0,0.0,0.0,0.0,0.0,0.0,0.0,22.150726318359375,0.2176370918750763,0.24784396588802338,0.0,0.0,0.0,0.0,0.0,0.0,0.0,0.0,0.0,0.008734719827771187,0.011755435727536678,0.35440218448638916,0.0,0.0,0.0,0.0,0.0,0.0,0.0,0.0,0.0
1606827754795004845,1753832,1606827754785124172,imu_link,0.001757715828716755,0.0022793456446379423,0.19209517538547516,0.981372058391571,0.0,0.0,0.0,0.0,0.0,0.0,0.0,0.0,0.0,22.150726318359375,0.2176370918750763,0.24784396588802338,0.0,0.0,0.0,0.0,0.0,0.0,0.0,0.0,0.0,0.008734719827771187,0.011755435727536678,0.35440218448638916,0.0,0.0,0.0,0.0,0.0,0.0,0.0,0.0,0.0
1606827754795038404,1753833,1606827754785201566,imu_link,0.0017544615548104048,0.0022784420289099216,0.19208671152591705,0.9813737273216248,0.0,0.0,0.0,0.0,0.0,0.0,0.0,0.0,0.0,22.149734497070312,0.2176092267036438,0.24745625257492065,0.0,0.0,0.0,0.0,0.0,0.0,0.0,0.0,0.0,0.013656273484230042,0.005023718811571598,0.35716134309768677,0.0,0.0,0.0,0.0,0.0,0.0,0.0,0.0,0.0
1606827754795053433,1753834,1606827754785284201,imu_link,0.0017544615548104048,0.0022784420289099216,0.19208671152591705,0.9813737273216248,0.0,0.0,0.0,0.0,0.0,0.0,0.0,0.0,0.0,22.149734497070312,0.2176092267036438,0.24745625257492065,0.0,0.0,0.0,0.0,0.0,0.0,0.0,0.0,0.0,0.013656273484230042,0.005023718811571598,0.35716134309768677,0.0,0.0,0.0,0.0,0.0,0.0,0.0,0.0,0.0
1606827754804875214,1753835,1606827754797198299,imu_link,0.001752930460497737,0.0022778029087930918,0.19208668172359467,0.9813737869262695,0.0,0.0,0.0,0.0,0.0,0.0,0.0,0.0,0.0,22.149730682373047,0.21757109463214874,0.24726995825767517,0.0,0.0,0.0,0.0,0.0,0.0,0.0,0.0,0.0,0.017410501837730408,0.0049269539304077625,0.35808491706848145,0.0,0.0,0.0,0.0,0.0,0.0,0.0,0.0,0.0
1606827754805524663,1753836,1606827754797319881,imu_link,0.001752930460497737,0.0022778029087930918,0.19208668172359467,0.9813737869262695,0.0,0.0,0.0,0.0,0.0,0.0,0.0,0.0,0.0,22.149730682373047,0.21757109463214874,0.24726995825767517,0.0,0.0,0.0,0.0,0.0,0.0,0.0,0.0,0.0,0.017410501837730408,0.0049269539304077625,0.35808491706848145,0.0,0.0,0.0,0.0,0.0,0.0,0.0,0.0,0.0
1606827754805546575,1753837,1606827754797488274,imu_link,0.0017521401168778539,0.0022800914011895657,0.19207783043384552,0.9813754558563232,0.0,0.0,0.0,0.0,0.0,0.0,0.0,0.0,0.0,22.148698806762695,0.2178480476140976,0.24722951650619507,0.0,0.0,0.0,0.0,0.0,0.0,0.0,0.0,0.0,0.008999312296509743,0.006779284216463566,0.3441459536552429,0.0,0.0,0.0,0.0,0.0,0.0,0.0,0.0,0.0
1606827754805554247,1753838,1606827754797626933,imu_link,0.0017521401168778539,0.0022800914011895657,0.19207783043384552,0.9813754558563232,0.0,0.0,0.0,0.0,0.0,0.0,0.0,0.0,0.0,22.148698806762695,0.2178480476140976,0.24722951650619507,0.0,0.0,0.0,0.0,0.0,0.0,0.0,0.0,0.0,0.008999312296509743,0.006779284216463566,0.3441459536552429,0.0,0.0,0.0,0.0,0.0,0.0,0.0,0.0,0.0
1606827754805560046,1753839,1606827754797707327,imu_link,0.0017527637537568808,0.0022779982537031174,0.19207684695720673,0.9813756942749023,0.0,0.0,0.0,0.0,0.0,0.0,0.0,0.0,0.0,22.148584365844727,0.21759919822216034,0.24725334346294403,0.0,0.0,0.0,0.0,0.0,0.0,0.0,0.0,0.0,-0.002577281091362238,0.010428214445710182,0.29556432366371155,0.0,0.0,0.0,0.0,0.0,0.0,0.0,0.0,0.0
1606827754806144616,1753840,1606827754797799202,imu_link,0.0017527637537568808,0.0022779982537031174,0.19207684695720673,0.9813756942749023,0.0,0.0,0.0,0.0,0.0,0.0,0.0,0.0,0.0,22.148584365844727,0.21759919822216034,0.24725334346294403,0.0,0.0,0.0,0.0,0.0,0.0,0.0,0.0,0.0,-0.002577281091362238,0.010428214445710182,0.29556432366371155,0.0,0.0,0.0,0.0,0.0,0.0,0.0,0.0,0.0
1606827754806175950,1753841,1606827754797874036,imu_link,0.001751872943714261,0.002276374027132988,0.19206897914409637,0.9813772439956665,0.0,0.0,0.0,0.0,0.0,0.0,0.0,0.0,0.0,22.14766502380371,0.21743813157081604,0.24711570143699646,0.0,0.0,0.0,0.0,0.0,0.0,0.0,0.0,0.0,0.004876663908362389,0.011265288107097149,0.31277453899383545,0.0,0.0,0.0,0.0,0.0,0.0,0.0,0.0,0.0
1606827754806186795,1753842,1606827754797942172,imu_link,0.001751872943714261,0.002276374027132988,0.19206897914409637,0.9813772439956665,0.0,0.0,0.0,0.0,0.0,0.0,0.0,0.0,0.0,22.14766502380371,0.21743813157081604,0.24711570143699646,0.0,0.0,0.0,0.0,0.0,0.0,0.0,0.0,0.0,0.004876663908362389,0.011265288107097149,0.31277453899383545,0.0,0.0,0.0,0.0,0.0,0.0,0.0,0.0,0.0
1606827754806192043,1753843,1606827754798010578,imu_link,0.001752318348735571,0.0022763838060200214,0.19206906855106354,0.9813772439956665,0.0,0.0,0.0,0.0,0.0,0.0,0.0,0.0,0.0,22.147674560546875,0.21742939949035645,0.24716602265834808,0.0,0.0,0.0,0.0,0.0,0.0,0.0,0.0,0.0,0.004485615063458681,-0.004360264167189598,0.34964433312416077,0.0,0.0,0.0,0.0,0.0,0.0,0.0,0.0,0.0
1606827754820416625,1753844,1606827754798084781,imu_link,0.001752318348735571,0.0022763838060200214,0.19206906855106354,0.9813772439956665,0.0,0.0,0.0,0.0,0.0,0.0,0.0,0.0,0.0,22.147674560546875,0.21742939949035645,0.24716602265834808,0.0,0.0,0.0,0.0,0.0,0.0,0.0,0.0,0.0,0.004485615063458681,-0.004360264167189598,0.34964433312416077,0.0,0.0,0.0,0.0,0.0,0.0,0.0,0.0,0.0
1606827754821007318,1753845,1606827754810564294,imu_link,0.0017519972752779722,0.002277605701237917,0.19206319749355316,0.9813783764839172,0.0,0.0,0.0,0.0,0.0,0.0,0.0,0.0,0.0,22.146987915039062,0.21757537126541138,0.24715547263622284,0.0,0.0,0.0,0.0,0.0,0.0,0.0,0.0,0.0,-0.010124245658516884,-0.006986553315073252,0.33873194456100464,0.0,0.0,0.0,0.0,0.0,0.0,0.0,0.0,0.0
1606827754821024800,1753846,1606827754810710612,imu_link,0.0017519972752779722,0.002277605701237917,0.19206319749355316,0.9813783764839172,0.0,0.0,0.0,0.0,0.0,0.0,0.0,0.0,0.0,22.146987915039062,0.21757537126541138,0.24715547263622284,0.0,0.0,0.0,0.0,0.0,0.0,0.0,0.0,0.0,-0.010124245658516884,-0.006986553315073252,0.33873194456100464,0.0,0.0,0.0,0.0,0.0,0.0,0.0,0.0,0.0
1606827754821041908,1753847,1606827754810839084,imu_link,0.0017525473376736045,0.0022764906752854586,0.19206415116786957,0.9813781976699829,0.0,0.0,0.0,0.0,0.0,0.0,0.0,0.0,0.0,22.1471004486084,0.21743762493133545,0.24719302356243134,0.0,0.0,0.0,0.0,0.0,0.0,0.0,0.0,0.0,-0.001987755298614502,-0.0011478473898023367,0.31745606660842896,0.0,0.0,0.0,0.0,0.0,0.0,0.0,0.0,0.0
1606827754821053648,1753848,1606827754810918372,imu_link,0.0017525473376736045,0.0022764906752854586,0.19206415116786957,0.9813781976699829,0.0,0.0,0.0,0.0,0.0,0.0,0.0,0.0,0.0,22.1471004486084,0.21743762493133545,0.24719302356243134,0.0,0.0,0.0,0.0,0.0,0.0,0.0,0.0,0.0,-0.001987755298614502,-0.0011478473898023367,0.31745606660842896,0.0,0.0,0.0,0.0,0.0,0.0,0.0,0.0,0.0
1606827754821661574,1753849,1606827754810991470,imu_link,0.0017542544519528747,0.0022768934722989798,0.1920592188835144,0.9813792109489441,0.0,0.0,0.0,0.0,0.0,0.0,0.0,0.0,0.0,22.146522521972656,0.21744661033153534,0.24739274382591248,0.0,0.0,0.0,0.0,0.0,0.0,0.0,0.0,0.0,0.00943272840231657,0.009315588511526585,0.3377039432525635,0.0,0.0,0.0,0.0,0.0,0.0,0.0,0.0,0.0
1606827754821675940,1753850,1606827754811068132,imu_link,0.0017542544519528747,0.0022768934722989798,0.1920592188835144,0.9813792109489441,0.0,0.0,0.0,0.0,0.0,0.0,0.0,0.0,0.0,22.146522521972656,0.21744661033153534,0.24739274382591248,0.0,0.0,0.0,0.0,0.0,0.0,0.0,0.0,0.0,0.00943272840231657,0.009315588511526585,0.3377039432525635,0.0,0.0,0.0,0.0,0.0,0.0,0.0,0.0,0.0
1606827754821687654,1753851,1606827754811162856,imu_link,0.0017535758670419455,0.0022755316458642483,0.19205783307552338,0.9813794493675232,0.0,0.0,0.0,0.0,0.0,0.0,0.0,0.0,0.0,22.1463623046875,0.21730872988700867,0.24728615581989288,0.0,0.0,0.0,0.0,0.0,0.0,0.0,0.0,0.0,0.0040303925052285194,0.017824362963438034,0.34773579239845276,0.0,0.0,0.0,0.0,0.0,0.0,0.0,0.0,0.0
1606827754821700657,1753852,1606827754811240250,imu_link,0.0017535758670419455,0.0022755316458642483,0.19205783307552338,0.9813794493675232,0.0,0.0,0.0,0.0,0.0,0.0,0.0,0.0,0.0,22.1463623046875,0.21730872988700867,0.24728615581989288,0.0,0.0,0.0,0.0,0.0,0.0,0.0,0.0,0.0,0.0040303925052285194,0.017824362963438034,0.34773579239845276,0.0,0.0,0.0,0.0,0.0,0.0,0.0,0.0,0.0
1606827754825276010,1753853,1606827754811363549,imu_link,0.0017498955130577087,0.002276709070429206,0.1920517385005951,0.9813806414604187,0.0,0.0,0.0,0.0,0.0,0.0,0.0,0.0,0.0,22.14565086364746,0.21752367913722992,0.24689683318138123,0.0,0.0,0.0,0.0,0.0,0.0,0.0,0.0,0.0,0.003667816985398531,0.01183610875159502,0.30961179733276367,0.0,0.0,0.0,0.0,0.0,0.0,0.0,0.0,0.0
1606827754825300082,1753854,1606827754811443845,imu_link,0.0017498955130577087,0.002276709070429206,0.1920517385005951,0.9813806414604187,0.0,0.0,0.0,0.0,0.0,0.0,0.0,0.0,0.0,22.14565086364746,0.21752367913722992,0.24689683318138123,0.0,0.0,0.0,0.0,0.0,0.0,0.0,0.0,0.0,0.003667816985398531,0.01183610875159502,0.30961179733276367,0.0,0.0,0.0,0.0,0.0,0.0,0.0,0.0,0.0
1606827754825313775,1753855,1606827754811519860,imu_link,0.001750547089613974,0.0022786783520132303,0.19205056130886078,0.9813808798789978,0.0,0.0,0.0,0.0,0.0,0.0,0.0,0.0,0.0,22.1455135345459,0.21773108839988708,0.24701321125030518,0.0,0.0,0.0,0.0,0.0,0.0,0.0,0.0,0.0,0.007600062992423773,-0.001525149680674076,0.2998146116733551,0.0,0.0,0.0,0.0,0.0,0.0,0.0,0.0,0.0
1606827754832152150,1753856,1606827754824513509,imu_link,0.001750547089613974,0.0022786783520132303,0.19205056130886078,0.9813808798789978,0.0,0.0,0.0,0.0,0.0,0.0,0.0,0.0,0.0,22.1455135345459,0.21773108839988708,0.24701321125030518,0.0,0.0,0.0,0.0,0.0,0.0,0.0,0.0,0.0,0.007600062992423773,-0.001525149680674076,0.2998146116733551,0.0,0.0,0.0,0.0,0.0,0.0,0.0,0.0,0.0
1606827754833493992,1753857,1606827754824634766,imu_link,0.0017513004131615162,0.0022797405254095793,0.192050963640213,0.981380820274353,0.0,0.0,0.0,0.0,0.0,0.0,0.0,0.0,0.0,22.14556121826172,0.21783386170864105,0.24712137877941132,0.0,0.0,0.0,0.0,0.0,0.0,0.0,0.0,0.0,0.016553254798054695,-0.009883930906653404,0.35015180706977844,0.0,0.0,0.0,0.0,0.0,0.0,0.0,0.0,0.0
1606827754833521800,1753858,1606827754824791230,imu_link,0.0017513004131615162,0.0022797405254095793,0.192050963640213,0.981380820274353,0.0,0.0,0.0,0.0,0.0,0.0,0.0,0.0,0.0,22.14556121826172,0.21783386170864105,0.24712137877941132,0.0,0.0,0.0,0.0,0.0,0.0,0.0,0.0,0.0,0.016553254798054695,-0.009883930906653404,0.35015180706977844,0.0,0.0,0.0,0.0,0.0,0.0,0.0,0.0,0.0
1606827754833534297,1753859,1606827754824866260,imu_link,0.0017520603723824024,0.002278995933011174,0.19205066561698914,0.9813808798789978,0.0,0.0,0.0,0.0,0.0,0.0,0.0,0.0,0.0,22.145526885986328,0.2177334725856781,0.24719040095806122,0.0,0.0,0.0,0.0,0.0,0.0,0.0,0.0,0.0,0.015861915424466133,-0.011327716521918774,0.36208513379096985,0.0,0.0,0.0,0.0,0.0,0.0,0.0,0.0,0.0
1606827754833571433,1753860,1606827754824935050,imu_link,0.0017520603723824024,0.002278995933011174,0.19205066561698914,0.9813808798789978,0.0,0.0,0.0,0.0,0.0,0.0,0.0,0.0,0.0,22.145526885986328,0.2177334725856781,0.24719040095806122,0.0,0.0,0.0,0.0,0.0,0.0,0.0,0.0,0.0,0.015861915424466133,-0.011327716521918774,0.36208513379096985,0.0,0.0,0.0,0.0,0.0,0.0,0.0,0.0,0.0
1606827754833609363,1753861,1606827754825022060,imu_link,0.001754487631842494,0.002283651614561677,0.19205105304718018,0.9813807606697083,0.0,0.0,0.0,0.0,0.0,0.0,0.0,0.0,0.0,22.14557456970215,0.21820354461669922,0.24756589531898499,0.0,0.0,0.0,0.0,0.0,0.0,0.0,0.0,0.0,0.005242017097771168,-0.011119300499558449,0.33223068714141846,0.0,0.0,0.0,0.0,0.0,0.0,0.0,0.0,0.0
1606827754833621115,1753862,1606827754825114010,imu_link,0.001754487631842494,0.002283651614561677,0.19205105304718018,0.9813807606697083,0.0,0.0,0.0,0.0,0.0,0.0,0.0,0.0,0.0,22.14557456970215,0.21820354461669922,0.24756589531898499,0.0,0.0,0.0,0.0,0.0,0.0,0.0,0.0,0.0,0.005242017097771168,-0.011119300499558449,0.33223068714141846,0.0,0.0,0.0,0.0,0.0,0.0,0.0,0.0,0.0
1606827754833628977,1753863,1606827754825183843,imu_link,0.0017530544428154826,0.0022866849321871996,0.19205127656459808,0.9813806414604187,0.0,0.0,0.0,0.0,0.0,0.0,0.0,0.0,0.0,22.145601272583008,0.21857613325119019,0.24747158586978912,0.0,0.0,0.0,0.0,0.0,0.0,0.0,0.0,0.0,0.008179216645658016,-0.016694840043783188,0.3640648126602173,0.0,0.0,0.0,0.0,0.0,0.0,0.0,0.0,0.0
1606827754833640199,1753864,1606827754825257212,imu_link,0.0017530544428154826,0.0022866849321871996,0.19205127656459808,0.9813806414604187,0.0,0.0,0.0,0.0,0.0,0.0,0.0,0.0,0.0,22.145601272583008,0.21857613325119019,0.24747158586978912,0.0,0.0,0.0,0.0,0.0,0.0,0.0,0.0,0.0,0.008179216645658016,-0.016694840043783188,0.3640648126602173,0.0,0.0,0.0,0.0,0.0,0.0,0.0,0.0,0.0
1606827754834644137,1753865,1606827754825334087,imu_link,0.0017561297863721848,0.0022904607467353344,0.19205334782600403,0.9813802242279053,0.0,0.0,0.0,0.0,0.0,0.0,0.0,0.0,0.0,22.145843505859375,0.21893255412578583,0.24790097773075104,0.0,0.0,0.0,0.0,0.0,0.0,0.0,0.0,0.0,-0.0030085549224168062,-0.02140873298048973,0.3593638837337494,0.0,0.0,0.0,0.0,0.0,0.0,0.0,0.0,0.0
1606827754834662115,1753866,1606827754825407644,imu_link,0.0017561297863721848,0.0022904607467353344,0.19205334782600403,0.9813802242279053,0.0,0.0,0.0,0.0,0.0,0.0,0.0,0.0,0.0,22.145843505859375,0.21893255412578583,0.24790097773075104,0.0,0.0,0.0,0.0,0.0,0.0,0.0,0.0,0.0,-0.0030085549224168062,-0.02140873298048973,0.3593638837337494,0.0,0.0,0.0,0.0,0.0,0.0,0.0,0.0,0.0
1606827754845509002,1753867,1606827754837879690,imu_link,0.001754896016791463,0.002288812305778265,0.19205239415168762,0.9813804626464844,0.0,0.0,0.0,0.0,0.0,0.0,0.0,0.0,0.0,22.145732879638672,0.21877455711364746,0.2477257251739502,0.0,0.0,0.0,0.0,0.0,0.0,0.0,0.0,0.0,-0.006680362857878208,-0.02914697304368019,0.3438915014266968,0.0,0.0,0.0,0.0,0.0,0.0,0.0,0.0,0.0
1606827754846241985,1753868,1606827754838018275,imu_link,0.001754896016791463,0.002288812305778265,0.19205239415168762,0.9813804626464844,0.0,0.0,0.0,0.0,0.0,0.0,0.0,0.0,0.0,22.145732879638672,0.21877455711364746,0.2477257251739502,0.0,0.0,0.0,0.0,0.0,0.0,0.0,0.0,0.0,-0.006680362857878208,-0.02914697304368019,0.3438915014266968,0.0,0.0,0.0,0.0,0.0,0.0,0.0,0.0,0.0
1606827754846267105,1753869,1606827754838183782,imu_link,0.0017596706748008728,0.0022891643457114697,0.19205911457538605,0.9813791513442993,0.0,0.0,0.0,0.0,0.0,0.0,0.0,0.0,0.0,22.146516799926758,0.2187073826789856,0.24827194213867188,0.0,0.0,0.0,0.0,0.0,0.0,0.0,0.0,0.0,0.013101848773658276,-0.017695458605885506,0.35038089752197266,0.0,0.0,0.0,0.0,0.0,0.0,0.0,0.0,0.0
1606827754846280578,1753870,1606827754838264528,imu_link,0.0017596706748008728,0.0022891643457114697,0.19205911457538605,0.9813791513442993,0.0,0.0,0.0,0.0,0.0,0.0,0.0,0.0,0.0,22.146516799926758,0.2187073826789856,0.24827194213867188,0.0,0.0,0.0,0.0,0.0,0.0,0.0,0.0,0.0,0.013101848773658276,-0.017695458605885506,0.35038089752197266,0.0,0.0,0.0,0.0,0.0,0.0,0.0,0.0,0.0
1606827754846307805,1753871,1606827754838342438,imu_link,0.0017601937288418412,0.002288983203470707,0.19205856323242188,0.9813792705535889,0.0,0.0,0.0,0.0,0.0,0.0,0.0,0.0,0.0,22.146453857421875,0.2186756432056427,0.2483266443014145,0.0,0.0,0.0,0.0,0.0,0.0,0.0,0.0,0.0,0.010038096457719803,-0.008800200186669827,0.30161330103874207,0.0,0.0,0.0,0.0,0.0,0.0,0.0,0.0,0.0
1606827754847157691,1753872,1606827754838439231,imu_link,0.0017601937288418412,0.002288983203470707,0.19205856323242188,0.9813792705535889,0.0,0.0,0.0,0.0,0.0,0.0,0.0,0.0,0.0,22.146453857421875,0.2186756432056427,0.2483266443014145,0.0,0.0,0.0,0.0,0.0,0.0,0.0,0.0,0.0,0.010038096457719803,-0.008800200186669827,0.30161330103874207,0.0,0.0,0.0,0.0,0.0,0.0,0.0,0.0,0.0
1606827754847174102,1753873,1606827754838525055,imu_link,0.0017603287706151605,0.002291676588356495,0.19206269085407257,0.981378436088562,0.0,0.0,0.0,0.0,0.0,0.0,0.0,0.0,0.0,22.146934509277344,0.2189745008945465,0.24840204417705536,0.0,0.0,0.0,0.0,0.0,0.0,0.0,0.0,0.0,0.005541298538446426,-0.013271092437207699,0.3077830672264099,0.0,0.0,0.0,0.0,0.0,0.0,0.0,0.0,0.0
1606827754847181695,1753874,1606827754838602288,imu_link,0.0017603287706151605,0.002291676588356495,0.19206269085407257,0.981378436088562,0.0,0.0,0.0,0.0,0.0,0.0,0.0,0.0,0.0,22.146934509277344,0.2189745008945465,0.24840204417705536,0.0,0.0,0.0,0.0,0.0,0.0,0.0,0.0,0.0,0.005541298538446426,-0.013271092437207699,0.3077830672264099,0.0,0.0,0.0,0.0,0.0,0.0,0.0,0.0,0.0
1606827754847195894,1753875,1606827754838717569,imu_link,0.0017588208429515362,0.0022932367864996195,0.19206193089485168,0.9813786149024963,0.0,0.0,0.0,0.0,0.0,0.0,0.0,0.0,0.0,22.146846771240234,0.21918334066867828,0.24826660752296448,0.0,0.0,0.0,0.0,0.0,0.0,0.0,0.0,0.0,0.013647126033902168,-0.011005324311554432,0.3199666738510132,0.0,0.0,0.0,0.0,0.0,0.0,0.0,0.0,0.0
1606827754848395407,1753876,1606827754838805121,imu_link,0.0017588208429515362,0.0022932367864996195,0.19206193089485168,0.9813786149024963,0.0,0.0,0.0,0.0,0.0,0.0,0.0,0.0,0.0,22.146846771240234,0.21918334066867828,0.24826660752296448,0.0,0.0,0.0,0.0,0.0,0.0,0.0,0.0,0.0,0.013647126033902168,-0.011005324311554432,0.3199666738510132,0.0,0.0,0.0,0.0,0.0,0.0,0.0,0.0,0.0
1606827754848417729,1753877,1606827754838891145,imu_link,0.0017604676540941,0.002298501553013921,0.1920674443244934,0.9813775420188904,0.0,0.0,0.0,0.0,0.0,0.0,0.0,0.0,0.0,22.147493362426758,0.21973776817321777,0.24856895208358765,0.0,0.0,0.0,0.0,0.0,0.0,0.0,0.0,0.0,0.008679048158228397,-0.0026936824433505535,0.3002905547618866,0.0,0.0,0.0,0.0,0.0,0.0,0.0,0.0,0.0
1606827754858790734,1753878,1606827754850744242,imu_link,0.0017604676540941,0.002298501553013921,0.1920674443244934,0.9813775420188904,0.0,0.0,0.0,0.0,0.0,0.0,0.0,0.0,0.0,22.147493362426758,0.21973776817321777,0.24856895208358765,0.0,0.0,0.0,0.0,0.0,0.0,0.0,0.0,0.0,0.008679048158228397,-0.0026936824433505535,0.3002905547618866,0.0,0.0,0.0,0.0,0.0,0.0,0.0,0.0,0.0
1606827754859449548,1753879,1606827754850881569,imu_link,0.0017596939578652382,0.002299759304150939,0.19206613302230835,0.9813777804374695,0.0,0.0,0.0,0.0,0.0,0.0,0.0,0.0,0.0,22.1473388671875,0.2198965698480606,0.24850931763648987,0.0,0.0,0.0,0.0,0.0,0.0,0.0,0.0,0.0,-0.0056847333908081055,-0.01156850066035986,0.3172258138656616,0.0,0.0,0.0,0.0,0.0,0.0,0.0,0.0,0.0
1606827754859467431,1753880,1606827754851067739,imu_link,0.0017596939578652382,0.002299759304150939,0.19206613302230835,0.9813777804374695,0.0,0.0,0.0,0.0,0.0,0.0,0.0,0.0,0.0,22.1473388671875,0.2198965698480606,0.24850931763648987,0.0,0.0,0.0,0.0,0.0,0.0,0.0,0.0,0.0,-0.0056847333908081055,-0.01156850066035986,0.3172258138656616,0.0,0.0,0.0,0.0,0.0,0.0,0.0,0.0,0.0
1606827754859482876,1753881,1606827754851155065,imu_link,0.001762954518198967,0.002299270825460553,0.19205617904663086,0.9813796877861023,0.0,0.0,0.0,0.0,0.0,0.0,0.0,0.0,0.0,22.146181106567383,0.21977239847183228,0.24886299669742584,0.0,0.0,0.0,0.0,0.0,0.0,0.0,0.0,0.0,-0.019267180934548378,-0.016588620841503143,0.33485981822013855,0.0,0.0,0.0,0.0,0.0,0.0,0.0,0.0,0.0
1606827754859502958,1753882,1606827754851256409,imu_link,0.001762954518198967,0.002299270825460553,0.19205617904663086,0.9813796877861023,0.0,0.0,0.0,0.0,0.0,0.0,0.0,0.0,0.0,22.146181106567383,0.21977239847183228,0.24886299669742584,0.0,0.0,0.0,0.0,0.0,0.0,0.0,0.0,0.0,-0.019267180934548378,-0.016588620841503143,0.33485981822013855,0.0,0.0,0.0,0.0,0.0,0.0,0.0,0.0,0.0
1606827754862065778,1753883,1606827754851400051,imu_link,0.0017628942150622606,0.002297243569046259,0.19205570220947266,0.9813798069953918,0.0,0.0,0.0,0.0,0.0,0.0,0.0,0.0,0.0,22.146120071411133,0.2195458561182022,0.2488114982843399,0.0,0.0,0.0,0.0,0.0,0.0,0.0,0.0,0.0,-0.02233893983066082,-0.008887086994946003,0.35078996419906616,0.0,0.0,0.0,0.0,0.0,0.0,0.0,0.0,0.0
1606827754862089675,1753884,1606827754851480707,imu_link,0.0017628942150622606,0.002297243569046259,0.19205570220947266,0.9813798069953918,0.0,0.0,0.0,0.0,0.0,0.0,0.0,0.0,0.0,22.146120071411133,0.2195458561182022,0.2488114982843399,0.0,0.0,0.0,0.0,0.0,0.0,0.0,0.0,0.0,-0.02233893983066082,-0.008887086994946003,0.35078996419906616,0.0,0.0,0.0,0.0,0.0,0.0,0.0,0.0,0.0
1606827754862103974,1753885,1606827754851560737,imu_link,0.0017662327736616135,0.0022917725145816803,0.192047119140625,0.9813814163208008,0.0,0.0,0.0,0.0,0.0,0.0,0.0,0.0,0.0,22.14512062072754,0.21885930001735687,0.24906465411186218,0.0,0.0,0.0,0.0,0.0,0.0,0.0,0.0,0.0,-0.0031747273169457912,0.00754664046689868,0.35991495847702026,0.0,0.0,0.0,0.0,0.0,0.0,0.0,0.0,0.0
1606827754862121075,1753886,1606827754851633414,imu_link,0.0017662327736616135,0.0022917725145816803,0.192047119140625,0.9813814163208008,0.0,0.0,0.0,0.0,0.0,0.0,0.0,0.0,0.0,22.14512062072754,0.21885930001735687,0.24906465411186218,0.0,0.0,0.0,0.0,0.0,0.0,0.0,0.0,0.0,-0.0031747273169457912,0.00754664046689868,0.35991495847702026,0.0,0.0,0.0,0.0,0.0,0.0,0.0,0.0,0.0
1606827754862138373,1753887,1606827754851717619,imu_link,0.0017667015781626105,0.0022915147710591555,0.19204680621623993,0.9813814759254456,0.0,0.0,0.0,0.0,0.0,0.0,0.0,0.0,0.0,22.14508628845215,0.21882006525993347,0.249111607670784,0.0,0.0,0.0,0.0,0.0,0.0,0.0,0.0,0.0,0.008719065226614475,0.00864468701183796,0.3562781810760498,0.0,0.0,0.0,0.0,0.0,0.0,0.0,0.0,0.0
1606827754871850976,1753888,1606827754860576917,imu_link,0.0017667015781626105,0.0022915147710591555,0.19204680621623993,0.9813814759254456,0.0,0.0,0.0,0.0,0.0,0.0,0.0,0.0,0.0,22.14508628845215,0.21882006525993347,0.249111607670784,0.0,0.0,0.0,0.0,0.0,0.0,0.0,0.0,0.0,0.008719065226614475,0.00864468701183796,0.3562781810760498,0.0,0.0,0.0,0.0,0.0,0.0,0.0,0.0,0.0
1606827754872357792,1753889,1606827754860715141,imu_link,0.0017642566235736012,0.002292226767167449,0.1920444220304489,0.9813819527626038,0.0,0.0,0.0,0.0,0.0,0.0,0.0,0.0,0.0,22.144804000854492,0.21895456314086914,0.24885176122188568,0.0,0.0,0.0,0.0,0.0,0.0,0.0,0.0,0.0,0.010931386612355709,-0.004035680554807186,0.3640504479408264,0.0,0.0,0.0,0.0,0.0,0.0,0.0,0.0,0.0
1606827754872377274,1753890,1606827754861049598,imu_link,0.0017642566235736012,0.002292226767167449,0.1920444220304489,0.9813819527626038,0.0,0.0,0.0,0.0,0.0,0.0,0.0,0.0,0.0,22.144804000854492,0.21895456314086914,0.24885176122188568,0.0,0.0,0.0,0.0,0.0,0.0,0.0,0.0,0.0,0.010931386612355709,-0.004035680554807186,0.3640504479408264,0.0,0.0,0.0,0.0,0.0,0.0,0.0,0.0,0.0
1606827754872385877,1753891,1606827754861156605,imu_link,0.0017632452072575688,0.002290538279339671,0.1920422911643982,0.981382429599762,0.0,0.0,0.0,0.0,0.0,0.0,0.0,0.0,0.0,22.144554138183594,0.21878746151924133,0.24870038032531738,0.0,0.0,0.0,0.0,0.0,0.0,0.0,0.0,0.0,0.005528668407350779,-0.004542219452559948,0.3697255551815033,0.0,0.0,0.0,0.0,0.0,0.0,0.0,0.0,0.0
1606827754872391321,1753892,1606827754861236068,imu_link,0.0017632452072575688,0.002290538279339671,0.1920422911643982,0.981382429599762,0.0,0.0,0.0,0.0,0.0,0.0,0.0,0.0,0.0,22.144554138183594,0.21878746151924133,0.24870038032531738,0.0,0.0,0.0,0.0,0.0,0.0,0.0,0.0,0.0,0.005528668407350779,-0.004542219452559948,0.3697255551815033,0.0,0.0,0.0,0.0,0.0,0.0,0.0,0.0,0.0
1606827754875893111,1753893,1606827754861315662,imu_link,0.001764569547958672,0.002292746677994728,0.19204109907150269,0.9813826680183411,0.0,0.0,0.0,0.0,0.0,0.0,0.0,0.0,0.0,22.14441680908203,0.2190069854259491,0.24889765679836273,0.0,0.0,0.0,0.0,0.0,0.0,0.0,0.0,0.0,-0.010916072875261307,-0.003084021620452404,0.34871524572372437,0.0,0.0,0.0,0.0,0.0,0.0,0.0,0.0,0.0
1606827754875910148,1753894,1606827754861393096,imu_link,0.001764569547958672,0.002292746677994728,0.19204109907150269,0.9813826680183411,0.0,0.0,0.0,0.0,0.0,0.0,0.0,0.0,0.0,22.14441680908203,0.2190069854259491,0.24889765679836273,0.0,0.0,0.0,0.0,0.0,0.0,0.0,0.0,0.0,-0.010916072875261307,-0.003084021620452404,0.34871524572372437,0.0,0.0,0.0,0.0,0.0,0.0,0.0,0.0,0.0
1606827754875914930,1753895,1606827754861468409,imu_link,0.001764948945492506,0.002293005585670471,0.19203966856002808,0.9813829064369202,0.0,0.0,0.0,0.0,0.0,0.0,0.0,0.0,0.0,22.144250869750977,0.21902811527252197,0.2489457130432129,0.0,0.0,0.0,0.0,0.0,0.0,0.0,0.0,0.0,-0.01561369001865387,0.003530286718159914,0.334698885679245,0.0,0.0,0.0,0.0,0.0,0.0,0.0,0.0,0.0
1606827754882113840,1753896,1606827754874394749,imu_link,0.001764948945492506,0.002293005585670471,0.19203966856002808,0.9813829064369202,0.0,0.0,0.0,0.0,0.0,0.0,0.0,0.0,0.0,22.144250869750977,0.21902811527252197,0.2489457130432129,0.0,0.0,0.0,0.0,0.0,0.0,0.0,0.0,0.0,-0.01561369001865387,0.003530286718159914,0.334698885679245,0.0,0.0,0.0,0.0,0.0,0.0,0.0,0.0,0.0
1606827754884611624,1753897,1606827754874541673,imu_link,0.0017630304209887981,0.0022905028890818357,0.19203363358974457,0.9813841581344604,0.0,0.0,0.0,0.0,0.0,0.0,0.0,0.0,0.0,22.143543243408203,0.2187904268503189,0.24867351353168488,0.0,0.0,0.0,0.0,0.0,0.0,0.0,0.0,0.0,0.0021777497604489326,-0.004956770222634077,0.32250308990478516,0.0,0.0,0.0,0.0,0.0,0.0,0.0,0.0,0.0
1606827754884627304,1753898,1606827754874726906,imu_link,0.0017630304209887981,0.0022905028890818357,0.19203363358974457,0.9813841581344604,0.0,0.0,0.0,0.0,0.0,0.0,0.0,0.0,0.0,22.143543243408203,0.2187904268503189,0.24867351353168488,0.0,0.0,0.0,0.0,0.0,0.0,0.0,0.0,0.0,0.0021777497604489326,-0.004956770222634077,0.32250308990478516,0.0,0.0,0.0,0.0,0.0,0.0,0.0,0.0,0.0
1606827754884670673,1753899,1606827754874807853,imu_link,0.0017635554540902376,0.0022899324540048838,0.19203348457813263,0.9813841581344604,0.0,0.0,0.0,0.0,0.0,0.0,0.0,0.0,0.0,22.143526077270508,0.21871475875377655,0.2487199902534485,0.0,0.0,0.0,0.0,0.0,0.0,0.0,0.0,0.0,0.016784902662038803,0.0034787501208484173,0.3178987205028534,0.0,0.0,0.0,0.0,0.0,0.0,0.0,0.0,0.0
1606827754884680217,1753900,1606827754874883106,imu_link,0.0017635554540902376,0.0022899324540048838,0.19203348457813263,0.9813841581344604,0.0,0.0,0.0,0.0,0.0,0.0,0.0,0.0,0.0,22.143526077270508,0.21871475875377655,0.2487199902534485,0.0,0.0,0.0,0.0,0.0,0.0,0.0,0.0,0.0,0.016784902662038803,0.0034787501208484173,0.3178987205028534,0.0,0.0,0.0,0.0,0.0,0.0,0.0,0.0,0.0
1606827754884688822,1753901,1606827754874988384,imu_link,0.0017626426415517926,0.002292829565703869,0.19202883541584015,0.9813850522041321,0.0,0.0,0.0,0.0,0.0,0.0,0.0,0.0,0.0,22.142982482910156,0.21906182169914246,0.2486800253391266,0.0,0.0,0.0,0.0,0.0,0.0,0.0,0.0,0.0,0.012734786607325077,0.013806483708322048,0.3339635133743286,0.0,0.0,0.0,0.0,0.0,0.0,0.0,0.0,0.0
1606827754884708524,1753902,1606827754875101861,imu_link,0.0017626426415517926,0.002292829565703869,0.19202883541584015,0.9813850522041321,0.0,0.0,0.0,0.0,0.0,0.0,0.0,0.0,0.0,22.142982482910156,0.21906182169914246,0.2486800253391266,0.0,0.0,0.0,0.0,0.0,0.0,0.0,0.0,0.0,0.012734786607325077,0.013806483708322048,0.3339635133743286,0.0,0.0,0.0,0.0,0.0,0.0,0.0,0.0,0.0
1606827754884722805,1753903,1606827754875191172,imu_link,0.001764139044098556,0.002290574600920081,0.19202709197998047,0.9813854098320007,0.0,0.0,0.0,0.0,0.0,0.0,0.0,0.0,0.0,22.142778396606445,0.21877574920654297,0.24879832565784454,0.0,0.0,0.0,0.0,0.0,0.0,0.0,0.0,0.0,0.01073004025965929,0.008549103513360023,0.33438101410865784,0.0,0.0,0.0,0.0,0.0,0.0,0.0,0.0,0.0
1606827754884742441,1753904,1606827754875269107,imu_link,0.001764139044098556,0.002290574600920081,0.19202709197998047,0.9813854098320007,0.0,0.0,0.0,0.0,0.0,0.0,0.0,0.0,0.0,22.142778396606445,0.21877574920654297,0.24879832565784454,0.0,0.0,0.0,0.0,0.0,0.0,0.0,0.0,0.0,0.01073004025965929,0.008549103513360023,0.33438101410865784,0.0,0.0,0.0,0.0,0.0,0.0,0.0,0.0,0.0
1606827754884755298,1753905,1606827754875409241,imu_link,0.001762121799401939,0.002293724799528718,0.192026749253273,0.9813854694366455,0.0,0.0,0.0,0.0,0.0,0.0,0.0,0.0,0.0,22.14274024963379,0.21917447447776794,0.24864071607589722,0.0,0.0,0.0,0.0,0.0,0.0,0.0,0.0,0.0,0.011161144822835922,0.0058037335984408855,0.35057690739631653,0.0,0.0,0.0,0.0,0.0,0.0,0.0,0.0,0.0
1606827754884767624,1753906,1606827754875497965,imu_link,0.001762121799401939,0.002293724799528718,0.192026749253273,0.9813854694366455,0.0,0.0,0.0,0.0,0.0,0.0,0.0,0.0,0.0,22.14274024963379,0.21917447447776794,0.24864071607589722,0.0,0.0,0.0,0.0,0.0,0.0,0.0,0.0,0.0,0.011161144822835922,0.0058037335984408855,0.35057690739631653,0.0,0.0,0.0,0.0,0.0,0.0,0.0,0.0,0.0
1606827754895530436,1753907,1606827754887834033,imu_link,0.001762087456882,0.00229586660861969,0.19202616810798645,0.9813855886459351,0.0,0.0,0.0,0.0,0.0,0.0,0.0,0.0,0.0,22.142671585083008,0.21941624581813812,0.2486838698387146,0.0,0.0,0.0,0.0,0.0,0.0,0.0,0.0,0.0,0.011121589690446854,0.0009379119146615267,0.3485770523548126,0.0,0.0,0.0,0.0,0.0,0.0,0.0,0.0,0.0
1606827754896795233,1753908,1606827754887973976,imu_link,0.001762087456882,0.00229586660861969,0.19202616810798645,0.9813855886459351,0.0,0.0,0.0,0.0,0.0,0.0,0.0,0.0,0.0,22.142671585083008,0.21941624581813812,0.2486838698387146,0.0,0.0,0.0,0.0,0.0,0.0,0.0,0.0,0.0,0.011121589690446854,0.0009379119146615267,0.3485770523548126,0.0,0.0,0.0,0.0,0.0,0.0,0.0,0.0,0.0
1606827754896829104,1753909,1606827754888143427,imu_link,0.0017609624192118645,0.0022975809406489134,0.19202832877635956,0.9813851714134216,0.0,0.0,0.0,0.0,0.0,0.0,0.0,0.0,0.0,22.142925262451172,0.21963325142860413,0.24859555065631866,0.0,0.0,0.0,0.0,0.0,0.0,0.0,0.0,0.0,0.002716011367738247,0.007547678891569376,0.2980726957321167,0.0,0.0,0.0,0.0,0.0,0.0,0.0,0.0,0.0
1606827754896861633,1753910,1606827754888222579,imu_link,0.0017609624192118645,0.0022975809406489134,0.19202832877635956,0.9813851714134216,0.0,0.0,0.0,0.0,0.0,0.0,0.0,0.0,0.0,22.142925262451172,0.21963325142860413,0.24859555065631866,0.0,0.0,0.0,0.0,0.0,0.0,0.0,0.0,0.0,0.002716011367738247,0.007547678891569376,0.2980726957321167,0.0,0.0,0.0,0.0,0.0,0.0,0.0,0.0,0.0
1606827754896876066,1753911,1606827754888300229,imu_link,0.0017616419354453683,0.0022974335588514805,0.19202804565429688,0.9813852310180664,0.0,0.0,0.0,0.0,0.0,0.0,0.0,0.0,0.0,22.142892837524414,0.2196018099784851,0.24866865575313568,0.0,0.0,0.0,0.0,0.0,0.0,0.0,0.0,0.0,-0.005096002947539091,-0.009217857383191586,0.3003242313861847,0.0,0.0,0.0,0.0,0.0,0.0,0.0,0.0,0.0
1606827754896905318,1753912,1606827754888377191,imu_link,0.0017616419354453683,0.0022974335588514805,0.19202804565429688,0.9813852310180664,0.0,0.0,0.0,0.0,0.0,0.0,0.0,0.0,0.0,22.142892837524414,0.2196018099784851,0.24866865575313568,0.0,0.0,0.0,0.0,0.0,0.0,0.0,0.0,0.0,-0.005096002947539091,-0.009217857383191586,0.3003242313861847,0.0,0.0,0.0,0.0,0.0,0.0,0.0,0.0,0.0
1606827754896927418,1753913,1606827754888490172,imu_link,0.0017625109758228064,0.00229585450142622,0.19202864170074463,0.9813851118087769,0.0,0.0,0.0,0.0,0.0,0.0,0.0,0.0,0.0,22.142961502075195,0.21940495073795319,0.24873176217079163,0.0,0.0,0.0,0.0,0.0,0.0,0.0,0.0,0.0,-0.0038726762868463993,-0.025371229276061058,0.333303302526474,0.0,0.0,0.0,0.0,0.0,0.0,0.0,0.0,0.0
1606827754896944946,1753914,1606827754888569605,imu_link,0.0017625109758228064,0.00229585450142622,0.19202864170074463,0.9813851118087769,0.0,0.0,0.0,0.0,0.0,0.0,0.0,0.0,0.0,22.142961502075195,0.21940495073795319,0.24873176217079163,0.0,0.0,0.0,0.0,0.0,0.0,0.0,0.0,0.0,-0.0038726762868463993,-0.025371229276061058,0.333303302526474,0.0,0.0,0.0,0.0,0.0,0.0,0.0,0.0,0.0
1606827754896958474,1753915,1606827754888646022,imu_link,0.0017617795383557677,0.0022952633444219828,0.192027747631073,0.9813852906227112,0.0,0.0,0.0,0.0,0.0,0.0,0.0,0.0,0.0,22.14285659790039,0.2193547934293747,0.24863632023334503,0.0,0.0,0.0,0.0,0.0,0.0,0.0,0.0,0.0,0.016757188364863396,0.0038428364787250757,0.3323170244693756,0.0,0.0,0.0,0.0,0.0,0.0,0.0,0.0,0.0
1606827754896968663,1753916,1606827754888728738,imu_link,0.0017617795383557677,0.0022952633444219828,0.192027747631073,0.9813852906227112,0.0,0.0,0.0,0.0,0.0,0.0,0.0,0.0,0.0,22.14285659790039,0.2193547934293747,0.24863632023334503,0.0,0.0,0.0,0.0,0.0,0.0,0.0,0.0,0.0,0.016757188364863396,0.0038428364787250757,0.3323170244693756,0.0,0.0,0.0,0.0,0.0,0.0,0.0,0.0,0.0
1606827754897024275,1753917,1606827754888816771,imu_link,0.0017600370338186622,0.0022987297270447016,0.19202739000320435,0.981385350227356,0.0,0.0,0.0,0.0,0.0,0.0,0.0,0.0,0.0,22.142818450927734,0.21978303790092468,0.24851655960083008,0.0,0.0,0.0,0.0,0.0,0.0,0.0,0.0,0.0,0.009060157462954521,0.018032142892479897,0.32843515276908875,0.0,0.0,0.0,0.0,0.0,0.0,0.0,0.0,0.0
1606827754920362040,1753918,1606827754901768159,imu_link,0.0017600370338186622,0.0022987297270447016,0.19202739000320435,0.981385350227356,0.0,0.0,0.0,0.0,0.0,0.0,0.0,0.0,0.0,22.142818450927734,0.21978303790092468,0.24851655960083008,0.0,0.0,0.0,0.0,0.0,0.0,0.0,0.0,0.0,0.009060157462954521,0.018032142892479897,0.32843515276908875,0.0,0.0,0.0,0.0,0.0,0.0,0.0,0.0,0.0
1606827754920401132,1753919,1606827754901908823,imu_link,0.0017586811445653439,0.0022991064470261335,0.1920274943113327,0.981385350227356,0.0,0.0,0.0,0.0,0.0,0.0,0.0,0.0,0.0,22.1428279876709,0.21985521912574768,0.2483724057674408,0.0,0.0,0.0,0.0,0.0,0.0,0.0,0.0,0.0,-0.0014601314906030893,0.01460807304829359,0.3341423571109772,0.0,0.0,0.0,0.0,0.0,0.0,0.0,0.0,0.0
1606827754920408413,1753920,1606827754902084348,imu_link,0.0017586811445653439,0.0022991064470261335,0.1920274943113327,0.981385350227356,0.0,0.0,0.0,0.0,0.0,0.0,0.0,0.0,0.0,22.1428279876709,0.21985521912574768,0.2483724057674408,0.0,0.0,0.0,0.0,0.0,0.0,0.0,0.0,0.0,-0.0014601314906030893,0.01460807304829359,0.3341423571109772,0.0,0.0,0.0,0.0,0.0,0.0,0.0,0.0,0.0
1606827754920417157,1753921,1606827754902171600,imu_link,0.0017579594859853387,0.002300763037055731,0.1920289546251297,0.9813849925994873,0.0,0.0,0.0,0.0,0.0,0.0,0.0,0.0,0.0,22.14299964904785,0.22005704045295715,0.24832803010940552,0.0,0.0,0.0,0.0,0.0,0.0,0.0,0.0,0.0,-0.0019536896143108606,0.010671397671103477,0.35827821493148804,0.0,0.0,0.0,0.0,0.0,0.0,0.0,0.0,0.0
1606827754920437948,1753922,1606827754902249565,imu_link,0.0017579594859853387,0.002300763037055731,0.1920289546251297,0.9813849925994873,0.0,0.0,0.0,0.0,0.0,0.0,0.0,0.0,0.0,22.14299964904785,0.22005704045295715,0.24832803010940552,0.0,0.0,0.0,0.0,0.0,0.0,0.0,0.0,0.0,-0.0019536896143108606,0.010671397671103477,0.35827821493148804,0.0,0.0,0.0,0.0,0.0,0.0,0.0,0.0,0.0
1606827754921084624,1753923,1606827754902350974,imu_link,0.0017597094411030412,0.002300273161381483,0.1920282542705536,0.9813851118087769,0.0,0.0,0.0,0.0,0.0,0.0,0.0,0.0,0.0,22.142919540405273,0.21996359527111053,0.24851387739181519,0.0,0.0,0.0,0.0,0.0,0.0,0.0,0.0,0.0,-0.00528912665322423,0.017205683514475822,0.36890503764152527,0.0,0.0,0.0,0.0,0.0,0.0,0.0,0.0,0.0
1606827754921122425,1753924,1606827754902442059,imu_link,0.0017597094411030412,0.002300273161381483,0.1920282542705536,0.9813851118087769,0.0,0.0,0.0,0.0,0.0,0.0,0.0,0.0,0.0,22.142919540405273,0.21996359527111053,0.24851387739181519,0.0,0.0,0.0,0.0,0.0,0.0,0.0,0.0,0.0,-0.00528912665322423,0.017205683514475822,0.36890503764152527,0.0,0.0,0.0,0.0,0.0,0.0,0.0,0.0,0.0
1606827754921128850,1753925,1606827754902521382,imu_link,0.0017571672797203064,0.002298434032127261,0.1920316517353058,0.9813844561576843,0.0,0.0,0.0,0.0,0.0,0.0,0.0,0.0,0.0,22.143314361572266,0.21981185674667358,0.2481883019208908,0.0,0.0,0.0,0.0,0.0,0.0,0.0,0.0,0.0,0.0007826286600902677,0.01050715520977974,0.3442024886608124,0.0,0.0,0.0,0.0,0.0,0.0,0.0,0.0,0.0
1606827754921140461,1753926,1606827754902638347,imu_link,0.0017571672797203064,0.002298434032127261,0.1920316517353058,0.9813844561576843,0.0,0.0,0.0,0.0,0.0,0.0,0.0,0.0,0.0,22.143314361572266,0.21981185674667358,0.2481883019208908,0.0,0.0,0.0,0.0,0.0,0.0,0.0,0.0,0.0,0.0007826286600902677,0.01050715520977974,0.3442024886608124,0.0,0.0,0.0,0.0,0.0,0.0,0.0,0.0,0.0
1606827754923971123,1753927,1606827754902716367,imu_link,0.0017558226827532053,0.002297696890309453,0.192031592130661,0.9813845157623291,0.0,0.0,0.0,0.0,0.0,0.0,0.0,0.0,0.0,22.143306732177734,0.2197585552930832,0.24802082777023315,0.0,0.0,0.0,0.0,0.0,0.0,0.0,0.0,0.0,-0.0068350909277796745,-0.005856098607182503,0.3302868902683258,0.0,0.0,0.0,0.0,0.0,0.0,0.0,0.0,0.0
1606827754923995087,1753928,1606827754902799509,imu_link,0.0017558226827532053,0.002297696890309453,0.192031592130661,0.9813845157623291,0.0,0.0,0.0,0.0,0.0,0.0,0.0,0.0,0.0,22.143306732177734,0.2197585552930832,0.24802082777023315,0.0,0.0,0.0,0.0,0.0,0.0,0.0,0.0,0.0,-0.0068350909277796745,-0.005856098607182503,0.3302868902683258,0.0,0.0,0.0,0.0,0.0,0.0,0.0,0.0,0.0
1606827754924014276,1753929,1606827754914606665,imu_link,0.0017557537648826838,0.002297217957675457,0.19202768802642822,0.9813852906227112,0.0,0.0,0.0,0.0,0.0,0.0,0.0,0.0,0.0,22.142852783203125,0.2197072058916092,0.24800167977809906,0.0,0.0,0.0,0.0,0.0,0.0,0.0,0.0,0.0,-0.005837499629706144,-0.004304768517613411,0.33803272247314453,0.0,0.0,0.0,0.0,0.0,0.0,0.0,0.0,0.0
1606827754924027480,1753930,1606827754914757183,imu_link,0.0017557537648826838,0.002297217957675457,0.19202768802642822,0.9813852906227112,0.0,0.0,0.0,0.0,0.0,0.0,0.0,0.0,0.0,22.142852783203125,0.2197072058916092,0.24800167977809906,0.0,0.0,0.0,0.0,0.0,0.0,0.0,0.0,0.0,-0.005837499629706144,-0.004304768517613411,0.33803272247314453,0.0,0.0,0.0,0.0,0.0,0.0,0.0,0.0,0.0
1606827754924056151,1753931,1606827754914893703,imu_link,0.0017554220976307988,0.0022968219127506018,0.19202998280525208,0.9813848733901978,0.0,0.0,0.0,0.0,0.0,0.0,0.0,0.0,0.0,22.143115997314453,0.2196694165468216,0.24795615673065186,0.0,0.0,0.0,0.0,0.0,0.0,0.0,0.0,0.0,0.0049049267545342445,-0.0005893857451155782,0.362382709980011,0.0,0.0,0.0,0.0,0.0,0.0,0.0,0.0,0.0
1606827754924078468,1753932,1606827754914974023,imu_link,0.0017554220976307988,0.0022968219127506018,0.19202998280525208,0.9813848733901978,0.0,0.0,0.0,0.0,0.0,0.0,0.0,0.0,0.0,22.143115997314453,0.2196694165468216,0.24795615673065186,0.0,0.0,0.0,0.0,0.0,0.0,0.0,0.0,0.0,0.0049049267545342445,-0.0005893857451155782,0.362382709980011,0.0,0.0,0.0,0.0,0.0,0.0,0.0,0.0,0.0
1606827754925310802,1753933,1606827754915064196,imu_link,0.0017552461940795183,0.002298628445714712,0.19202424585819244,0.9813858866691589,0.0,0.0,0.0,0.0,0.0,0.0,0.0,0.0,0.0,22.1424503326416,0.21987786889076233,0.24797485768795013,0.0,0.0,0.0,0.0,0.0,0.0,0.0,0.0,0.0,0.0050064679235219955,-0.003295379690825939,0.359977126121521,0.0,0.0,0.0,0.0,0.0,0.0,0.0,0.0,0.0
1606827754925331042,1753934,1606827754915161381,imu_link,0.0017552461940795183,0.002298628445714712,0.19202424585819244,0.9813858866691589,0.0,0.0,0.0,0.0,0.0,0.0,0.0,0.0,0.0,22.1424503326416,0.21987786889076233,0.24797485768795013,0.0,0.0,0.0,0.0,0.0,0.0,0.0,0.0,0.0,0.0050064679235219955,-0.003295379690825939,0.359977126121521,0.0,0.0,0.0,0.0,0.0,0.0,0.0,0.0,0.0
1606827754925348831,1753935,1606827754915238363,imu_link,0.0017567711183801293,0.002299515763297677,0.192023366689682,0.9813860654830933,0.0,0.0,0.0,0.0,0.0,0.0,0.0,0.0,0.0,22.14234733581543,0.2199442982673645,0.24816568195819855,0.0,0.0,0.0,0.0,0.0,0.0,0.0,0.0,0.0,-0.0051509542390704155,-0.004336248617619276,0.3209424614906311,0.0,0.0,0.0,0.0,0.0,0.0,0.0,0.0,0.0
1606827754925390151,1753936,1606827754915370027,imu_link,0.0017567711183801293,0.002299515763297677,0.192023366689682,0.9813860654830933,0.0,0.0,0.0,0.0,0.0,0.0,0.0,0.0,0.0,22.14234733581543,0.2199442982673645,0.24816568195819855,0.0,0.0,0.0,0.0,0.0,0.0,0.0,0.0,0.0,-0.0051509542390704155,-0.004336248617619276,0.3209424614906311,0.0,0.0,0.0,0.0,0.0,0.0,0.0,0.0,0.0
1606827754925405112,1753937,1606827754915470599,imu_link,0.0017571059288457036,0.002299603307619691,0.19201971590518951,0.9813868403434753,0.0,0.0,0.0,0.0,0.0,0.0,0.0,0.0,0.0,22.141921997070312,0.2199477255344391,0.24820443987846375,0.0,0.0,0.0,0.0,0.0,0.0,0.0,0.0,0.0,-0.0013565344270318747,0.0023438427597284317,0.31633803248405457,0.0,0.0,0.0,0.0,0.0,0.0,0.0,0.0,0.0
1606827754925415578,1753938,1606827754915563374,imu_link,0.0017571059288457036,0.002299603307619691,0.19201971590518951,0.9813868403434753,0.0,0.0,0.0,0.0,0.0,0.0,0.0,0.0,0.0,22.141921997070312,0.2199477255344391,0.24820443987846375,0.0,0.0,0.0,0.0,0.0,0.0,0.0,0.0,0.0,-0.0013565344270318747,0.0023438427597284317,0.31633803248405457,0.0,0.0,0.0,0.0,0.0,0.0,0.0,0.0,0.0
1606827754935648812,1753939,1606827754928071308,imu_link,0.0017569807823747396,0.0022973266895860434,0.19201718270778656,0.9813873171806335,0.0,0.0,0.0,0.0,0.0,0.0,0.0,0.0,0.0,22.141624450683594,0.2196951061487198,0.24813969433307648,0.0,0.0,0.0,0.0,0.0,0.0,0.0,0.0,0.0,-0.008598418906331062,-0.003667880082502961,0.33276551961898804,0.0,0.0,0.0,0.0,0.0,0.0,0.0,0.0,0.0
1606827754936165949,1753940,1606827754928217766,imu_link,0.0017569807823747396,0.0022973266895860434,0.19201718270778656,0.9813873171806335,0.0,0.0,0.0,0.0,0.0,0.0,0.0,0.0,0.0,22.141624450683594,0.2196951061487198,0.24813969433307648,0.0,0.0,0.0,0.0,0.0,0.0,0.0,0.0,0.0,-0.008598418906331062,-0.003667880082502961,0.33276551961898804,0.0,0.0,0.0,0.0,0.0,0.0,0.0,0.0,0.0
1606827754936200641,1753941,1606827754928392184,imu_link,0.0017585490131750703,0.0022948996629565954,0.19201163947582245,0.9813884496688843,0.0,0.0,0.0,0.0,0.0,0.0,0.0,0.0,0.0,22.140975952148438,0.21938905119895935,0.24826140701770782,0.0,0.0,0.0,0.0,0.0,0.0,0.0,0.0,0.0,-0.008332940749824047,-0.009922659955918789,0.33183714747428894,0.0,0.0,0.0,0.0,0.0,0.0,0.0,0.0,0.0
1606827754936210319,1753942,1606827754928467748,imu_link,0.0017585490131750703,0.0022948996629565954,0.19201163947582245,0.9813884496688843,0.0,0.0,0.0,0.0,0.0,0.0,0.0,0.0,0.0,22.140975952148438,0.21938905119895935,0.24826140701770782,0.0,0.0,0.0,0.0,0.0,0.0,0.0,0.0,0.0,-0.008332940749824047,-0.009922659955918789,0.33183714747428894,0.0,0.0,0.0,0.0,0.0,0.0,0.0,0.0,0.0
1606827754936214997,1753943,1606827754928568425,imu_link,0.0017589471535757184,0.00229661981575191,0.1920105218887329,0.9813886284828186,0.0,0.0,0.0,0.0,0.0,0.0,0.0,0.0,0.0,22.140846252441406,0.21957401931285858,0.24834376573562622,0.0,0.0,0.0,0.0,0.0,0.0,0.0,0.0,0.0,0.019020499661564827,-0.01036317739635706,0.3395094871520996,0.0,0.0,0.0,0.0,0.0,0.0,0.0,0.0,0.0
1606827754936865793,1753944,1606827754928647558,imu_link,0.0017589471535757184,0.00229661981575191,0.1920105218887329,0.9813886284828186,0.0,0.0,0.0,0.0,0.0,0.0,0.0,0.0,0.0,22.140846252441406,0.21957401931285858,0.24834376573562622,0.0,0.0,0.0,0.0,0.0,0.0,0.0,0.0,0.0,0.019020499661564827,-0.01036317739635706,0.3395094871520996,0.0,0.0,0.0,0.0,0.0,0.0,0.0,0.0,0.0
1606827754936878394,1753945,1606827754928753773,imu_link,0.0017600217834115028,0.002298690378665924,0.1920049488544464,0.9813897013664246,0.0,0.0,0.0,0.0,0.0,0.0,0.0,0.0,0.0,22.14019775390625,0.21978461742401123,0.24850894510746002,0.0,0.0,0.0,0.0,0.0,0.0,0.0,0.0,0.0,0.02654481679201126,-0.012975295074284077,0.3528461456298828,0.0,0.0,0.0,0.0,0.0,0.0,0.0,0.0,0.0
1606827754936885913,1753946,1606827754928832089,imu_link,0.0017600217834115028,0.002298690378665924,0.1920049488544464,0.9813897013664246,0.0,0.0,0.0,0.0,0.0,0.0,0.0,0.0,0.0,22.14019775390625,0.21978461742401123,0.24850894510746002,0.0,0.0,0.0,0.0,0.0,0.0,0.0,0.0,0.0,0.02654481679201126,-0.012975295074284077,0.3528461456298828,0.0,0.0,0.0,0.0,0.0,0.0,0.0,0.0,0.0
1606827754936891445,1753947,1606827754928910946,imu_link,0.0017602276057004929,0.0022979879286140203,0.1920057088136673,0.981389582157135,0.0,0.0,0.0,0.0,0.0,0.0,0.0,0.0,0.0,22.140283584594727,0.2197009176015854,0.24851681292057037,0.0,0.0,0.0,0.0,0.0,0.0,0.0,0.0,0.0,0.009642505086958408,-0.010947449132800102,0.3578890562057495,0.0,0.0,0.0,0.0,0.0,0.0,0.0,0.0,0.0
1606827754938276136,1753948,1606827754928992850,imu_link,0.0017602276057004929,0.0022979879286140203,0.1920057088136673,0.981389582157135,0.0,0.0,0.0,0.0,0.0,0.0,0.0,0.0,0.0,22.140283584594727,0.2197009176015854,0.24851681292057037,0.0,0.0,0.0,0.0,0.0,0.0,0.0,0.0,0.0,0.009642505086958408,-0.010947449132800102,0.3578890562057495,0.0,0.0,0.0,0.0,0.0,0.0,0.0,0.0,0.0
1606827754938296180,1753949,1606827754929079294,imu_link,0.0017624282045289874,0.0023018475621938705,0.19200049340724945,0.9813905954360962,0.0,0.0,0.0,0.0,0.0,0.0,0.0,0.0,0.0,22.139677047729492,0.22008788585662842,0.24884803593158722,0.0,0.0,0.0,0.0,0.0,0.0,0.0,0.0,0.0,0.008920866064727306,-0.006410502828657627,0.34306642413139343,0.0,0.0,0.0,0.0,0.0,0.0,0.0,0.0,0.0
1606827754949711282,1753950,1606827754942015772,imu_link,0.0017624282045289874,0.0023018475621938705,0.19200049340724945,0.9813905954360962,0.0,0.0,0.0,0.0,0.0,0.0,0.0,0.0,0.0,22.139677047729492,0.22008788585662842,0.24884803593158722,0.0,0.0,0.0,0.0,0.0,0.0,0.0,0.0,0.0,0.008920866064727306,-0.006410502828657627,0.34306642413139343,0.0,0.0,0.0,0.0,0.0,0.0,0.0,0.0,0.0
1606827754970020542,1753951,1606827754942153335,imu_link,0.0017650980735197663,0.002303559333086014,0.19199936091899872,0.9813907742500305,0.0,0.0,0.0,0.0,0.0,0.0,0.0,0.0,0.0,22.13954734802246,0.22022193670272827,0.2491856962442398,0.0,0.0,0.0,0.0,0.0,0.0,0.0,0.0,0.0,0.008132287301123142,-0.010260066017508507,0.322129487991333,0.0,0.0,0.0,0.0,0.0,0.0,0.0,0.0,0.0
1606827754970039132,1753952,1606827754942334749,imu_link,0.0017650980735197663,0.002303559333086014,0.19199936091899872,0.9813907742500305,0.0,0.0,0.0,0.0,0.0,0.0,0.0,0.0,0.0,22.13954734802246,0.22022193670272827,0.2491856962442398,0.0,0.0,0.0,0.0,0.0,0.0,0.0,0.0,0.0,0.008132287301123142,-0.010260066017508507,0.322129487991333,0.0,0.0,0.0,0.0,0.0,0.0,0.0,0.0,0.0
1606827754970050996,1753953,1606827754942415700,imu_link,0.001766689820215106,0.002305557718500495,0.19200092554092407,0.9813904762268066,0.0,0.0,0.0,0.0,0.0,0.0,0.0,0.0,0.0,22.139728546142578,0.2204112410545349,0.2494090348482132,0.0,0.0,0.0,0.0,0.0,0.0,0.0,0.0,0.0,0.005848770495504141,0.0026010803412646055,0.3329979181289673,0.0,0.0,0.0,0.0,0.0,0.0,0.0,0.0,0.0
1606827754970070991,1753954,1606827754942496903,imu_link,0.001766689820215106,0.002305557718500495,0.19200092554092407,0.9813904762268066,0.0,0.0,0.0,0.0,0.0,0.0,0.0,0.0,0.0,22.139728546142578,0.2204112410545349,0.2494090348482132,0.0,0.0,0.0,0.0,0.0,0.0,0.0,0.0,0.0,0.005848770495504141,0.0026010803412646055,0.3329979181289673,0.0,0.0,0.0,0.0,0.0,0.0,0.0,0.0,0.0
1606827754970077904,1753955,1606827754942590459,imu_link,0.0017660929588600993,0.0023057046346366405,0.1919991672039032,0.9813908338546753,0.0,0.0,0.0,0.0,0.0,0.0,0.0,0.0,0.0,22.139524459838867,0.22044135630130768,0.24934473633766174,0.0,0.0,0.0,0.0,0.0,0.0,0.0,0.0,0.0,-3.764533903449774e-05,0.017541829496622086,0.33694151043891907,0.0,0.0,0.0,0.0,0.0,0.0,0.0,0.0,0.0
1606827754970086982,1753956,1606827754942689813,imu_link,0.0017660929588600993,0.0023057046346366405,0.1919991672039032,0.9813908338546753,0.0,0.0,0.0,0.0,0.0,0.0,0.0,0.0,0.0,22.139524459838867,0.22044135630130768,0.24934473633766174,0.0,0.0,0.0,0.0,0.0,0.0,0.0,0.0,0.0,-3.764533903449774e-05,0.017541829496622086,0.33694151043891907,0.0,0.0,0.0,0.0,0.0,0.0,0.0,0.0,0.0
1606827754970094070,1753957,1606827754942769968,imu_link,0.0017649250803515315,0.0023035991471260786,0.19200102984905243,0.9813904762268066,0.0,0.0,0.0,0.0,0.0,0.0,0.0,0.0,0.0,22.139741897583008,0.22022980451583862,0.24916750192642212,0.0,0.0,0.0,0.0,0.0,0.0,0.0,0.0,0.0,-0.01985173672437668,0.017791815102100372,0.32843655347824097,0.0,0.0,0.0,0.0,0.0,0.0,0.0,0.0,0.0
1606827754970109954,1753958,1606827754942853812,imu_link,0.0017649250803515315,0.0023035991471260786,0.19200102984905243,0.9813904762268066,0.0,0.0,0.0,0.0,0.0,0.0,0.0,0.0,0.0,22.139741897583008,0.22022980451583862,0.24916750192642212,0.0,0.0,0.0,0.0,0.0,0.0,0.0,0.0,0.0,-0.01985173672437668,0.017791815102100372,0.32843655347824097,0.0,0.0,0.0,0.0,0.0,0.0,0.0,0.0,0.0
1606827754970144894,1753959,1606827754942941905,imu_link,0.0017639904981479049,0.002302803797647357,0.19200095534324646,0.9813904762268066,0.0,0.0,0.0,0.0,0.0,0.0,0.0,0.0,0.0,22.139732360839844,0.22016093134880066,0.24904491007328033,0.0,0.0,0.0,0.0,0.0,0.0,0.0,0.0,0.0,-0.013626757077872753,0.0185595341026783,0.3317826986312866,0.0,0.0,0.0,0.0,0.0,0.0,0.0,0.0,0.0
1606827754970159581,1753960,1606827754943026410,imu_link,0.0017639904981479049,0.002302803797647357,0.19200095534324646,0.9813904762268066,0.0,0.0,0.0,0.0,0.0,0.0,0.0,0.0,0.0,22.139732360839844,0.22016093134880066,0.24904491007328033,0.0,0.0,0.0,0.0,0.0,0.0,0.0,0.0,0.0,-0.013626757077872753,0.0185595341026783,0.3317826986312866,0.0,0.0,0.0,0.0,0.0,0.0,0.0,0.0,0.0
1606827754974353422,1753961,1606827754955463731,imu_link,0.0017615212127566338,0.002300043823197484,0.19200320541858673,0.9813900589942932,0.0,0.0,0.0,0.0,0.0,0.0,0.0,0.0,0.0,22.139995574951172,0.21990430355072021,0.24870693683624268,0.0,0.0,0.0,0.0,0.0,0.0,0.0,0.0,0.0,-0.012839616276323795,0.006084508262574673,0.32294589281082153,0.0,0.0,0.0,0.0,0.0,0.0,0.0,0.0,0.0
1606827754974373548,1753962,1606827754955601860,imu_link,0.0017615212127566338,0.002300043823197484,0.19200320541858673,0.9813900589942932,0.0,0.0,0.0,0.0,0.0,0.0,0.0,0.0,0.0,22.139995574951172,0.21990430355072021,0.24870693683624268,0.0,0.0,0.0,0.0,0.0,0.0,0.0,0.0,0.0,-0.012839616276323795,0.006084508262574673,0.32294589281082153,0.0,0.0,0.0,0.0,0.0,0.0,0.0,0.0,0.0
1606827754974392091,1753963,1606827754955781209,imu_link,0.001760572660714388,0.0023004941176623106,0.19200368225574493,0.9813899397850037,0.0,0.0,0.0,0.0,0.0,0.0,0.0,0.0,0.0,22.140050888061523,0.21997568011283875,0.24861030280590057,0.0,0.0,0.0,0.0,0.0,0.0,0.0,0.0,0.0,-0.0009778888197615743,-0.002205328084528446,0.3152090609073639,0.0,0.0,0.0,0.0,0.0,0.0,0.0,0.0,0.0
1606827754974416270,1753964,1606827754955877567,imu_link,0.001760572660714388,0.0023004941176623106,0.19200368225574493,0.9813899397850037,0.0,0.0,0.0,0.0,0.0,0.0,0.0,0.0,0.0,22.140050888061523,0.21997568011283875,0.24861030280590057,0.0,0.0,0.0,0.0,0.0,0.0,0.0,0.0,0.0,-0.0009778888197615743,-0.002205328084528446,0.3152090609073639,0.0,0.0,0.0,0.0,0.0,0.0,0.0,0.0,0.0
1606827754974436551,1753965,1606827754955967369,imu_link,0.0017632320523262024,0.0022983322851359844,0.19200582802295685,0.9813895225524902,0.0,0.0,0.0,0.0,0.0,0.0,0.0,0.0,0.0,22.14029884338379,0.2196734994649887,0.24886228144168854,0.0,0.0,0.0,0.0,0.0,0.0,0.0,0.0,0.0,0.017506001517176628,-0.0024138265289366245,0.33788424730300903,0.0,0.0,0.0,0.0,0.0,0.0,0.0,0.0,0.0
1606827754974450276,1753966,1606827754956075804,imu_link,0.0017632320523262024,0.0022983322851359844,0.19200582802295685,0.9813895225524902,0.0,0.0,0.0,0.0,0.0,0.0,0.0,0.0,0.0,22.14029884338379,0.2196734994649887,0.24886228144168854,0.0,0.0,0.0,0.0,0.0,0.0,0.0,0.0,0.0,0.017506001517176628,-0.0024138265289366245,0.33788424730300903,0.0,0.0,0.0,0.0,0.0,0.0,0.0,0.0,0.0
1606827754974518961,1753967,1606827754956159162,imu_link,0.0017635978292673826,0.0022999069187790155,0.1920042634010315,0.9813898205757141,0.0,0.0,0.0,0.0,0.0,0.0,0.0,0.0,0.0,22.140117645263672,0.21984292566776276,0.2489376962184906,0.0,0.0,0.0,0.0,0.0,0.0,0.0,0.0,0.0,0.008956249803304672,-0.008246297016739845,0.3651295304298401,0.0,0.0,0.0,0.0,0.0,0.0,0.0,0.0,0.0
1606827754974531043,1753968,1606827754956244113,imu_link,0.0017635978292673826,0.0022999069187790155,0.1920042634010315,0.9813898205757141,0.0,0.0,0.0,0.0,0.0,0.0,0.0,0.0,0.0,22.140117645263672,0.21984292566776276,0.2489376962184906,0.0,0.0,0.0,0.0,0.0,0.0,0.0,0.0,0.0,0.008956249803304672,-0.008246297016739845,0.3651295304298401,0.0,0.0,0.0,0.0,0.0,0.0,0.0,0.0,0.0
1606827754974550840,1753969,1606827754956340114,imu_link,0.0017666841158643365,0.002302846172824502,0.1920081526041031,0.981389045715332,0.0,0.0,0.0,0.0,0.0,0.0,0.0,0.0,0.0,22.140573501586914,0.22010460495948792,0.24935036897659302,0.0,0.0,0.0,0.0,0.0,0.0,0.0,0.0,0.0,0.010076256468892097,0.006907573901116848,0.35982364416122437,0.0,0.0,0.0,0.0,0.0,0.0,0.0,0.0,0.0
1606827754974589225,1753970,1606827754956422990,imu_link,0.0017666841158643365,0.002302846172824502,0.1920081526041031,0.981389045715332,0.0,0.0,0.0,0.0,0.0,0.0,0.0,0.0,0.0,22.140573501586914,0.22010460495948792,0.24935036897659302,0.0,0.0,0.0,0.0,0.0,0.0,0.0,0.0,0.0,0.010076256468892097,0.006907573901116848,0.35982364416122437,0.0,0.0,0.0,0.0,0.0,0.0,0.0,0.0,0.0
1606827754974661874,1753971,1606827754956500108,imu_link,0.0017680329037830234,0.0023020708467811346,0.1920061856508255,0.9813894629478455,0.0,0.0,0.0,0.0,0.0,0.0,0.0,0.0,0.0,22.140342712402344,0.21998824179172516,0.24948453903198242,0.0,0.0,0.0,0.0,0.0,0.0,0.0,0.0,0.0,0.01043823454529047,0.0173846073448658,0.35079851746559143,0.0,0.0,0.0,0.0,0.0,0.0,0.0,0.0,0.0
1606827754976606585,1753972,1606827754968355501,imu_link,0.0017680329037830234,0.0023020708467811346,0.1920061856508255,0.9813894629478455,0.0,0.0,0.0,0.0,0.0,0.0,0.0,0.0,0.0,22.140342712402344,0.21998824179172516,0.24948453903198242,0.0,0.0,0.0,0.0,0.0,0.0,0.0,0.0,0.0,0.01043823454529047,0.0173846073448658,0.35079851746559143,0.0,0.0,0.0,0.0,0.0,0.0,0.0,0.0,0.0
1606827754976618699,1753973,1606827754968506926,imu_link,0.0017647630302235484,0.002303748857229948,0.1920088678598404,0.9813889265060425,0.0,0.0,0.0,0.0,0.0,0.0,0.0,0.0,0.0,22.140655517578125,0.22024819254875183,0.24915434420108795,0.0,0.0,0.0,0.0,0.0,0.0,0.0,0.0,0.0,0.00819453690201044,-0.0011923707788810134,0.34742605686187744,0.0,0.0,0.0,0.0,0.0,0.0,0.0,0.0,0.0
1606827754976631723,1753974,1606827754968687377,imu_link,0.0017647630302235484,0.002303748857229948,0.1920088678598404,0.9813889265060425,0.0,0.0,0.0,0.0,0.0,0.0,0.0,0.0,0.0,22.140655517578125,0.22024819254875183,0.24915434420108795,0.0,0.0,0.0,0.0,0.0,0.0,0.0,0.0,0.0,0.00819453690201044,-0.0011923707788810134,0.34742605686187744,0.0,0.0,0.0,0.0,0.0,0.0,0.0,0.0,0.0
1606827754976649741,1753975,1606827754968789628,imu_link,0.0017666725907474756,0.002303352579474449,0.19200871884822845,0.9813889265060425,0.0,0.0,0.0,0.0,0.0,0.0,0.0,0.0,0.0,22.14063835144043,0.22016164660453796,0.2493603527545929,0.0,0.0,0.0,0.0,0.0,0.0,0.0,0.0,0.0,-3.660982474684715e-05,-0.0016832276014611125,0.3402705490589142,0.0,0.0,0.0,0.0,0.0,0.0,0.0,0.0,0.0
1606827754977367448,1753976,1606827754968878213,imu_link,0.0017666725907474756,0.002303352579474449,0.19200871884822845,0.9813889265060425,0.0,0.0,0.0,0.0,0.0,0.0,0.0,0.0,0.0,22.14063835144043,0.22016164660453796,0.2493603527545929,0.0,0.0,0.0,0.0,0.0,0.0,0.0,0.0,0.0,-3.660982474684715e-05,-0.0016832276014611125,0.3402705490589142,0.0,0.0,0.0,0.0,0.0,0.0,0.0,0.0,0.0
1606827754977388254,1753977,1606827754968983777,imu_link,0.0017676028655841947,0.0023023237008601427,0.19200439751148224,0.9813897609710693,0.0,0.0,0.0,0.0,0.0,0.0,0.0,0.0,0.0,22.140134811401367,0.22002655267715454,0.24944137036800385,0.0,0.0,0.0,0.0,0.0,0.0,0.0,0.0,0.0,-0.013681440614163876,0.013143178075551987,0.33087706565856934,0.0,0.0,0.0,0.0,0.0,0.0,0.0,0.0,0.0
1606827754977398962,1753978,1606827754969062353,imu_link,0.0017676028655841947,0.0023023237008601427,0.19200439751148224,0.9813897609710693,0.0,0.0,0.0,0.0,0.0,0.0,0.0,0.0,0.0,22.140134811401367,0.22002655267715454,0.24944137036800385,0.0,0.0,0.0,0.0,0.0,0.0,0.0,0.0,0.0,-0.013681440614163876,0.013143178075551987,0.33087706565856934,0.0,0.0,0.0,0.0,0.0,0.0,0.0,0.0,0.0
1606827754977408767,1753979,1606827754969163687,imu_link,0.0017671966925263405,0.002301933942362666,0.19200412929058075,0.9813898205757141,0.0,0.0,0.0,0.0,0.0,0.0,0.0,0.0,0.0,22.140104293823242,0.2199917435646057,0.24938702583312988,0.0,0.0,0.0,0.0,0.0,0.0,0.0,0.0,0.0,-0.00013773224782198668,0.006775823421776295,0.3127318024635315,0.0,0.0,0.0,0.0,0.0,0.0,0.0,0.0,0.0
1606827754989629036,1753980,1606827754969257639,imu_link,0.0017671966925263405,0.002301933942362666,0.19200412929058075,0.9813898205757141,0.0,0.0,0.0,0.0,0.0,0.0,0.0,0.0,0.0,22.140104293823242,0.2199917435646057,0.24938702583312988,0.0,0.0,0.0,0.0,0.0,0.0,0.0,0.0,0.0,-0.00013773224782198668,0.006775823421776295,0.3127318024635315,0.0,0.0,0.0,0.0,0.0,0.0,0.0,0.0,0.0
1606827754989637790,1753981,1606827754969343056,imu_link,0.001767051056958735,0.0023033772595226765,0.1919989436864853,0.9813908338546753,0.0,0.0,0.0,0.0,0.0,0.0,0.0,0.0,0.0,22.139497756958008,0.22015857696533203,0.2494012713432312,0.0,0.0,0.0,0.0,0.0,0.0,0.0,0.0,0.0,0.001265596249140799,-0.004873096942901611,0.3197746276855469,0.0,0.0,0.0,0.0,0.0,0.0,0.0,0.0,0.0
1606827754990409155,1753982,1606827754982065665,imu_link,0.001767051056958735,0.0023033772595226765,0.1919989436864853,0.9813908338546753,0.0,0.0,0.0,0.0,0.0,0.0,0.0,0.0,0.0,22.139497756958008,0.22015857696533203,0.2494012713432312,0.0,0.0,0.0,0.0,0.0,0.0,0.0,0.0,0.0,0.001265596249140799,-0.004873096942901611,0.3197746276855469,0.0,0.0,0.0,0.0,0.0,0.0,0.0,0.0,0.0
1606827754990419297,1753983,1606827754982228992,imu_link,0.0017668346408754587,0.002303472952917218,0.19200053811073303,0.9813905358314514,0.0,0.0,0.0,0.0,0.0,0.0,0.0,0.0,0.0,22.139684677124023,0.2201737016439438,0.24937939643859863,0.0,0.0,0.0,0.0,0.0,0.0,0.0,0.0,0.0,-0.015091413632035255,-0.0009997650049626827,0.33943724632263184,0.0,0.0,0.0,0.0,0.0,0.0,0.0,0.0,0.0
1606827754990431191,1753984,1606827754982360330,imu_link,0.0017668346408754587,0.002303472952917218,0.19200053811073303,0.9813905358314514,0.0,0.0,0.0,0.0,0.0,0.0,0.0,0.0,0.0,22.139684677124023,0.2201737016439438,0.24937939643859863,0.0,0.0,0.0,0.0,0.0,0.0,0.0,0.0,0.0,-0.015091413632035255,-0.0009997650049626827,0.33943724632263184,0.0,0.0,0.0,0.0,0.0,0.0,0.0,0.0,0.0
1606827754990437429,1753985,1606827754982441267,imu_link,0.001768062706105411,0.002298385603353381,0.1919933706521988,0.981391966342926,0.0,0.0,0.0,0.0,0.0,0.0,0.0,0.0,0.0,22.13884735107422,0.2195763736963272,0.2494039386510849,0.0,0.0,0.0,0.0,0.0,0.0,0.0,0.0,0.0,-0.0013506883988156915,0.009871604852378368,0.34603559970855713,0.0,0.0,0.0,0.0,0.0,0.0,0.0,0.0,0.0
1606827754991178885,1753986,1606827754982535876,imu_link,0.001768062706105411,0.002298385603353381,0.1919933706521988,0.981391966342926,0.0,0.0,0.0,0.0,0.0,0.0,0.0,0.0,0.0,22.13884735107422,0.2195763736963272,0.2494039386510849,0.0,0.0,0.0,0.0,0.0,0.0,0.0,0.0,0.0,-0.0013506883988156915,0.009871604852378368,0.34603559970855713,0.0,0.0,0.0,0.0,0.0,0.0,0.0,0.0,0.0
1606827754991191003,1753987,1606827754982633917,imu_link,0.0017662051832303405,0.002297516679391265,0.19199347496032715,0.981391966342926,0.0,0.0,0.0,0.0,0.0,0.0,0.0,0.0,0.0,22.13885498046875,0.2195194959640503,0.24917593598365784,0.0,0.0,0.0,0.0,0.0,0.0,0.0,0.0,0.0,0.009272489696741104,0.020394250750541687,0.34347277879714966,0.0,0.0,0.0,0.0,0.0,0.0,0.0,0.0,0.0
1606827754991203169,1753988,1606827754982736524,imu_link,0.0017662051832303405,0.002297516679391265,0.19199347496032715,0.981391966342926,0.0,0.0,0.0,0.0,0.0,0.0,0.0,0.0,0.0,22.13885498046875,0.2195194959640503,0.24917593598365784,0.0,0.0,0.0,0.0,0.0,0.0,0.0,0.0,0.0,0.009272489696741104,0.020394250750541687,0.34347277879714966,0.0,0.0,0.0,0.0,0.0,0.0,0.0,0.0,0.0
1606827754991209023,1753989,1606827754982815907,imu_link,0.001761044841259718,0.0022979024797677994,0.19199006259441376,0.9813925623893738,0.0,0.0,0.0,0.0,0.0,0.0,0.0,0.0,0.0,22.138458251953125,0.21967725455760956,0.24860337376594543,0.0,0.0,0.0,0.0,0.0,0.0,0.0,0.0,0.0,-0.00484676705673337,0.007742468733340502,0.3432305157184601,0.0,0.0,0.0,0.0,0.0,0.0,0.0,0.0,0.0
1606827754993274362,1753990,1606827754982900237,imu_link,0.001761044841259718,0.0022979024797677994,0.19199006259441376,0.9813925623893738,0.0,0.0,0.0,0.0,0.0,0.0,0.0,0.0,0.0,22.138458251953125,0.21967725455760956,0.24860337376594543,0.0,0.0,0.0,0.0,0.0,0.0,0.0,0.0,0.0,-0.00484676705673337,0.007742468733340502,0.3432305157184601,0.0,0.0,0.0,0.0,0.0,0.0,0.0,0.0,0.0
1606827754993282966,1753991,1606827754982977515,imu_link,0.0017618798883631825,0.0022973406594246626,0.19198867678642273,0.9813929200172424,0.0,0.0,0.0,0.0,0.0,0.0,0.0,0.0,0.0,22.138294219970703,0.21959608793258667,0.24868452548980713,0.0,0.0,0.0,0.0,0.0,0.0,0.0,0.0,0.0,0.0022357581183314323,-0.01696695387363434,0.3355046808719635,0.0,0.0,0.0,0.0,0.0,0.0,0.0,0.0,0.0
1606827754993293429,1753992,1606827754983053405,imu_link,0.0017618798883631825,0.0022973406594246626,0.19198867678642273,0.9813929200172424,0.0,0.0,0.0,0.0,0.0,0.0,0.0,0.0,0.0,22.138294219970703,0.21959608793258667,0.24868452548980713,0.0,0.0,0.0,0.0,0.0,0.0,0.0,0.0,0.0,0.0022357581183314323,-0.01696695387363434,0.3355046808719635,0.0,0.0,0.0,0.0,0.0,0.0,0.0,0.0,0.0
1606827755003211256,1753993,1606827754995568135,imu_link,0.0017642505699768662,0.0022967986296862364,0.19198361039161682,0.9813939332962036,0.0,0.0,0.0,0.0,0.0,0.0,0.0,0.0,0.0,22.137704849243164,0.21948425471782684,0.24893809854984283,0.0,0.0,0.0,0.0,0.0,0.0,0.0,0.0,0.0,0.017632704228162766,-0.012612976133823395,0.31441962718963623,0.0,0.0,0.0,0.0,0.0,0.0,0.0,0.0,0.0
1606827755005466425,1753994,1606827754995707346,imu_link,0.0017642505699768662,0.0022967986296862364,0.19198361039161682,0.9813939332962036,0.0,0.0,0.0,0.0,0.0,0.0,0.0,0.0,0.0,22.137704849243164,0.21948425471782684,0.24893809854984283,0.0,0.0,0.0,0.0,0.0,0.0,0.0,0.0,0.0,0.017632704228162766,-0.012612976133823395,0.31441962718963623,0.0,0.0,0.0,0.0,0.0,0.0,0.0,0.0,0.0
1606827755005482332,1753995,1606827754995879343,imu_link,0.0017661129822954535,0.0022968014236539602,0.19198232889175415,0.9813941717147827,0.0,0.0,0.0,0.0,0.0,0.0,0.0,0.0,0.0,22.137554168701172,0.2194439321756363,0.24914732575416565,0.0,0.0,0.0,0.0,0.0,0.0,0.0,0.0,0.0,0.011588266119360924,0.0023705316707491875,0.31894341111183167,0.0,0.0,0.0,0.0,0.0,0.0,0.0,0.0,0.0
1606827755005502123,1753996,1606827754995960009,imu_link,0.0017661129822954535,0.0022968014236539602,0.19198232889175415,0.9813941717147827,0.0,0.0,0.0,0.0,0.0,0.0,0.0,0.0,0.0,22.137554168701172,0.2194439321756363,0.24914732575416565,0.0,0.0,0.0,0.0,0.0,0.0,0.0,0.0,0.0,0.011588266119360924,0.0023705316707491875,0.31894341111183167,0.0,0.0,0.0,0.0,0.0,0.0,0.0,0.0,0.0
1606827755005510481,1753997,1606827754996058091,imu_link,0.0017644289182499051,0.0023003388196229935,0.1919754594564438,0.981395423412323,0.0,0.0,0.0,0.0,0.0,0.0,0.0,0.0,0.0,22.136754989624023,0.21988052129745483,0.24903422594070435,0.0,0.0,0.0,0.0,0.0,0.0,0.0,0.0,0.0,-0.009941755793988705,0.0005630318773910403,0.33860623836517334,0.0,0.0,0.0,0.0,0.0,0.0,0.0,0.0,0.0
1606827755005522025,1753998,1606827754996140526,imu_link,0.0017644289182499051,0.0023003388196229935,0.1919754594564438,0.981395423412323,0.0,0.0,0.0,0.0,0.0,0.0,0.0,0.0,0.0,22.136754989624023,0.21988052129745483,0.24903422594070435,0.0,0.0,0.0,0.0,0.0,0.0,0.0,0.0,0.0,-0.009941755793988705,0.0005630318773910403,0.33860623836517334,0.0,0.0,0.0,0.0,0.0,0.0,0.0,0.0,0.0
1606827755005556226,1753999,1606827754996245343,imu_link,0.001764478161931038,0.002300711115822196,0.19197514653205872,0.9813954830169678,0.0,0.0,0.0,0.0,0.0,0.0,0.0,0.0,0.0,22.13671875,0.21992138028144836,0.2490478903055191,0.0,0.0,0.0,0.0,0.0,0.0,0.0,0.0,0.0,-0.009783639572560787,0.00028396269772201777,0.3334590792655945,0.0,0.0,0.0,0.0,0.0,0.0,0.0,0.0,0.0
1606827755005562571,1754000,1606827754996325347,imu_link,0.001764478161931038,0.002300711115822196,0.19197514653205872,0.9813954830169678,0.0,0.0,0.0,0.0,0.0,0.0,0.0,0.0,0.0,22.13671875,0.21992138028144836,0.2490478903055191,0.0,0.0,0.0,0.0,0.0,0.0,0.0,0.0,0.0,-0.009783639572560787,0.00028396269772201777,0.3334590792655945,0.0,0.0,0.0,0.0,0.0,0.0,0.0,0.0,0.0
1606827755005570594,1754001,1606827754996411176,imu_link,0.0017642149468883872,0.0022982994560152292,0.19197258353233337,0.9813960194587708,0.0,0.0,0.0,0.0,0.0,0.0,0.0,0.0,0.0,22.136417388916016,0.21965661644935608,0.24896465241909027,0.0,0.0,0.0,0.0,0.0,0.0,0.0,0.0,0.0,-0.003148157149553299,-0.0036478897091001272,0.32500046491622925,0.0,0.0,0.0,0.0,0.0,0.0,0.0,0.0,0.0
1606827755005601373,1754002,1606827754996498758,imu_link,0.0017642149468883872,0.0022982994560152292,0.19197258353233337,0.9813960194587708,0.0,0.0,0.0,0.0,0.0,0.0,0.0,0.0,0.0,22.136417388916016,0.21965661644935608,0.24896465241909027,0.0,0.0,0.0,0.0,0.0,0.0,0.0,0.0,0.0,-0.003148157149553299,-0.0036478897091001272,0.32500046491622925,0.0,0.0,0.0,0.0,0.0,0.0,0.0,0.0,0.0
1606827755005616435,1754003,1606827754996582140,imu_link,0.001763671636581421,0.002296731574460864,0.19197171926498413,0.9813961982727051,0.0,0.0,0.0,0.0,0.0,0.0,0.0,0.0,0.0,22.136316299438477,0.21949246525764465,0.24886886775493622,0.0,0.0,0.0,0.0,0.0,0.0,0.0,0.0,0.0,-0.007458820939064026,0.0030978224240243435,0.3503037393093109,0.0,0.0,0.0,0.0,0.0,0.0,0.0,0.0,0.0
1606827755016713337,1754004,1606827755009290866,imu_link,0.001763671636581421,0.002296731574460864,0.19197171926498413,0.9813961982727051,0.0,0.0,0.0,0.0,0.0,0.0,0.0,0.0,0.0,22.136316299438477,0.21949246525764465,0.24886886775493622,0.0,0.0,0.0,0.0,0.0,0.0,0.0,0.0,0.0,-0.007458820939064026,0.0030978224240243435,0.3503037393093109,0.0,0.0,0.0,0.0,0.0,0.0,0.0,0.0,0.0
1606827755018138942,1754005,1606827755009360382,imu_link,0.0017649015644565225,0.0022965010721236467,0.19197013974189758,0.981396496295929,0.0,0.0,0.0,0.0,0.0,0.0,0.0,0.0,0.0,22.136133193969727,0.21943987905979156,0.24900178611278534,0.0,0.0,0.0,0.0,0.0,0.0,0.0,0.0,0.0,-0.012508116662502289,0.015523207373917103,0.3528454005718231,0.0,0.0,0.0,0.0,0.0,0.0,0.0,0.0,0.0
1606827755018191576,1754006,1606827755009480549,imu_link,0.0017649015644565225,0.0022965010721236467,0.19197013974189758,0.981396496295929,0.0,0.0,0.0,0.0,0.0,0.0,0.0,0.0,0.0,22.136133193969727,0.21943987905979156,0.24900178611278534,0.0,0.0,0.0,0.0,0.0,0.0,0.0,0.0,0.0,-0.012508116662502289,0.015523207373917103,0.3528454005718231,0.0,0.0,0.0,0.0,0.0,0.0,0.0,0.0,0.0
1606827755018204165,1754007,1606827755009518252,imu_link,0.0017646412597969174,0.0022964372765272856,0.1919688731431961,0.9813967943191528,0.0,0.0,0.0,0.0,0.0,0.0,0.0,0.0,0.0,22.135982513427734,0.21943876147270203,0.24897080659866333,0.0,0.0,0.0,0.0,0.0,0.0,0.0,0.0,0.0,-0.0064537120051681995,0.005548206623643637,0.32708320021629333,0.0,0.0,0.0,0.0,0.0,0.0,0.0,0.0,0.0
1606827755018213763,1754008,1606827755009560142,imu_link,0.0017646412597969174,0.0022964372765272856,0.1919688731431961,0.9813967943191528,0.0,0.0,0.0,0.0,0.0,0.0,0.0,0.0,0.0,22.135982513427734,0.21943876147270203,0.24897080659866333,0.0,0.0,0.0,0.0,0.0,0.0,0.0,0.0,0.0,-0.0064537120051681995,0.005548206623643637,0.32708320021629333,0.0,0.0,0.0,0.0,0.0,0.0,0.0,0.0,0.0
1606827755018223920,1754009,1606827755009596258,imu_link,0.0017637506825849414,0.002295404439792037,0.19197115302085876,0.9813962578773499,0.0,0.0,0.0,0.0,0.0,0.0,0.0,0.0,0.0,22.13625144958496,0.21934162080287933,0.24884845316410065,0.0,0.0,0.0,0.0,0.0,0.0,0.0,0.0,0.0,0.002451319945976138,0.0042235213331878185,0.33208030462265015,0.0,0.0,0.0,0.0,0.0,0.0,0.0,0.0,0.0
1606827755018248981,1754010,1606827755009644780,imu_link,0.0017637506825849414,0.002295404439792037,0.19197115302085876,0.9813962578773499,0.0,0.0,0.0,0.0,0.0,0.0,0.0,0.0,0.0,22.13625144958496,0.21934162080287933,0.24884845316410065,0.0,0.0,0.0,0.0,0.0,0.0,0.0,0.0,0.0,0.002451319945976138,0.0042235213331878185,0.33208030462265015,0.0,0.0,0.0,0.0,0.0,0.0,0.0,0.0,0.0
1606827755018281088,1754011,1606827755009679593,imu_link,0.0017649359069764614,0.0022948174737393856,0.1919722557067871,0.9813961386680603,0.0,0.0,0.0,0.0,0.0,0.0,0.0,0.0,0.0,22.13637924194336,0.21924926340579987,0.24896904826164246,0.0,0.0,0.0,0.0,0.0,0.0,0.0,0.0,0.0,-0.016882114112377167,0.00048826588317751884,0.37210047245025635,0.0,0.0,0.0,0.0,0.0,0.0,0.0,0.0,0.0
1606827755018296434,1754012,1606827755009713677,imu_link,0.0017649359069764614,0.0022948174737393856,0.1919722557067871,0.9813961386680603,0.0,0.0,0.0,0.0,0.0,0.0,0.0,0.0,0.0,22.13637924194336,0.21924926340579987,0.24896904826164246,0.0,0.0,0.0,0.0,0.0,0.0,0.0,0.0,0.0,-0.016882114112377167,0.00048826588317751884,0.37210047245025635,0.0,0.0,0.0,0.0,0.0,0.0,0.0,0.0,0.0
1606827755019666560,1754013,1606827755009752005,imu_link,0.0017646197229623795,0.002293512923642993,0.19197256863117218,0.9813960194587708,0.0,0.0,0.0,0.0,0.0,0.0,0.0,0.0,0.0,22.136417388916016,0.2191094160079956,0.24890485405921936,0.0,0.0,0.0,0.0,0.0,0.0,0.0,0.0,0.0,-0.02411486767232418,-0.004261939786374569,0.36448776721954346,0.0,0.0,0.0,0.0,0.0,0.0,0.0,0.0,0.0
1606827755019679632,1754014,1606827755009789736,imu_link,0.0017646197229623795,0.002293512923642993,0.19197256863117218,0.9813960194587708,0.0,0.0,0.0,0.0,0.0,0.0,0.0,0.0,0.0,22.136417388916016,0.2191094160079956,0.24890485405921936,0.0,0.0,0.0,0.0,0.0,0.0,0.0,0.0,0.0,-0.02411486767232418,-0.004261939786374569,0.36448776721954346,0.0,0.0,0.0,0.0,0.0,0.0,0.0,0.0,0.0
1606827755030410737,1754015,1606827755022761838,imu_link,0.0017655391711741686,0.0022926151286810637,0.19197268784046173,0.981395959854126,0.0,0.0,0.0,0.0,0.0,0.0,0.0,0.0,0.0,22.136430740356445,0.21898818016052246,0.2489885836839676,0.0,0.0,0.0,0.0,0.0,0.0,0.0,0.0,0.0,-0.014081950299441814,0.009677184745669365,0.3479982018470764,0.0,0.0,0.0,0.0,0.0,0.0,0.0,0.0,0.0
1606827755031543591,1754016,1606827755022850291,imu_link,0.0017655391711741686,0.0022926151286810637,0.19197268784046173,0.981395959854126,0.0,0.0,0.0,0.0,0.0,0.0,0.0,0.0,0.0,22.136430740356445,0.21898818016052246,0.2489885836839676,0.0,0.0,0.0,0.0,0.0,0.0,0.0,0.0,0.0,-0.014081950299441814,0.009677184745669365,0.3479982018470764,0.0,0.0,0.0,0.0,0.0,0.0,0.0,0.0,0.0
1606827755031561435,1754017,1606827755022912864,imu_link,0.001766013796441257,0.0022926577366888523,0.19197186827659607,0.9813961386680603,0.0,0.0,0.0,0.0,0.0,0.0,0.0,0.0,0.0,22.136333465576172,0.2189827561378479,0.24904265999794006,0.0,0.0,0.0,0.0,0.0,0.0,0.0,0.0,0.0,-0.013355094939470291,-0.0005801671650260687,0.35146358609199524,0.0,0.0,0.0,0.0,0.0,0.0,0.0,0.0,0.0
1606827755031594660,1754018,1606827755022969386,imu_link,0.001766013796441257,0.0022926577366888523,0.19197186827659607,0.9813961386680603,0.0,0.0,0.0,0.0,0.0,0.0,0.0,0.0,0.0,22.136333465576172,0.2189827561378479,0.24904265999794006,0.0,0.0,0.0,0.0,0.0,0.0,0.0,0.0,0.0,-0.013355094939470291,-0.0005801671650260687,0.35146358609199524,0.0,0.0,0.0,0.0,0.0,0.0,0.0,0.0,0.0
1606827755031601997,1754019,1606827755023020157,imu_link,0.0017652657115831971,0.0022940614726394415,0.19197134673595428,0.9813962578773499,0.0,0.0,0.0,0.0,0.0,0.0,0.0,0.0,0.0,22.13627052307129,0.21915721893310547,0.24898932874202728,0.0,0.0,0.0,0.0,0.0,0.0,0.0,0.0,0.0,-0.0056663621217012405,-0.01828991249203682,0.35227280855178833,0.0,0.0,0.0,0.0,0.0,0.0,0.0,0.0,0.0
1606827755031611371,1754020,1606827755023080259,imu_link,0.0017652657115831971,0.0022940614726394415,0.19197134673595428,0.9813962578773499,0.0,0.0,0.0,0.0,0.0,0.0,0.0,0.0,0.0,22.13627052307129,0.21915721893310547,0.24898932874202728,0.0,0.0,0.0,0.0,0.0,0.0,0.0,0.0,0.0,-0.0056663621217012405,-0.01828991249203682,0.35227280855178833,0.0,0.0,0.0,0.0,0.0,0.0,0.0,0.0,0.0
1606827755031625752,1754021,1606827755023131125,imu_link,0.0017673451220616698,0.0022930875420570374,0.1919715702533722,0.9813961982727051,0.0,0.0,0.0,0.0,0.0,0.0,0.0,0.0,0.0,22.13629913330078,0.2190018743276596,0.24920181930065155,0.0,0.0,0.0,0.0,0.0,0.0,0.0,0.0,0.0,-0.008762363344430923,-0.02067488245666027,0.32866472005844116,0.0,0.0,0.0,0.0,0.0,0.0,0.0,0.0,0.0
1606827755031654935,1754022,1606827755023179362,imu_link,0.0017673451220616698,0.0022930875420570374,0.1919715702533722,0.9813961982727051,0.0,0.0,0.0,0.0,0.0,0.0,0.0,0.0,0.0,22.13629913330078,0.2190018743276596,0.24920181930065155,0.0,0.0,0.0,0.0,0.0,0.0,0.0,0.0,0.0,-0.008762363344430923,-0.02067488245666027,0.32866472005844116,0.0,0.0,0.0,0.0,0.0,0.0,0.0,0.0,0.0
1606827755031666796,1754023,1606827755023226616,imu_link,0.0017673646798357368,0.002292012097314,0.19197207689285278,0.9813961386680603,0.0,0.0,0.0,0.0,0.0,0.0,0.0,0.0,0.0,22.136356353759766,0.21888037025928497,0.24918046593666077,0.0,0.0,0.0,0.0,0.0,0.0,0.0,0.0,0.0,-0.017142970114946365,-0.020351484417915344,0.3051419258117676,0.0,0.0,0.0,0.0,0.0,0.0,0.0,0.0,0.0
1606827755033554671,1754024,1606827755023297932,imu_link,0.0017673646798357368,0.002292012097314,0.19197207689285278,0.9813961386680603,0.0,0.0,0.0,0.0,0.0,0.0,0.0,0.0,0.0,22.136356353759766,0.21888037025928497,0.24918046593666077,0.0,0.0,0.0,0.0,0.0,0.0,0.0,0.0,0.0,-0.017142970114946365,-0.020351484417915344,0.3051419258117676,0.0,0.0,0.0,0.0,0.0,0.0,0.0,0.0,0.0
1606827755033570520,1754025,1606827755023354489,imu_link,0.00177092629019171,0.0022893340792506933,0.19196508824825287,0.9813975095748901,0.0,0.0,0.0,0.0,0.0,0.0,0.0,0.0,0.0,22.13553810119629,0.21850265562534332,0.24952051043510437,0.0,0.0,0.0,0.0,0.0,0.0,0.0,0.0,0.0,-0.002191132865846157,-0.0035042865201830864,0.3260297477245331,0.0,0.0,0.0,0.0,0.0,0.0,0.0,0.0,0.0
1606827755043433444,1754026,1606827755035777345,imu_link,0.00177092629019171,0.0022893340792506933,0.19196508824825287,0.9813975095748901,0.0,0.0,0.0,0.0,0.0,0.0,0.0,0.0,0.0,22.13553810119629,0.21850265562534332,0.24952051043510437,0.0,0.0,0.0,0.0,0.0,0.0,0.0,0.0,0.0,-0.002191132865846157,-0.0035042865201830864,0.3260297477245331,0.0,0.0,0.0,0.0,0.0,0.0,0.0,0.0,0.0
1606827755044065706,1754027,1606827755035880128,imu_link,0.0017725590150803328,0.002287324285134673,0.19196443259716034,0.9813976287841797,0.0,0.0,0.0,0.0,0.0,0.0,0.0,0.0,0.0,22.135465621948242,0.218240886926651,0.24965977668762207,0.0,0.0,0.0,0.0,0.0,0.0,0.0,0.0,0.0,-0.0012896531261503696,0.0015917082782834768,0.3301757872104645,0.0,0.0,0.0,0.0,0.0,0.0,0.0,0.0,0.0
1606827755044088200,1754028,1606827755036012856,imu_link,0.0017725590150803328,0.002287324285134673,0.19196443259716034,0.9813976287841797,0.0,0.0,0.0,0.0,0.0,0.0,0.0,0.0,0.0,22.135465621948242,0.218240886926651,0.24965977668762207,0.0,0.0,0.0,0.0,0.0,0.0,0.0,0.0,0.0,-0.0012896531261503696,0.0015917082782834768,0.3301757872104645,0.0,0.0,0.0,0.0,0.0,0.0,0.0,0.0,0.0
1606827755044098864,1754029,1606827755036076734,imu_link,0.0017720628529787064,0.0022864460479468107,0.19195884466171265,0.9813987612724304,0.0,0.0,0.0,0.0,0.0,0.0,0.0,0.0,0.0,22.134809494018555,0.21815446019172668,0.2495834231376648,0.0,0.0,0.0,0.0,0.0,0.0,0.0,0.0,0.0,0.0066607347689569,0.0011702404590323567,0.3346034586429596,0.0,0.0,0.0,0.0,0.0,0.0,0.0,0.0,0.0
1606827755044115492,1754030,1606827755036132109,imu_link,0.0017720628529787064,0.0022864460479468107,0.19195884466171265,0.9813987612724304,0.0,0.0,0.0,0.0,0.0,0.0,0.0,0.0,0.0,22.134809494018555,0.21815446019172668,0.2495834231376648,0.0,0.0,0.0,0.0,0.0,0.0,0.0,0.0,0.0,0.0066607347689569,0.0011702404590323567,0.3346034586429596,0.0,0.0,0.0,0.0,0.0,0.0,0.0,0.0,0.0
1606827755044894571,1754031,1606827755036205865,imu_link,0.0017704642377793789,0.0022849105298519135,0.1919572949409485,0.9813990592956543,0.0,0.0,0.0,0.0,0.0,0.0,0.0,0.0,0.0,22.134628295898438,0.2180173248052597,0.24936950206756592,0.0,0.0,0.0,0.0,0.0,0.0,0.0,0.0,0.0,0.020596854388713837,-0.007721609901636839,0.3230668306350708,0.0,0.0,0.0,0.0,0.0,0.0,0.0,0.0,0.0
1606827755044914011,1754032,1606827755036269255,imu_link,0.0017704642377793789,0.0022849105298519135,0.1919572949409485,0.9813990592956543,0.0,0.0,0.0,0.0,0.0,0.0,0.0,0.0,0.0,22.134628295898438,0.2180173248052597,0.24936950206756592,0.0,0.0,0.0,0.0,0.0,0.0,0.0,0.0,0.0,0.020596854388713837,-0.007721609901636839,0.3230668306350708,0.0,0.0,0.0,0.0,0.0,0.0,0.0,0.0,0.0
1606827755044921664,1754033,1606827755036325067,imu_link,0.0017720710020512342,0.0022903848439455032,0.19195519387722015,0.981399416923523,0.0,0.0,0.0,0.0,0.0,0.0,0.0,0.0,0.0,22.134384155273438,0.2185981571674347,0.24967019259929657,0.0,0.0,0.0,0.0,0.0,0.0,0.0,0.0,0.0,0.0188395194709301,-0.008225707337260246,0.31062832474708557,0.0,0.0,0.0,0.0,0.0,0.0,0.0,0.0,0.0
1606827755044927357,1754034,1606827755036415214,imu_link,0.0017720710020512342,0.0022903848439455032,0.19195519387722015,0.981399416923523,0.0,0.0,0.0,0.0,0.0,0.0,0.0,0.0,0.0,22.134384155273438,0.2185981571674347,0.24967019259929657,0.0,0.0,0.0,0.0,0.0,0.0,0.0,0.0,0.0,0.0188395194709301,-0.008225707337260246,0.31062832474708557,0.0,0.0,0.0,0.0,0.0,0.0,0.0,0.0,0.0
1606827755045874083,1754035,1606827755036489640,imu_link,0.0017709340900182724,0.002291368553414941,0.1919550597667694,0.9813994765281677,0.0,0.0,0.0,0.0,0.0,0.0,0.0,0.0,0.0,22.134368896484375,0.21873383224010468,0.24956391751766205,0.0,0.0,0.0,0.0,0.0,0.0,0.0,0.0,0.0,0.014279738999903202,0.015314365737140179,0.3075996935367584,0.0,0.0,0.0,0.0,0.0,0.0,0.0,0.0,0.0
1606827755057045789,1754036,1606827755049472681,imu_link,0.0017709340900182724,0.002291368553414941,0.1919550597667694,0.9813994765281677,0.0,0.0,0.0,0.0,0.0,0.0,0.0,0.0,0.0,22.134368896484375,0.21873383224010468,0.24956391751766205,0.0,0.0,0.0,0.0,0.0,0.0,0.0,0.0,0.0,0.014279738999903202,0.015314365737140179,0.3075996935367584,0.0,0.0,0.0,0.0,0.0,0.0,0.0,0.0,0.0
1606827755057859763,1754037,1606827755049577771,imu_link,0.0017672509420663118,0.0022931660059839487,0.19195209443569183,0.9814000725746155,0.0,0.0,0.0,0.0,0.0,0.0,0.0,0.0,0.0,22.13402557373047,0.21901774406433105,0.24918857216835022,0.0,0.0,0.0,0.0,0.0,0.0,0.0,0.0,0.0,0.00574048887938261,0.015586867928504944,0.3215366303920746,0.0,0.0,0.0,0.0,0.0,0.0,0.0,0.0,0.0
1606827755057889353,1754038,1606827755049712850,imu_link,0.0017672509420663118,0.0022931660059839487,0.19195209443569183,0.9814000725746155,0.0,0.0,0.0,0.0,0.0,0.0,0.0,0.0,0.0,22.13402557373047,0.21901774406433105,0.24918857216835022,0.0,0.0,0.0,0.0,0.0,0.0,0.0,0.0,0.0,0.00574048887938261,0.015586867928504944,0.3215366303920746,0.0,0.0,0.0,0.0,0.0,0.0,0.0,0.0,0.0
1606827755057903197,1754039,1606827755049770306,imu_link,0.0017665737541392446,0.0022922782227396965,0.191951721906662,0.981400191783905,0.0,0.0,0.0,0.0,0.0,0.0,0.0,0.0,0.0,22.133981704711914,0.2189328968524933,0.24909281730651855,0.0,0.0,0.0,0.0,0.0,0.0,0.0,0.0,0.0,-0.0049880254082381725,0.019383681938052177,0.3397175669670105,0.0,0.0,0.0,0.0,0.0,0.0,0.0,0.0,0.0
1606827755057956075,1754040,1606827755049824045,imu_link,0.0017665737541392446,0.0022922782227396965,0.191951721906662,0.981400191783905,0.0,0.0,0.0,0.0,0.0,0.0,0.0,0.0,0.0,22.133981704711914,0.2189328968524933,0.24909281730651855,0.0,0.0,0.0,0.0,0.0,0.0,0.0,0.0,0.0,-0.0049880254082381725,0.019383681938052177,0.3397175669670105,0.0,0.0,0.0,0.0,0.0,0.0,0.0,0.0,0.0
1606827755057966868,1754041,1606827755049892344,imu_link,0.001763531006872654,0.002291726414114237,0.1919470876455307,0.9814010262489319,0.0,0.0,0.0,0.0,0.0,0.0,0.0,0.0,0.0,22.13343620300293,0.2189389169216156,0.24873746931552887,0.0,0.0,0.0,0.0,0.0,0.0,0.0,0.0,0.0,-0.009796681813895702,0.03486522659659386,0.34052276611328125,0.0,0.0,0.0,0.0,0.0,0.0,0.0,0.0,0.0
1606827755058051100,1754042,1606827755049965298,imu_link,0.001763531006872654,0.002291726414114237,0.1919470876455307,0.9814010262489319,0.0,0.0,0.0,0.0,0.0,0.0,0.0,0.0,0.0,22.13343620300293,0.2189389169216156,0.24873746931552887,0.0,0.0,0.0,0.0,0.0,0.0,0.0,0.0,0.0,-0.009796681813895702,0.03486522659659386,0.34052276611328125,0.0,0.0,0.0,0.0,0.0,0.0,0.0,0.0,0.0
1606827755058064523,1754043,1606827755050023982,imu_link,0.0017640407895669341,0.0022911946289241314,0.19194883108139038,0.9814006686210632,0.0,0.0,0.0,0.0,0.0,0.0,0.0,0.0,0.0,22.133642196655273,0.2188674509525299,0.24878346920013428,0.0,0.0,0.0,0.0,0.0,0.0,0.0,0.0,0.0,-0.0007001698249951005,0.025932203978300095,0.35288459062576294,0.0,0.0,0.0,0.0,0.0,0.0,0.0,0.0,0.0
1606827755058089776,1754044,1606827755050084562,imu_link,0.0017640407895669341,0.0022911946289241314,0.19194883108139038,0.9814006686210632,0.0,0.0,0.0,0.0,0.0,0.0,0.0,0.0,0.0,22.133642196655273,0.2188674509525299,0.24878346920013428,0.0,0.0,0.0,0.0,0.0,0.0,0.0,0.0,0.0,-0.0007001698249951005,0.025932203978300095,0.35288459062576294,0.0,0.0,0.0,0.0,0.0,0.0,0.0,0.0,0.0
1606827755058649476,1754045,1606827755050148084,imu_link,0.0017600812716409564,0.002292229561135173,0.19194675981998444,0.9814010858535767,0.0,0.0,0.0,0.0,0.0,0.0,0.0,0.0,0.0,22.133399963378906,0.21907147765159607,0.2483604997396469,0.0,0.0,0.0,0.0,0.0,0.0,0.0,0.0,0.0,0.005551723297685385,-0.005419695749878883,0.34685036540031433,0.0,0.0,0.0,0.0,0.0,0.0,0.0,0.0,0.0
1606827755058670391,1754046,1606827755050209716,imu_link,0.0017600812716409564,0.002292229561135173,0.19194675981998444,0.9814010858535767,0.0,0.0,0.0,0.0,0.0,0.0,0.0,0.0,0.0,22.133399963378906,0.21907147765159607,0.2483604997396469,0.0,0.0,0.0,0.0,0.0,0.0,0.0,0.0,0.0,0.005551723297685385,-0.005419695749878883,0.34685036540031433,0.0,0.0,0.0,0.0,0.0,0.0,0.0,0.0,0.0
1606827755070556741,1754047,1606827755062942449,imu_link,0.001759429695084691,0.00229299021884799,0.19194725155830383,0.9814010262489319,0.0,0.0,0.0,0.0,0.0,0.0,0.0,0.0,0.0,22.13345718383789,0.21917122602462769,0.2483040690422058,0.0,0.0,0.0,0.0,0.0,0.0,0.0,0.0,0.0,-0.006040683016180992,-0.016305090859532356,0.3275200128555298,0.0,0.0,0.0,0.0,0.0,0.0,0.0,0.0,0.0
1606827755072329175,1754048,1606827755063061338,imu_link,0.001759429695084691,0.00229299021884799,0.19194725155830383,0.9814010262489319,0.0,0.0,0.0,0.0,0.0,0.0,0.0,0.0,0.0,22.13345718383789,0.21917122602462769,0.2483040690422058,0.0,0.0,0.0,0.0,0.0,0.0,0.0,0.0,0.0,-0.006040683016180992,-0.016305090859532356,0.3275200128555298,0.0,0.0,0.0,0.0,0.0,0.0,0.0,0.0,0.0
1606827755072369793,1754049,1606827755063212584,imu_link,0.0017603794112801552,0.002293086377903819,0.1919480711221695,0.9814007878303528,0.0,0.0,0.0,0.0,0.0,0.0,0.0,0.0,0.0,22.133554458618164,0.21916091442108154,0.24841316044330597,0.0,0.0,0.0,0.0,0.0,0.0,0.0,0.0,0.0,-0.01621045358479023,-0.009252292104065418,0.3420696556568146,0.0,0.0,0.0,0.0,0.0,0.0,0.0,0.0,0.0
1606827755072408748,1754050,1606827755063327548,imu_link,0.0017603794112801552,0.002293086377903819,0.1919480711221695,0.9814007878303528,0.0,0.0,0.0,0.0,0.0,0.0,0.0,0.0,0.0,22.133554458618164,0.21916091442108154,0.24841316044330597,0.0,0.0,0.0,0.0,0.0,0.0,0.0,0.0,0.0,-0.01621045358479023,-0.009252292104065418,0.3420696556568146,0.0,0.0,0.0,0.0,0.0,0.0,0.0,0.0,0.0
1606827755072443510,1754051,1606827755063398983,imu_link,0.001761807594448328,0.0022920456249266863,0.1919465959072113,0.9814012050628662,0.0,0.0,0.0,0.0,0.0,0.0,0.0,0.0,0.0,22.133380889892578,0.21901288628578186,0.24855054914951324,0.0,0.0,0.0,0.0,0.0,0.0,0.0,0.0,0.0,-0.0030256169848144054,-0.007484666537493467,0.3545762896537781,0.0,0.0,0.0,0.0,0.0,0.0,0.0,0.0,0.0
1606827755072454564,1754052,1606827755063467920,imu_link,0.001761807594448328,0.0022920456249266863,0.1919465959072113,0.9814012050628662,0.0,0.0,0.0,0.0,0.0,0.0,0.0,0.0,0.0,22.133380889892578,0.21901288628578186,0.24855054914951324,0.0,0.0,0.0,0.0,0.0,0.0,0.0,0.0,0.0,-0.0030256169848144054,-0.007484666537493467,0.3545762896537781,0.0,0.0,0.0,0.0,0.0,0.0,0.0,0.0,0.0
1606827755072470084,1754053,1606827755063555033,imu_link,0.0017634643008932471,0.0022919413167983294,0.19194920361042023,0.9814006090164185,0.0,0.0,0.0,0.0,0.0,0.0,0.0,0.0,0.0,22.133686065673828,0.21896402537822723,0.24873517453670502,0.0,0.0,0.0,0.0,0.0,0.0,0.0,0.0,0.0,0.0009820479899644852,-0.013909995555877686,0.3471416234970093,0.0,0.0,0.0,0.0,0.0,0.0,0.0,0.0,0.0
1606827755072509115,1754054,1606827755063624579,imu_link,0.0017634643008932471,0.0022919413167983294,0.19194920361042023,0.9814006090164185,0.0,0.0,0.0,0.0,0.0,0.0,0.0,0.0,0.0,22.133686065673828,0.21896402537822723,0.24873517453670502,0.0,0.0,0.0,0.0,0.0,0.0,0.0,0.0,0.0,0.0009820479899644852,-0.013909995555877686,0.3471416234970093,0.0,0.0,0.0,0.0,0.0,0.0,0.0,0.0,0.0
1606827755072532522,1754055,1606827755063693293,imu_link,0.001763802138157189,0.0022901995107531548,0.19194775819778442,0.9814009070396423,0.0,0.0,0.0,0.0,0.0,0.0,0.0,0.0,0.0,22.133516311645508,0.21876107156276703,0.2487344741821289,0.0,0.0,0.0,0.0,0.0,0.0,0.0,0.0,0.0,0.0006293226033449173,-0.005883409641683102,0.32165905833244324,0.0,0.0,0.0,0.0,0.0,0.0,0.0,0.0,0.0
1606827755072542217,1754056,1606827755063761968,imu_link,0.001763802138157189,0.0022901995107531548,0.19194775819778442,0.9814009070396423,0.0,0.0,0.0,0.0,0.0,0.0,0.0,0.0,0.0,22.133516311645508,0.21876107156276703,0.2487344741821289,0.0,0.0,0.0,0.0,0.0,0.0,0.0,0.0,0.0,0.0006293226033449173,-0.005883409641683102,0.32165905833244324,0.0,0.0,0.0,0.0,0.0,0.0,0.0,0.0,0.0
1606827755072549553,1754057,1606827755063841374,imu_link,0.0017644602339714766,0.002286582952365279,0.19194988906383514,0.9814004898071289,0.0,0.0,0.0,0.0,0.0,0.0,0.0,0.0,0.0,22.13376235961914,0.21833935379981995,0.24872943758964539,0.0,0.0,0.0,0.0,0.0,0.0,0.0,0.0,0.0,-0.005654898472130299,0.001461224164813757,0.31991228461265564,0.0,0.0,0.0,0.0,0.0,0.0,0.0,0.0,0.0
1606827755085839008,1754058,1606827755076828075,imu_link,0.0017644602339714766,0.002286582952365279,0.19194988906383514,0.9814004898071289,0.0,0.0,0.0,0.0,0.0,0.0,0.0,0.0,0.0,22.13376235961914,0.21833935379981995,0.24872943758964539,0.0,0.0,0.0,0.0,0.0,0.0,0.0,0.0,0.0,-0.005654898472130299,0.001461224164813757,0.31991228461265564,0.0,0.0,0.0,0.0,0.0,0.0,0.0,0.0,0.0
1606827755085869724,1754059,1606827755076952776,imu_link,0.0017618779093027115,0.0022865484934300184,0.1919497698545456,0.9814004898071289,0.0,0.0,0.0,0.0,0.0,0.0,0.0,0.0,0.0,22.133750915527344,0.2183922976255417,0.24843823909759521,0.0,0.0,0.0,0.0,0.0,0.0,0.0,0.0,0.0,-0.010966656729578972,-0.008133807219564915,0.3325967490673065,0.0,0.0,0.0,0.0,0.0,0.0,0.0,0.0,0.0
1606827755085893836,1754060,1606827755077114800,imu_link,0.0017618779093027115,0.0022865484934300184,0.1919497698545456,0.9814004898071289,0.0,0.0,0.0,0.0,0.0,0.0,0.0,0.0,0.0,22.133750915527344,0.2183922976255417,0.24843823909759521,0.0,0.0,0.0,0.0,0.0,0.0,0.0,0.0,0.0,-0.010966656729578972,-0.008133807219564915,0.3325967490673065,0.0,0.0,0.0,0.0,0.0,0.0,0.0,0.0,0.0
