%time,field.header.seq,field.header.stamp,field.header.frame_id,field.orientation.x,field.orientation.y,field.orientation.z,field.orientation.w,field.orientation_covariance0,field.orientation_covariance1,field.orientation_covariance2,field.orientation_covariance3,field.orientation_covariance4,field.orientation_covariance5,field.orientation_covariance6,field.orientation_covariance7,field.orientation_covariance8,field.angular_velocity.x,field.angular_velocity.y,field.angular_velocity.z,field.angular_velocity_covariance0,field.angular_velocity_covariance1,field.angular_velocity_covariance2,field.angular_velocity_covariance3,field.angular_velocity_covariance4,field.angular_velocity_covariance5,field.angular_velocity_covariance6,field.angular_velocity_covariance7,field.angular_velocity_covariance8,field.linear_acceleration.x,field.linear_acceleration.y,field.linear_acceleration.z,field.linear_acceleration_covariance0,field.linear_acceleration_covariance1,field.linear_acceleration_covariance2,field.linear_acceleration_covariance3,field.linear_acceleration_covariance4,field.linear_acceleration_covariance5,field.linear_acceleration_covariance6,field.linear_acceleration_covariance7,field.linear_acceleration_covariance8
1606827828008255806,1812396,1606827827999858415,imu_link,0.08068614453077316,0.014273176901042461,0.22490382194519043,0.9709296226501465,0.0,0.0,0.0,0.0,0.0,0.0,0.0,0.0,0.0,26.04334831237793,-0.4914172887802124,9.387301445007324,0.0,0.0,0.0,0.0,0.0,0.0,0.0,0.0,0.0,0.0026660319417715073,0.04686246067285538,0.3458297550678253,0.0,0.0,0.0,0.0,0.0,0.0,0.0,0.0,0.0
1606827828008285457,1812397,1606827827999954425,imu_link,0.08068884909152985,0.014274007640779018,0.22491154074668884,0.9709275960922241,0.0,0.0,0.0,0.0,0.0,0.0,0.0,0.0,0.0,26.04425811767578,-0.49146926403045654,9.387622833251953,0.0,0.0,0.0,0.0,0.0,0.0,0.0,0.0,0.0,0.008040163666009903,0.051329970359802246,0.3267640471458435,0.0,0.0,0.0,0.0,0.0,0.0,0.0,0.0,0.0
1606827828008299838,1812398,1606827828000092347,imu_link,0.08068884909152985,0.014274007640779018,0.22491154074668884,0.9709275960922241,0.0,0.0,0.0,0.0,0.0,0.0,0.0,0.0,0.0,26.04425811767578,-0.49146926403045654,9.387622833251953,0.0,0.0,0.0,0.0,0.0,0.0,0.0,0.0,0.0,0.008040163666009903,0.051329970359802246,0.3267640471458435,0.0,0.0,0.0,0.0,0.0,0.0,0.0,0.0,0.0
1606827828008344814,1812399,1606827828000165761,imu_link,0.08068821579217911,0.014273259788751602,0.22491221129894257,0.9709275364875793,0.0,0.0,0.0,0.0,0.0,0.0,0.0,0.0,0.0,26.044328689575195,-0.49154236912727356,9.387531280517578,0.0,0.0,0.0,0.0,0.0,0.0,0.0,0.0,0.0,0.018069615587592125,0.05559327080845833,0.30678197741508484,0.0,0.0,0.0,0.0,0.0,0.0,0.0,0.0,0.0
1606827828009144026,1812400,1606827828000229187,imu_link,0.08068821579217911,0.014273259788751602,0.22491221129894257,0.9709275364875793,0.0,0.0,0.0,0.0,0.0,0.0,0.0,0.0,0.0,26.044328689575195,-0.49154236912727356,9.387531280517578,0.0,0.0,0.0,0.0,0.0,0.0,0.0,0.0,0.0,0.018069615587592125,0.05559327080845833,0.30678197741508484,0.0,0.0,0.0,0.0,0.0,0.0,0.0,0.0,0.0
1606827828009173556,1812401,1606827828000287157,imu_link,0.08068601042032242,0.0142774423584342,0.22491143643856049,0.9709278345108032,0.0,0.0,0.0,0.0,0.0,0.0,0.0,0.0,0.0,26.044279098510742,-0.4910125136375427,9.387393951416016,0.0,0.0,0.0,0.0,0.0,0.0,0.0,0.0,0.0,0.0266831424087286,0.052658580243587494,0.31500211358070374,0.0,0.0,0.0,0.0,0.0,0.0,0.0,0.0,0.0
1606827828009217417,1812402,1606827828000364175,imu_link,0.08068601042032242,0.0142774423584342,0.22491143643856049,0.9709278345108032,0.0,0.0,0.0,0.0,0.0,0.0,0.0,0.0,0.0,26.044279098510742,-0.4910125136375427,9.387393951416016,0.0,0.0,0.0,0.0,0.0,0.0,0.0,0.0,0.0,0.0266831424087286,0.052658580243587494,0.31500211358070374,0.0,0.0,0.0,0.0,0.0,0.0,0.0,0.0,0.0
1606827828009250027,1812403,1606827828000435167,imu_link,0.0806860476732254,0.014276399277150631,0.22491168975830078,0.9709277749061584,0.0,0.0,0.0,0.0,0.0,0.0,0.0,0.0,0.0,26.044296264648438,-0.4911320209503174,9.387370109558105,0.0,0.0,0.0,0.0,0.0,0.0,0.0,0.0,0.0,0.004257950931787491,0.04824946075677872,0.31904616951942444,0.0,0.0,0.0,0.0,0.0,0.0,0.0,0.0,0.0
1606827828010557325,1812404,1606827828000506700,imu_link,0.0806860476732254,0.014276399277150631,0.22491168975830078,0.9709277749061584,0.0,0.0,0.0,0.0,0.0,0.0,0.0,0.0,0.0,26.044296264648438,-0.4911320209503174,9.387370109558105,0.0,0.0,0.0,0.0,0.0,0.0,0.0,0.0,0.0,0.004257950931787491,0.04824946075677872,0.31904616951942444,0.0,0.0,0.0,0.0,0.0,0.0,0.0,0.0,0.0
1606827828010574143,1812405,1606827828000568835,imu_link,0.08068715035915375,0.01427544467151165,0.22491195797920227,0.9709276556968689,0.0,0.0,0.0,0.0,0.0,0.0,0.0,0.0,0.0,26.04431915283203,-0.49126937985420227,9.387468338012695,0.0,0.0,0.0,0.0,0.0,0.0,0.0,0.0,0.0,-0.005483411252498627,0.027915114536881447,0.32431474328041077,0.0,0.0,0.0,0.0,0.0,0.0,0.0,0.0,0.0
1606827828010590709,1812406,1606827828000629936,imu_link,0.08068715035915375,0.01427544467151165,0.22491195797920227,0.9709276556968689,0.0,0.0,0.0,0.0,0.0,0.0,0.0,0.0,0.0,26.04431915283203,-0.49126937985420227,9.387468338012695,0.0,0.0,0.0,0.0,0.0,0.0,0.0,0.0,0.0,-0.005483411252498627,0.027915114536881447,0.32431474328041077,0.0,0.0,0.0,0.0,0.0,0.0,0.0,0.0,0.0
1606827828021028386,1812407,1606827828013322185,imu_link,0.08068551868200302,0.014274999499320984,0.22491061687469482,0.9709280729293823,0.0,0.0,0.0,0.0,0.0,0.0,0.0,0.0,0.0,26.044158935546875,-0.49126362800598145,9.387274742126465,0.0,0.0,0.0,0.0,0.0,0.0,0.0,0.0,0.0,0.003927844576537609,0.02510332316160202,0.32751068472862244,0.0,0.0,0.0,0.0,0.0,0.0,0.0,0.0,0.0
1606827828021729486,1812408,1606827828013393648,imu_link,0.08068551868200302,0.014274999499320984,0.22491061687469482,0.9709280729293823,0.0,0.0,0.0,0.0,0.0,0.0,0.0,0.0,0.0,26.044158935546875,-0.49126362800598145,9.387274742126465,0.0,0.0,0.0,0.0,0.0,0.0,0.0,0.0,0.0,0.003927844576537609,0.02510332316160202,0.32751068472862244,0.0,0.0,0.0,0.0,0.0,0.0,0.0,0.0,0.0
1606827828021746276,1812409,1606827828013444713,imu_link,0.08068883419036865,0.014276470057666302,0.2249128669500351,0.9709272384643555,0.0,0.0,0.0,0.0,0.0,0.0,0.0,0.0,0.0,26.044435501098633,-0.4912075996398926,9.387682914733887,0.0,0.0,0.0,0.0,0.0,0.0,0.0,0.0,0.0,0.007645263336598873,0.033840276300907135,0.31556233763694763,0.0,0.0,0.0,0.0,0.0,0.0,0.0,0.0,0.0
1606827828021755807,1812410,1606827828013489106,imu_link,0.08068883419036865,0.014276470057666302,0.2249128669500351,0.9709272384643555,0.0,0.0,0.0,0.0,0.0,0.0,0.0,0.0,0.0,26.044435501098633,-0.4912075996398926,9.387682914733887,0.0,0.0,0.0,0.0,0.0,0.0,0.0,0.0,0.0,0.007645263336598873,0.033840276300907135,0.31556233763694763,0.0,0.0,0.0,0.0,0.0,0.0,0.0,0.0,0.0
1606827828021760076,1812411,1606827828013530065,imu_link,0.08068785816431046,0.014276660978794098,0.22491534054279327,0.9709267616271973,0.0,0.0,0.0,0.0,0.0,0.0,0.0,0.0,0.0,26.044727325439453,-0.4911850690841675,9.387578010559082,0.0,0.0,0.0,0.0,0.0,0.0,0.0,0.0,0.0,0.0053631910122931,0.03373424708843231,0.30877408385276794,0.0,0.0,0.0,0.0,0.0,0.0,0.0,0.0,0.0
1606827828021765449,1812412,1606827828013583576,imu_link,0.08068785816431046,0.014276660978794098,0.22491534054279327,0.9709267616271973,0.0,0.0,0.0,0.0,0.0,0.0,0.0,0.0,0.0,26.044727325439453,-0.4911850690841675,9.387578010559082,0.0,0.0,0.0,0.0,0.0,0.0,0.0,0.0,0.0,0.0053631910122931,0.03373424708843231,0.30877408385276794,0.0,0.0,0.0,0.0,0.0,0.0,0.0,0.0,0.0
1606827828021772747,1812413,1606827828013629444,imu_link,0.0806896984577179,0.014279468916356564,0.22491483390331268,0.9709267020225525,0.0,0.0,0.0,0.0,0.0,0.0,0.0,0.0,0.0,26.044692993164062,-0.4909153878688812,9.387857437133789,0.0,0.0,0.0,0.0,0.0,0.0,0.0,0.0,0.0,-0.008621788583695889,0.03225577995181084,0.326045960187912,0.0,0.0,0.0,0.0,0.0,0.0,0.0,0.0,0.0
1606827828021788544,1812414,1606827828013665936,imu_link,0.0806896984577179,0.014279468916356564,0.22491483390331268,0.9709267020225525,0.0,0.0,0.0,0.0,0.0,0.0,0.0,0.0,0.0,26.044692993164062,-0.4909153878688812,9.387857437133789,0.0,0.0,0.0,0.0,0.0,0.0,0.0,0.0,0.0,-0.008621788583695889,0.03225577995181084,0.326045960187912,0.0,0.0,0.0,0.0,0.0,0.0,0.0,0.0,0.0
1606827828021797732,1812415,1606827828013710015,imu_link,0.08069164305925369,0.014278886839747429,0.2249154895544052,0.9709264039993286,0.0,0.0,0.0,0.0,0.0,0.0,0.0,0.0,0.0,26.04476547241211,-0.4910368323326111,9.388059616088867,0.0,0.0,0.0,0.0,0.0,0.0,0.0,0.0,0.0,0.008580385707318783,0.047890737652778625,0.35027262568473816,0.0,0.0,0.0,0.0,0.0,0.0,0.0,0.0,0.0
1606827828022788358,1812416,1606827828013752200,imu_link,0.08069164305925369,0.014278886839747429,0.2249154895544052,0.9709264039993286,0.0,0.0,0.0,0.0,0.0,0.0,0.0,0.0,0.0,26.04476547241211,-0.4910368323326111,9.388059616088867,0.0,0.0,0.0,0.0,0.0,0.0,0.0,0.0,0.0,0.008580385707318783,0.047890737652778625,0.35027262568473816,0.0,0.0,0.0,0.0,0.0,0.0,0.0,0.0,0.0
1606827828022801284,1812417,1606827828013789193,imu_link,0.08069313317537308,0.014278729446232319,0.2249128222465515,0.9709268808364868,0.0,0.0,0.0,0.0,0.0,0.0,0.0,0.0,0.0,26.044450759887695,-0.49106714129447937,9.388223648071289,0.0,0.0,0.0,0.0,0.0,0.0,0.0,0.0,0.0,0.014935208484530449,0.05429571121931076,0.3474648594856262,0.0,0.0,0.0,0.0,0.0,0.0,0.0,0.0,0.0
1606827828052613073,1812418,1606827828026380381,imu_link,0.08069313317537308,0.014278729446232319,0.2249128222465515,0.9709268808364868,0.0,0.0,0.0,0.0,0.0,0.0,0.0,0.0,0.0,26.044450759887695,-0.49106714129447937,9.388223648071289,0.0,0.0,0.0,0.0,0.0,0.0,0.0,0.0,0.0,0.014935208484530449,0.05429571121931076,0.3474648594856262,0.0,0.0,0.0,0.0,0.0,0.0,0.0,0.0,0.0
1606827828052632782,1812419,1606827828026484902,imu_link,0.08069314807653427,0.01427736971527338,0.22491268813610077,0.9709269404411316,0.0,0.0,0.0,0.0,0.0,0.0,0.0,0.0,0.0,26.04442024230957,-0.4912175238132477,9.388190269470215,0.0,0.0,0.0,0.0,0.0,0.0,0.0,0.0,0.0,-6.596650928258896e-05,0.05232010781764984,0.35737481713294983,0.0,0.0,0.0,0.0,0.0,0.0,0.0,0.0,0.0
1606827828052643314,1812420,1606827828026604082,imu_link,0.08069314807653427,0.01427736971527338,0.22491268813610077,0.9709269404411316,0.0,0.0,0.0,0.0,0.0,0.0,0.0,0.0,0.0,26.04442024230957,-0.4912175238132477,9.388190269470215,0.0,0.0,0.0,0.0,0.0,0.0,0.0,0.0,0.0,-6.596650928258896e-05,0.05232010781764984,0.35737481713294983,0.0,0.0,0.0,0.0,0.0,0.0,0.0,0.0,0.0
1606827828052653284,1812421,1606827828026664338,imu_link,0.08069385588169098,0.014277709648013115,0.22490984201431274,0.9709275364875793,0.0,0.0,0.0,0.0,0.0,0.0,0.0,0.0,0.0,26.04408836364746,-0.49117088317871094,9.38827896118164,0.0,0.0,0.0,0.0,0.0,0.0,0.0,0.0,0.0,0.01378791593015194,0.058213427662849426,0.3500306010246277,0.0,0.0,0.0,0.0,0.0,0.0,0.0,0.0,0.0
1606827828052665130,1812422,1606827828026720825,imu_link,0.08069385588169098,0.014277709648013115,0.22490984201431274,0.9709275364875793,0.0,0.0,0.0,0.0,0.0,0.0,0.0,0.0,0.0,26.04408836364746,-0.49117088317871094,9.38827896118164,0.0,0.0,0.0,0.0,0.0,0.0,0.0,0.0,0.0,0.01378791593015194,0.058213427662849426,0.3500306010246277,0.0,0.0,0.0,0.0,0.0,0.0,0.0,0.0,0.0
1606827828052685689,1812423,1606827828026796075,imu_link,0.08069436252117157,0.014276555739343166,0.22491192817687988,0.9709270000457764,0.0,0.0,0.0,0.0,0.0,0.0,0.0,0.0,0.0,26.044322967529297,-0.49133235216140747,9.3883056640625,0.0,0.0,0.0,0.0,0.0,0.0,0.0,0.0,0.0,0.014020905829966068,0.05732472985982895,0.33190175890922546,0.0,0.0,0.0,0.0,0.0,0.0,0.0,0.0,0.0
1606827828052702374,1812424,1606827828026858769,imu_link,0.08069436252117157,0.014276555739343166,0.22491192817687988,0.9709270000457764,0.0,0.0,0.0,0.0,0.0,0.0,0.0,0.0,0.0,26.044322967529297,-0.49133235216140747,9.3883056640625,0.0,0.0,0.0,0.0,0.0,0.0,0.0,0.0,0.0,0.014020905829966068,0.05732472985982895,0.33190175890922546,0.0,0.0,0.0,0.0,0.0,0.0,0.0,0.0,0.0
1606827828052718539,1812425,1606827828026917118,imu_link,0.08069412410259247,0.014279372990131378,0.22491319477558136,0.9709267020225525,0.0,0.0,0.0,0.0,0.0,0.0,0.0,0.0,0.0,26.044496536254883,-0.4910248816013336,9.388350486755371,0.0,0.0,0.0,0.0,0.0,0.0,0.0,0.0,0.0,-0.0036684523802250624,0.04756039008498192,0.301690012216568,0.0,0.0,0.0,0.0,0.0,0.0,0.0,0.0,0.0
1606827828052764719,1812426,1606827828026972522,imu_link,0.08069412410259247,0.014279372990131378,0.22491319477558136,0.9709267020225525,0.0,0.0,0.0,0.0,0.0,0.0,0.0,0.0,0.0,26.044496536254883,-0.4910248816013336,9.388350486755371,0.0,0.0,0.0,0.0,0.0,0.0,0.0,0.0,0.0,-0.0036684523802250624,0.04756039008498192,0.301690012216568,0.0,0.0,0.0,0.0,0.0,0.0,0.0,0.0,0.0
1606827828052772625,1812427,1606827828027024756,imu_link,0.08069401234388351,0.014279619790613651,0.22491395473480225,0.9709265232086182,0.0,0.0,0.0,0.0,0.0,0.0,0.0,0.0,0.0,26.04458999633789,-0.49100205302238464,9.388344764709473,0.0,0.0,0.0,0.0,0.0,0.0,0.0,0.0,0.0,-0.0037674515042454004,0.039738159626722336,0.26263299584388733,0.0,0.0,0.0,0.0,0.0,0.0,0.0,0.0,0.0
1606827828054276026,1812428,1606827828040110981,imu_link,0.08069401234388351,0.014279619790613651,0.22491395473480225,0.9709265232086182,0.0,0.0,0.0,0.0,0.0,0.0,0.0,0.0,0.0,26.04458999633789,-0.49100205302238464,9.388344764709473,0.0,0.0,0.0,0.0,0.0,0.0,0.0,0.0,0.0,-0.0037674515042454004,0.039738159626722336,0.26263299584388733,0.0,0.0,0.0,0.0,0.0,0.0,0.0,0.0,0.0
1606827828054289946,1812429,1606827828040212718,imu_link,0.08069383352994919,0.014279124327003956,0.22491832077503204,0.9709255695343018,0.0,0.0,0.0,0.0,0.0,0.0,0.0,0.0,0.0,26.045095443725586,-0.49109435081481934,9.388309478759766,0.0,0.0,0.0,0.0,0.0,0.0,0.0,0.0,0.0,-0.005656554363667965,0.05183642357587814,0.2989944815635681,0.0,0.0,0.0,0.0,0.0,0.0,0.0,0.0,0.0
1606827828054297362,1812430,1606827828040349102,imu_link,0.08069383352994919,0.014279124327003956,0.22491832077503204,0.9709255695343018,0.0,0.0,0.0,0.0,0.0,0.0,0.0,0.0,0.0,26.045095443725586,-0.49109435081481934,9.388309478759766,0.0,0.0,0.0,0.0,0.0,0.0,0.0,0.0,0.0,-0.005656554363667965,0.05183642357587814,0.2989944815635681,0.0,0.0,0.0,0.0,0.0,0.0,0.0,0.0,0.0
1606827828054323185,1812431,1606827828040424971,imu_link,0.08069278299808502,0.014278584159910679,0.22491902112960815,0.9709254503250122,0.0,0.0,0.0,0.0,0.0,0.0,0.0,0.0,0.0,26.045175552368164,-0.4911341667175293,9.388177871704102,0.0,0.0,0.0,0.0,0.0,0.0,0.0,0.0,0.0,0.0035782926715910435,0.05119335278868675,0.33259159326553345,0.0,0.0,0.0,0.0,0.0,0.0,0.0,0.0,0.0
1606827828054329852,1812432,1606827828040492126,imu_link,0.08069278299808502,0.014278584159910679,0.22491902112960815,0.9709254503250122,0.0,0.0,0.0,0.0,0.0,0.0,0.0,0.0,0.0,26.045175552368164,-0.4911341667175293,9.388177871704102,0.0,0.0,0.0,0.0,0.0,0.0,0.0,0.0,0.0,0.0035782926715910435,0.05119335278868675,0.33259159326553345,0.0,0.0,0.0,0.0,0.0,0.0,0.0,0.0,0.0
1606827828054338775,1812433,1606827828040548022,imu_link,0.08069388568401337,0.014278379268944263,0.2249237596988678,0.9709243178367615,0.0,0.0,0.0,0.0,0.0,0.0,0.0,0.0,0.0,26.04572868347168,-0.49123096466064453,9.38829231262207,0.0,0.0,0.0,0.0,0.0,0.0,0.0,0.0,0.0,0.007129870355129242,0.0439707487821579,0.3314349353313446,0.0,0.0,0.0,0.0,0.0,0.0,0.0,0.0,0.0
1606827828054351187,1812434,1606827828040619456,imu_link,0.08069388568401337,0.014278379268944263,0.2249237596988678,0.9709243178367615,0.0,0.0,0.0,0.0,0.0,0.0,0.0,0.0,0.0,26.04572868347168,-0.49123096466064453,9.38829231262207,0.0,0.0,0.0,0.0,0.0,0.0,0.0,0.0,0.0,0.007129870355129242,0.0439707487821579,0.3314349353313446,0.0,0.0,0.0,0.0,0.0,0.0,0.0,0.0,0.0
1606827828054358626,1812435,1606827828040679562,imu_link,0.08069521188735962,0.014278161339461803,0.22492368519306183,0.9709241986274719,0.0,0.0,0.0,0.0,0.0,0.0,0.0,0.0,0.0,26.045717239379883,-0.4912889301776886,9.388436317443848,0.0,0.0,0.0,0.0,0.0,0.0,0.0,0.0,0.0,-0.007846938446164131,0.05332813039422035,0.3265853524208069,0.0,0.0,0.0,0.0,0.0,0.0,0.0,0.0,0.0
1606827828054370331,1812436,1606827828040732568,imu_link,0.08069521188735962,0.014278161339461803,0.22492368519306183,0.9709241986274719,0.0,0.0,0.0,0.0,0.0,0.0,0.0,0.0,0.0,26.045717239379883,-0.4912889301776886,9.388436317443848,0.0,0.0,0.0,0.0,0.0,0.0,0.0,0.0,0.0,-0.007846938446164131,0.05332813039422035,0.3265853524208069,0.0,0.0,0.0,0.0,0.0,0.0,0.0,0.0,0.0
1606827828054377533,1812437,1606827828040790418,imu_link,0.08069634437561035,0.014277322217822075,0.22492815554141998,0.9709230661392212,0.0,0.0,0.0,0.0,0.0,0.0,0.0,0.0,0.0,26.046232223510742,-0.491454541683197,9.388538360595703,0.0,0.0,0.0,0.0,0.0,0.0,0.0,0.0,0.0,-0.014392051845788956,0.053648967295885086,0.3148656487464905,0.0,0.0,0.0,0.0,0.0,0.0,0.0,0.0,0.0
1606827828054383539,1812438,1606827828040850215,imu_link,0.08069634437561035,0.014277322217822075,0.22492815554141998,0.9709230661392212,0.0,0.0,0.0,0.0,0.0,0.0,0.0,0.0,0.0,26.046232223510742,-0.491454541683197,9.388538360595703,0.0,0.0,0.0,0.0,0.0,0.0,0.0,0.0,0.0,-0.014392051845788956,0.053648967295885086,0.3148656487464905,0.0,0.0,0.0,0.0,0.0,0.0,0.0,0.0,0.0
1606827828062668804,1812439,1606827828053530783,imu_link,0.0806969553232193,0.01427632849663496,0.22492805123329163,0.9709230661392212,0.0,0.0,0.0,0.0,0.0,0.0,0.0,0.0,0.0,26.046207427978516,-0.4915800392627716,9.388582229614258,0.0,0.0,0.0,0.0,0.0,0.0,0.0,0.0,0.0,0.0006813369691371918,0.054497964680194855,0.32460880279541016,0.0,0.0,0.0,0.0,0.0,0.0,0.0,0.0,0.0
1606827828062689042,1812440,1606827828053647123,imu_link,0.0806969553232193,0.01427632849663496,0.22492805123329163,0.9709230661392212,0.0,0.0,0.0,0.0,0.0,0.0,0.0,0.0,0.0,26.046207427978516,-0.4915800392627716,9.388582229614258,0.0,0.0,0.0,0.0,0.0,0.0,0.0,0.0,0.0,0.0006813369691371918,0.054497964680194855,0.32460880279541016,0.0,0.0,0.0,0.0,0.0,0.0,0.0,0.0,0.0
1606827828062700563,1812441,1606827828053787146,imu_link,0.08069682866334915,0.014276746660470963,0.2249354124069214,0.9709213376045227,0.0,0.0,0.0,0.0,0.0,0.0,0.0,0.0,0.0,26.04707908630371,-0.4916010797023773,9.38857650756836,0.0,0.0,0.0,0.0,0.0,0.0,0.0,0.0,0.0,0.017474152147769928,0.070283904671669,0.3279009759426117,0.0,0.0,0.0,0.0,0.0,0.0,0.0,0.0,0.0
1606827828062708268,1812442,1606827828053866108,imu_link,0.08069682866334915,0.014276746660470963,0.2249354124069214,0.9709213376045227,0.0,0.0,0.0,0.0,0.0,0.0,0.0,0.0,0.0,26.04707908630371,-0.4916010797023773,9.38857650756836,0.0,0.0,0.0,0.0,0.0,0.0,0.0,0.0,0.0,0.017474152147769928,0.070283904671669,0.3279009759426117,0.0,0.0,0.0,0.0,0.0,0.0,0.0,0.0,0.0
1606827828062721404,1812443,1606827828053928757,imu_link,0.08069805800914764,0.014277258887887001,0.22493648529052734,0.970920979976654,0.0,0.0,0.0,0.0,0.0,0.0,0.0,0.0,0.0,26.04720687866211,-0.49158623814582825,9.388725280761719,0.0,0.0,0.0,0.0,0.0,0.0,0.0,0.0,0.0,0.016155783087015152,0.06672230362892151,0.3404163420200348,0.0,0.0,0.0,0.0,0.0,0.0,0.0,0.0,0.0
1606827828063277800,1812444,1606827828053999737,imu_link,0.08069805800914764,0.014277258887887001,0.22493648529052734,0.970920979976654,0.0,0.0,0.0,0.0,0.0,0.0,0.0,0.0,0.0,26.04720687866211,-0.49158623814582825,9.388725280761719,0.0,0.0,0.0,0.0,0.0,0.0,0.0,0.0,0.0,0.016155783087015152,0.06672230362892151,0.3404163420200348,0.0,0.0,0.0,0.0,0.0,0.0,0.0,0.0,0.0
1606827828063300008,1812445,1606827828054088642,imu_link,0.08069656789302826,0.01427763793617487,0.22494445741176605,0.9709193110466003,0.0,0.0,0.0,0.0,0.0,0.0,0.0,0.0,0.0,26.048147201538086,-0.4915821850299835,9.388564109802246,0.0,0.0,0.0,0.0,0.0,0.0,0.0,0.0,0.0,0.0022832422982901335,0.05941567197442055,0.3418031632900238,0.0,0.0,0.0,0.0,0.0,0.0,0.0,0.0,0.0
1606827828063319872,1812446,1606827828054159670,imu_link,0.08069656789302826,0.01427763793617487,0.22494445741176605,0.9709193110466003,0.0,0.0,0.0,0.0,0.0,0.0,0.0,0.0,0.0,26.048147201538086,-0.4915821850299835,9.388564109802246,0.0,0.0,0.0,0.0,0.0,0.0,0.0,0.0,0.0,0.0022832422982901335,0.05941567197442055,0.3418031632900238,0.0,0.0,0.0,0.0,0.0,0.0,0.0,0.0,0.0
1606827828063334715,1812447,1606827828054230088,imu_link,0.08069686591625214,0.014278012327849865,0.22494299709796906,0.9709196090698242,0.0,0.0,0.0,0.0,0.0,0.0,0.0,0.0,0.0,26.047977447509766,-0.49153417348861694,9.3886079788208,0.0,0.0,0.0,0.0,0.0,0.0,0.0,0.0,0.0,-0.016084039583802223,0.0664365217089653,0.32501551508903503,0.0,0.0,0.0,0.0,0.0,0.0,0.0,0.0,0.0
1606827828064339833,1812448,1606827828054296831,imu_link,0.08069686591625214,0.014278012327849865,0.22494299709796906,0.9709196090698242,0.0,0.0,0.0,0.0,0.0,0.0,0.0,0.0,0.0,26.047977447509766,-0.49153417348861694,9.3886079788208,0.0,0.0,0.0,0.0,0.0,0.0,0.0,0.0,0.0,-0.016084039583802223,0.0664365217089653,0.32501551508903503,0.0,0.0,0.0,0.0,0.0,0.0,0.0,0.0,0.0
1606827828064357129,1812449,1606827828054363461,imu_link,0.08069539070129395,0.014275667257606983,0.22494284808635712,0.9709197878837585,0.0,0.0,0.0,0.0,0.0,0.0,0.0,0.0,0.0,26.04793930053711,-0.49175551533699036,9.388381004333496,0.0,0.0,0.0,0.0,0.0,0.0,0.0,0.0,0.0,-0.022224990651011467,0.051876164972782135,0.3175382614135742,0.0,0.0,0.0,0.0,0.0,0.0,0.0,0.0,0.0
1606827828075388622,1812450,1606827828067450562,imu_link,0.08069539070129395,0.014275667257606983,0.22494284808635712,0.9709197878837585,0.0,0.0,0.0,0.0,0.0,0.0,0.0,0.0,0.0,26.04793930053711,-0.49175551533699036,9.388381004333496,0.0,0.0,0.0,0.0,0.0,0.0,0.0,0.0,0.0,-0.022224990651011467,0.051876164972782135,0.3175382614135742,0.0,0.0,0.0,0.0,0.0,0.0,0.0,0.0,0.0
1606827828076115468,1812451,1606827828067561871,imu_link,0.08069530129432678,0.014273200184106827,0.22494393587112427,0.9709195494651794,0.0,0.0,0.0,0.0,0.0,0.0,0.0,0.0,0.0,26.048044204711914,-0.49203798174858093,9.388307571411133,0.0,0.0,0.0,0.0,0.0,0.0,0.0,0.0,0.0,-0.0053496998734772205,0.037523701786994934,0.2922196090221405,0.0,0.0,0.0,0.0,0.0,0.0,0.0,0.0,0.0
1606827828076130016,1812452,1606827828067700475,imu_link,0.08069530129432678,0.014273200184106827,0.22494393587112427,0.9709195494651794,0.0,0.0,0.0,0.0,0.0,0.0,0.0,0.0,0.0,26.048044204711914,-0.49203798174858093,9.388307571411133,0.0,0.0,0.0,0.0,0.0,0.0,0.0,0.0,0.0,-0.0053496998734772205,0.037523701786994934,0.2922196090221405,0.0,0.0,0.0,0.0,0.0,0.0,0.0,0.0,0.0
1606827828076136341,1812453,1606827828067765028,imu_link,0.08069631457328796,0.014272765256464481,0.224944606423378,0.9709193110466003,0.0,0.0,0.0,0.0,0.0,0.0,0.0,0.0,0.0,26.04811668395996,-0.4921192228794098,9.388410568237305,0.0,0.0,0.0,0.0,0.0,0.0,0.0,0.0,0.0,0.01684829220175743,0.05864226073026657,0.29177388548851013,0.0,0.0,0.0,0.0,0.0,0.0,0.0,0.0,0.0
1606827828076149554,1812454,1606827828067824072,imu_link,0.08069631457328796,0.014272765256464481,0.224944606423378,0.9709193110466003,0.0,0.0,0.0,0.0,0.0,0.0,0.0,0.0,0.0,26.04811668395996,-0.4921192228794098,9.388410568237305,0.0,0.0,0.0,0.0,0.0,0.0,0.0,0.0,0.0,0.01684829220175743,0.05864226073026657,0.29177388548851013,0.0,0.0,0.0,0.0,0.0,0.0,0.0,0.0,0.0
1606827828076694196,1812455,1606827828067897806,imu_link,0.0806979238986969,0.014277157373726368,0.22494515776634216,0.9709190130233765,0.0,0.0,0.0,0.0,0.0,0.0,0.0,0.0,0.0,26.0482234954834,-0.49167758226394653,9.388703346252441,0.0,0.0,0.0,0.0,0.0,0.0,0.0,0.0,0.0,0.002799827139824629,0.07400110363960266,0.30609431862831116,0.0,0.0,0.0,0.0,0.0,0.0,0.0,0.0,0.0
1606827828076716828,1812456,1606827828067976620,imu_link,0.0806979238986969,0.014277157373726368,0.22494515776634216,0.9709190130233765,0.0,0.0,0.0,0.0,0.0,0.0,0.0,0.0,0.0,26.0482234954834,-0.49167758226394653,9.388703346252441,0.0,0.0,0.0,0.0,0.0,0.0,0.0,0.0,0.0,0.002799827139824629,0.07400110363960266,0.30609431862831116,0.0,0.0,0.0,0.0,0.0,0.0,0.0,0.0,0.0
1606827828076724148,1812457,1606827828068045054,imu_link,0.08069545030593872,0.014276922680437565,0.22494353353977203,0.9709196090698242,0.0,0.0,0.0,0.0,0.0,0.0,0.0,0.0,0.0,26.048030853271484,-0.49162402749061584,9.388420104980469,0.0,0.0,0.0,0.0,0.0,0.0,0.0,0.0,0.0,-0.016697533428668976,0.062650166451931,0.31449270248413086,0.0,0.0,0.0,0.0,0.0,0.0,0.0,0.0,0.0
1606827828076736320,1812458,1606827828068106989,imu_link,0.08069545030593872,0.014276922680437565,0.22494353353977203,0.9709196090698242,0.0,0.0,0.0,0.0,0.0,0.0,0.0,0.0,0.0,26.048030853271484,-0.49162402749061584,9.388420104980469,0.0,0.0,0.0,0.0,0.0,0.0,0.0,0.0,0.0,-0.016697533428668976,0.062650166451931,0.31449270248413086,0.0,0.0,0.0,0.0,0.0,0.0,0.0,0.0,0.0
1606827828079430246,1812459,1606827828068173198,imu_link,0.08069620281457901,0.014277402311563492,0.22494469583034515,0.9709192514419556,0.0,0.0,0.0,0.0,0.0,0.0,0.0,0.0,0.0,26.048171997070312,-0.49160128831863403,9.388517379760742,0.0,0.0,0.0,0.0,0.0,0.0,0.0,0.0,0.0,-0.013723956421017647,0.04240885749459267,0.3075147867202759,0.0,0.0,0.0,0.0,0.0,0.0,0.0,0.0,0.0
1606827828079447404,1812460,1606827828068242450,imu_link,0.08069620281457901,0.014277402311563492,0.22494469583034515,0.9709192514419556,0.0,0.0,0.0,0.0,0.0,0.0,0.0,0.0,0.0,26.048171997070312,-0.49160128831863403,9.388517379760742,0.0,0.0,0.0,0.0,0.0,0.0,0.0,0.0,0.0,-0.013723956421017647,0.04240885749459267,0.3075147867202759,0.0,0.0,0.0,0.0,0.0,0.0,0.0,0.0,0.0
1606827828088672191,1812461,1606827828080910504,imu_link,0.08069717884063721,0.014274384826421738,0.22494836151599884,0.9709183573722839,0.0,0.0,0.0,0.0,0.0,0.0,0.0,0.0,0.0,26.04857635498047,-0.49199753999710083,9.38854694366455,0.0,0.0,0.0,0.0,0.0,0.0,0.0,0.0,0.0,0.002564408117905259,0.047363609075546265,0.2889529764652252,0.0,0.0,0.0,0.0,0.0,0.0,0.0,0.0,0.0
1606827828089876418,1812462,1606827828081035447,imu_link,0.08069717884063721,0.014274384826421738,0.22494836151599884,0.9709183573722839,0.0,0.0,0.0,0.0,0.0,0.0,0.0,0.0,0.0,26.04857635498047,-0.49199753999710083,9.38854694366455,0.0,0.0,0.0,0.0,0.0,0.0,0.0,0.0,0.0,0.002564408117905259,0.047363609075546265,0.2889529764652252,0.0,0.0,0.0,0.0,0.0,0.0,0.0,0.0,0.0
1606827828089897295,1812463,1606827828081200850,imu_link,0.08069758117198944,0.01427489798516035,0.22494889795780182,0.9709182381629944,0.0,0.0,0.0,0.0,0.0,0.0,0.0,0.0,0.0,26.048641204833984,-0.49195581674575806,9.388605117797852,0.0,0.0,0.0,0.0,0.0,0.0,0.0,0.0,0.0,0.019144292920827866,0.06884634494781494,0.29223397374153137,0.0,0.0,0.0,0.0,0.0,0.0,0.0,0.0,0.0
1606827828089904668,1812464,1606827828081298516,imu_link,0.08069758117198944,0.01427489798516035,0.22494889795780182,0.9709182381629944,0.0,0.0,0.0,0.0,0.0,0.0,0.0,0.0,0.0,26.048641204833984,-0.49195581674575806,9.388605117797852,0.0,0.0,0.0,0.0,0.0,0.0,0.0,0.0,0.0,0.019144292920827866,0.06884634494781494,0.29223397374153137,0.0,0.0,0.0,0.0,0.0,0.0,0.0,0.0,0.0
1606827828089924733,1812465,1606827828081367924,imu_link,0.08069473505020142,0.014276496134698391,0.22494611144065857,0.9709190726280212,0.0,0.0,0.0,0.0,0.0,0.0,0.0,0.0,0.0,26.04833221435547,-0.49167758226394653,9.388328552246094,0.0,0.0,0.0,0.0,0.0,0.0,0.0,0.0,0.0,0.013230836018919945,0.05795861408114433,0.3200743496417999,0.0,0.0,0.0,0.0,0.0,0.0,0.0,0.0,0.0
1606827828089935409,1812466,1606827828081458569,imu_link,0.08069473505020142,0.014276496134698391,0.22494611144065857,0.9709190726280212,0.0,0.0,0.0,0.0,0.0,0.0,0.0,0.0,0.0,26.04833221435547,-0.49167758226394653,9.388328552246094,0.0,0.0,0.0,0.0,0.0,0.0,0.0,0.0,0.0,0.013230836018919945,0.05795861408114433,0.3200743496417999,0.0,0.0,0.0,0.0,0.0,0.0,0.0,0.0,0.0
1606827828089958798,1812467,1606827828081533502,imu_link,0.08069564402103424,0.014276880770921707,0.22494715452194214,0.9709187746047974,0.0,0.0,0.0,0.0,0.0,0.0,0.0,0.0,0.0,26.04845428466797,-0.4916684329509735,9.38843822479248,0.0,0.0,0.0,0.0,0.0,0.0,0.0,0.0,0.0,0.011932266876101494,0.0361548475921154,0.32805806398391724,0.0,0.0,0.0,0.0,0.0,0.0,0.0,0.0,0.0
1606827828089969022,1812468,1606827828081603447,imu_link,0.08069564402103424,0.014276880770921707,0.22494715452194214,0.9709187746047974,0.0,0.0,0.0,0.0,0.0,0.0,0.0,0.0,0.0,26.04845428466797,-0.4916684329509735,9.38843822479248,0.0,0.0,0.0,0.0,0.0,0.0,0.0,0.0,0.0,0.011932266876101494,0.0361548475921154,0.32805806398391724,0.0,0.0,0.0,0.0,0.0,0.0,0.0,0.0,0.0
1606827828089978946,1812469,1606827828081671114,imu_link,0.08069854229688644,0.014277269132435322,0.22494253516197205,0.9709196090698242,0.0,0.0,0.0,0.0,0.0,0.0,0.0,0.0,0.0,26.047914505004883,-0.4916558265686035,9.388775825500488,0.0,0.0,0.0,0.0,0.0,0.0,0.0,0.0,0.0,0.03518146649003029,0.03540756553411484,0.3206261694431305,0.0,0.0,0.0,0.0,0.0,0.0,0.0,0.0,0.0
1606827828089992799,1812470,1606827828081738651,imu_link,0.08069854229688644,0.014277269132435322,0.22494253516197205,0.9709196090698242,0.0,0.0,0.0,0.0,0.0,0.0,0.0,0.0,0.0,26.047914505004883,-0.4916558265686035,9.388775825500488,0.0,0.0,0.0,0.0,0.0,0.0,0.0,0.0,0.0,0.03518146649003029,0.03540756553411484,0.3206261694431305,0.0,0.0,0.0,0.0,0.0,0.0,0.0,0.0,0.0
1606827828090020234,1812471,1606827828081808306,imu_link,0.08069716393947601,0.01427516806870699,0.22494389116764069,0.9709194302558899,0.0,0.0,0.0,0.0,0.0,0.0,0.0,0.0,0.0,26.04805564880371,-0.4918668270111084,9.388567924499512,0.0,0.0,0.0,0.0,0.0,0.0,0.0,0.0,0.0,0.03674929589033127,0.05228777602314949,0.3282109498977661,0.0,0.0,0.0,0.0,0.0,0.0,0.0,0.0,0.0
1606827828101513870,1812472,1606827828093799560,imu_link,0.08069716393947601,0.01427516806870699,0.22494389116764069,0.9709194302558899,0.0,0.0,0.0,0.0,0.0,0.0,0.0,0.0,0.0,26.04805564880371,-0.4918668270111084,9.388567924499512,0.0,0.0,0.0,0.0,0.0,0.0,0.0,0.0,0.0,0.03674929589033127,0.05228777602314949,0.3282109498977661,0.0,0.0,0.0,0.0,0.0,0.0,0.0,0.0,0.0
1606827828102852341,1812473,1606827828093913796,imu_link,0.08069955557584763,0.014276728965342045,0.22494424879550934,0.970919132232666,0.0,0.0,0.0,0.0,0.0,0.0,0.0,0.0,0.0,26.04810905456543,-0.4917585849761963,9.388875007629395,0.0,0.0,0.0,0.0,0.0,0.0,0.0,0.0,0.0,0.011917492374777794,0.054501038044691086,0.3222872316837311,0.0,0.0,0.0,0.0,0.0,0.0,0.0,0.0,0.0
1606827828102889147,1812474,1606827828094023169,imu_link,0.08069955557584763,0.014276728965342045,0.22494424879550934,0.970919132232666,0.0,0.0,0.0,0.0,0.0,0.0,0.0,0.0,0.0,26.04810905456543,-0.4917585849761963,9.388875007629395,0.0,0.0,0.0,0.0,0.0,0.0,0.0,0.0,0.0,0.011917492374777794,0.054501038044691086,0.3222872316837311,0.0,0.0,0.0,0.0,0.0,0.0,0.0,0.0,0.0
1606827828102908303,1812475,1606827828094093095,imu_link,0.08069952577352524,0.014277039095759392,0.22494444251060486,0.9709190726280212,0.0,0.0,0.0,0.0,0.0,0.0,0.0,0.0,0.0,26.048137664794922,-0.49172520637512207,9.388880729675293,0.0,0.0,0.0,0.0,0.0,0.0,0.0,0.0,0.0,0.003590059233829379,0.060963962227106094,0.3159424960613251,0.0,0.0,0.0,0.0,0.0,0.0,0.0,0.0,0.0
1606827828102930811,1812476,1606827828094162420,imu_link,0.08069952577352524,0.014277039095759392,0.22494444251060486,0.9709190726280212,0.0,0.0,0.0,0.0,0.0,0.0,0.0,0.0,0.0,26.048137664794922,-0.49172520637512207,9.388880729675293,0.0,0.0,0.0,0.0,0.0,0.0,0.0,0.0,0.0,0.003590059233829379,0.060963962227106094,0.3159424960613251,0.0,0.0,0.0,0.0,0.0,0.0,0.0,0.0,0.0
1606827828102945662,1812477,1606827828094245652,imu_link,0.08069732785224915,0.014278312213718891,0.22494544088840485,0.9709190130233765,0.0,0.0,0.0,0.0,0.0,0.0,0.0,0.0,0.0,26.04826545715332,-0.49153628945350647,9.388665199279785,0.0,0.0,0.0,0.0,0.0,0.0,0.0,0.0,0.0,0.006377584766596556,0.07369977980852127,0.31897541880607605,0.0,0.0,0.0,0.0,0.0,0.0,0.0,0.0,0.0
1606827828102955056,1812478,1606827828094323757,imu_link,0.08069732785224915,0.014278312213718891,0.22494544088840485,0.9709190130233765,0.0,0.0,0.0,0.0,0.0,0.0,0.0,0.0,0.0,26.04826545715332,-0.49153628945350647,9.388665199279785,0.0,0.0,0.0,0.0,0.0,0.0,0.0,0.0,0.0,0.006377584766596556,0.07369977980852127,0.31897541880607605,0.0,0.0,0.0,0.0,0.0,0.0,0.0,0.0,0.0
1606827828103013021,1812479,1606827828094394626,imu_link,0.08069683611392975,0.014279060065746307,0.22494705021381378,0.9709186553955078,0.0,0.0,0.0,0.0,0.0,0.0,0.0,0.0,0.0,26.048463821411133,-0.4914558231830597,9.388629913330078,0.0,0.0,0.0,0.0,0.0,0.0,0.0,0.0,0.0,0.010274002328515053,0.05096681788563728,0.3043995797634125,0.0,0.0,0.0,0.0,0.0,0.0,0.0,0.0,0.0
1606827828103024969,1812480,1606827828094462663,imu_link,0.08069683611392975,0.014279060065746307,0.22494705021381378,0.9709186553955078,0.0,0.0,0.0,0.0,0.0,0.0,0.0,0.0,0.0,26.048463821411133,-0.4914558231830597,9.388629913330078,0.0,0.0,0.0,0.0,0.0,0.0,0.0,0.0,0.0,0.010274002328515053,0.05096681788563728,0.3043995797634125,0.0,0.0,0.0,0.0,0.0,0.0,0.0,0.0,0.0
1606827828103033554,1812481,1606827828094529681,imu_link,0.08069518953561783,0.014279445633292198,0.22495169937610626,0.9709177017211914,0.0,0.0,0.0,0.0,0.0,0.0,0.0,0.0,0.0,26.04901123046875,-0.4914151728153229,9.388453483581543,0.0,0.0,0.0,0.0,0.0,0.0,0.0,0.0,0.0,0.0009089033119380474,0.024737266823649406,0.2838355302810669,0.0,0.0,0.0,0.0,0.0,0.0,0.0,0.0,0.0
1606827828115202897,1812482,1606827828107506354,imu_link,0.08069518953561783,0.014279445633292198,0.22495169937610626,0.9709177017211914,0.0,0.0,0.0,0.0,0.0,0.0,0.0,0.0,0.0,26.04901123046875,-0.4914151728153229,9.388453483581543,0.0,0.0,0.0,0.0,0.0,0.0,0.0,0.0,0.0,0.0009089033119380474,0.024737266823649406,0.2838355302810669,0.0,0.0,0.0,0.0,0.0,0.0,0.0,0.0,0.0
1606827828117241422,1812483,1606827828107642197,imu_link,0.08069396018981934,0.014278759248554707,0.2249489724636078,0.9709184765815735,0.0,0.0,0.0,0.0,0.0,0.0,0.0,0.0,0.0,26.048683166503906,-0.49143320322036743,9.388298988342285,0.0,0.0,0.0,0.0,0.0,0.0,0.0,0.0,0.0,0.007198800332844257,0.03468908369541168,0.3037247061729431,0.0,0.0,0.0,0.0,0.0,0.0,0.0,0.0,0.0
1606827828117268837,1812484,1606827828107844409,imu_link,0.08069396018981934,0.014278759248554707,0.2249489724636078,0.9709184765815735,0.0,0.0,0.0,0.0,0.0,0.0,0.0,0.0,0.0,26.048683166503906,-0.49143320322036743,9.388298988342285,0.0,0.0,0.0,0.0,0.0,0.0,0.0,0.0,0.0,0.007198800332844257,0.03468908369541168,0.3037247061729431,0.0,0.0,0.0,0.0,0.0,0.0,0.0,0.0,0.0
1606827828117291044,1812485,1606827828107960131,imu_link,0.08069765567779541,0.014280146919190884,0.22495587170124054,0.9709164500236511,0.0,0.0,0.0,0.0,0.0,0.0,0.0,0.0,0.0,26.049509048461914,-0.49144142866134644,9.388745307922363,0.0,0.0,0.0,0.0,0.0,0.0,0.0,0.0,0.0,0.003737884107977152,0.05167127028107643,0.3234497010707855,0.0,0.0,0.0,0.0,0.0,0.0,0.0,0.0,0.0
1606827828117304351,1812486,1606827828108034608,imu_link,0.08069765567779541,0.014280146919190884,0.22495587170124054,0.9709164500236511,0.0,0.0,0.0,0.0,0.0,0.0,0.0,0.0,0.0,26.049509048461914,-0.49144142866134644,9.388745307922363,0.0,0.0,0.0,0.0,0.0,0.0,0.0,0.0,0.0,0.003737884107977152,0.05167127028107643,0.3234497010707855,0.0,0.0,0.0,0.0,0.0,0.0,0.0,0.0,0.0
1606827828117317773,1812487,1606827828108126079,imu_link,0.08069848269224167,0.014279250986874104,0.22495606541633606,0.9709164500236511,0.0,0.0,0.0,0.0,0.0,0.0,0.0,0.0,0.0,26.049518585205078,-0.49156415462493896,9.388813972473145,0.0,0.0,0.0,0.0,0.0,0.0,0.0,0.0,0.0,-0.011964893899857998,0.056503474712371826,0.32211068272590637,0.0,0.0,0.0,0.0,0.0,0.0,0.0,0.0,0.0
1606827828117333017,1812488,1606827828108228776,imu_link,0.08069848269224167,0.014279250986874104,0.22495606541633606,0.9709164500236511,0.0,0.0,0.0,0.0,0.0,0.0,0.0,0.0,0.0,26.049518585205078,-0.49156415462493896,9.388813972473145,0.0,0.0,0.0,0.0,0.0,0.0,0.0,0.0,0.0,-0.011964893899857998,0.056503474712371826,0.32211068272590637,0.0,0.0,0.0,0.0,0.0,0.0,0.0,0.0,0.0
1606827828117374302,1812489,1606827828108305298,imu_link,0.0806983932852745,0.014278482645750046,0.22496557235717773,0.9709142446517944,0.0,0.0,0.0,0.0,0.0,0.0,0.0,0.0,0.0,26.050626754760742,-0.4917387366294861,9.388779640197754,0.0,0.0,0.0,0.0,0.0,0.0,0.0,0.0,0.0,-6.839679554104805e-05,0.06099329888820648,0.34330564737319946,0.0,0.0,0.0,0.0,0.0,0.0,0.0,0.0,0.0
1606827828117389668,1812490,1606827828108383483,imu_link,0.0806983932852745,0.014278482645750046,0.22496557235717773,0.9709142446517944,0.0,0.0,0.0,0.0,0.0,0.0,0.0,0.0,0.0,26.050626754760742,-0.4917387366294861,9.388779640197754,0.0,0.0,0.0,0.0,0.0,0.0,0.0,0.0,0.0,-6.839679554104805e-05,0.06099329888820648,0.34330564737319946,0.0,0.0,0.0,0.0,0.0,0.0,0.0,0.0,0.0
1606827828119523514,1812491,1606827828108469091,imu_link,0.08069843053817749,0.014280503615736961,0.22496536374092102,0.9709142446517944,0.0,0.0,0.0,0.0,0.0,0.0,0.0,0.0,0.0,26.050621032714844,-0.4915129244327545,9.388836860656738,0.0,0.0,0.0,0.0,0.0,0.0,0.0,0.0,0.0,0.0072679161094129086,0.05585785582661629,0.3473089635372162,0.0,0.0,0.0,0.0,0.0,0.0,0.0,0.0,0.0
1606827828119541762,1812492,1606827828108546128,imu_link,0.08069843053817749,0.014280503615736961,0.22496536374092102,0.9709142446517944,0.0,0.0,0.0,0.0,0.0,0.0,0.0,0.0,0.0,26.050621032714844,-0.4915129244327545,9.388836860656738,0.0,0.0,0.0,0.0,0.0,0.0,0.0,0.0,0.0,0.0072679161094129086,0.05585785582661629,0.3473089635372162,0.0,0.0,0.0,0.0,0.0,0.0,0.0,0.0,0.0
1606827828128868456,1812493,1606827828121036923,imu_link,0.0806988775730133,0.014280951581895351,0.2249758541584015,0.9709118008613586,0.0,0.0,0.0,0.0,0.0,0.0,0.0,0.0,0.0,26.051855087280273,-0.491575688123703,9.388893127441406,0.0,0.0,0.0,0.0,0.0,0.0,0.0,0.0,0.0,0.016197502613067627,0.059121064841747284,0.3150404393672943,0.0,0.0,0.0,0.0,0.0,0.0,0.0,0.0,0.0
1606827828129848376,1812494,1606827828121178690,imu_link,0.0806988775730133,0.014280951581895351,0.2249758541584015,0.9709118008613586,0.0,0.0,0.0,0.0,0.0,0.0,0.0,0.0,0.0,26.051855087280273,-0.491575688123703,9.388893127441406,0.0,0.0,0.0,0.0,0.0,0.0,0.0,0.0,0.0,0.016197502613067627,0.059121064841747284,0.3150404393672943,0.0,0.0,0.0,0.0,0.0,0.0,0.0,0.0,0.0
1606827828129881822,1812495,1606827828121343089,imu_link,0.08069824427366257,0.014282124117016792,0.22497722506523132,0.9709115028381348,0.0,0.0,0.0,0.0,0.0,0.0,0.0,0.0,0.0,26.052030563354492,-0.4914420545101166,9.3888521194458,0.0,0.0,0.0,0.0,0.0,0.0,0.0,0.0,0.0,0.009126079268753529,0.06216952204704285,0.2973575294017792,0.0,0.0,0.0,0.0,0.0,0.0,0.0,0.0,0.0
1606827828129941617,1812496,1606827828121429509,imu_link,0.08069824427366257,0.014282124117016792,0.22497722506523132,0.9709115028381348,0.0,0.0,0.0,0.0,0.0,0.0,0.0,0.0,0.0,26.052030563354492,-0.4914420545101166,9.3888521194458,0.0,0.0,0.0,0.0,0.0,0.0,0.0,0.0,0.0,0.009126079268753529,0.06216952204704285,0.2973575294017792,0.0,0.0,0.0,0.0,0.0,0.0,0.0,0.0,0.0
1606827828129957727,1812497,1606827828121513538,imu_link,0.08069644123315811,0.014282944612205029,0.22498583793640137,0.9709096550941467,0.0,0.0,0.0,0.0,0.0,0.0,0.0,0.0,0.0,26.053049087524414,-0.49138689041137695,9.388666152954102,0.0,0.0,0.0,0.0,0.0,0.0,0.0,0.0,0.0,-0.020975083112716675,0.07264070212841034,0.3227706551551819,0.0,0.0,0.0,0.0,0.0,0.0,0.0,0.0,0.0
1606827828129969901,1812498,1606827828121611494,imu_link,0.08069644123315811,0.014282944612205029,0.22498583793640137,0.9709096550941467,0.0,0.0,0.0,0.0,0.0,0.0,0.0,0.0,0.0,26.053049087524414,-0.49138689041137695,9.388666152954102,0.0,0.0,0.0,0.0,0.0,0.0,0.0,0.0,0.0,-0.020975083112716675,0.07264070212841034,0.3227706551551819,0.0,0.0,0.0,0.0,0.0,0.0,0.0,0.0,0.0
1606827828129983546,1812499,1606827828121719247,imu_link,0.08069488406181335,0.014283421449363232,0.22498729825019836,0.9709093570709229,0.0,0.0,0.0,0.0,0.0,0.0,0.0,0.0,0.0,26.053226470947266,-0.49130770564079285,9.388504028320312,0.0,0.0,0.0,0.0,0.0,0.0,0.0,0.0,0.0,-0.029680859297513962,0.07201775908470154,0.33831140398979187,0.0,0.0,0.0,0.0,0.0,0.0,0.0,0.0,0.0
1606827828130009124,1812500,1606827828121793930,imu_link,0.08069488406181335,0.014283421449363232,0.22498729825019836,0.9709093570709229,0.0,0.0,0.0,0.0,0.0,0.0,0.0,0.0,0.0,26.053226470947266,-0.49130770564079285,9.388504028320312,0.0,0.0,0.0,0.0,0.0,0.0,0.0,0.0,0.0,-0.029680859297513962,0.07201775908470154,0.33831140398979187,0.0,0.0,0.0,0.0,0.0,0.0,0.0,0.0,0.0
1606827828130016822,1812501,1606827828121870662,imu_link,0.08069384843111038,0.014282272197306156,0.22499606013298035,0.9709075093269348,0.0,0.0,0.0,0.0,0.0,0.0,0.0,0.0,0.0,26.05423927307129,-0.49149295687675476,9.38835334777832,0.0,0.0,0.0,0.0,0.0,0.0,0.0,0.0,0.0,-0.005997206084430218,0.05924146994948387,0.32189610600471497,0.0,0.0,0.0,0.0,0.0,0.0,0.0,0.0,0.0
1606827828130926310,1812502,1606827828121957878,imu_link,0.08069384843111038,0.014282272197306156,0.22499606013298035,0.9709075093269348,0.0,0.0,0.0,0.0,0.0,0.0,0.0,0.0,0.0,26.05423927307129,-0.49149295687675476,9.38835334777832,0.0,0.0,0.0,0.0,0.0,0.0,0.0,0.0,0.0,-0.005997206084430218,0.05924146994948387,0.32189610600471497,0.0,0.0,0.0,0.0,0.0,0.0,0.0,0.0,0.0
1606827828130941150,1812503,1606827828122047510,imu_link,0.08069326728582382,0.014281370677053928,0.2249961495399475,0.9709075689315796,0.0,0.0,0.0,0.0,0.0,0.0,0.0,0.0,0.0,26.054243087768555,-0.4915788769721985,9.388265609741211,0.0,0.0,0.0,0.0,0.0,0.0,0.0,0.0,0.0,0.005053223110735416,0.06312605738639832,0.34660112857818604,0.0,0.0,0.0,0.0,0.0,0.0,0.0,0.0,0.0
1606827828142684640,1812504,1606827828134910500,imu_link,0.08069326728582382,0.014281370677053928,0.2249961495399475,0.9709075689315796,0.0,0.0,0.0,0.0,0.0,0.0,0.0,0.0,0.0,26.054243087768555,-0.4915788769721985,9.388265609741211,0.0,0.0,0.0,0.0,0.0,0.0,0.0,0.0,0.0,0.005053223110735416,0.06312605738639832,0.34660112857818604,0.0,0.0,0.0,0.0,0.0,0.0,0.0,0.0,0.0
1606827828143162835,1812505,1606827828135031539,imu_link,0.08069449663162231,0.014280073344707489,0.22499874234199524,0.9709069132804871,0.0,0.0,0.0,0.0,0.0,0.0,0.0,0.0,0.0,26.054533004760742,-0.49178004264831543,9.38836669921875,0.0,0.0,0.0,0.0,0.0,0.0,0.0,0.0,0.0,-0.00401286780834198,0.05391388386487961,0.35711669921875,0.0,0.0,0.0,0.0,0.0,0.0,0.0,0.0,0.0
1606827828143179486,1812506,1606827828135197514,imu_link,0.08069449663162231,0.014280073344707489,0.22499874234199524,0.9709069132804871,0.0,0.0,0.0,0.0,0.0,0.0,0.0,0.0,0.0,26.054533004760742,-0.49178004264831543,9.38836669921875,0.0,0.0,0.0,0.0,0.0,0.0,0.0,0.0,0.0,-0.00401286780834198,0.05391388386487961,0.35711669921875,0.0,0.0,0.0,0.0,0.0,0.0,0.0,0.0,0.0
1606827828143188670,1812507,1606827828135359751,imu_link,0.08069386333227158,0.014279277995228767,0.22499996423721313,0.9709065556526184,0.0,0.0,0.0,0.0,0.0,0.0,0.0,0.0,0.0,26.054670333862305,-0.4918641448020935,9.388275146484375,0.0,0.0,0.0,0.0,0.0,0.0,0.0,0.0,0.0,-0.0036599773447960615,0.03764393925666809,0.32310834527015686,0.0,0.0,0.0,0.0,0.0,0.0,0.0,0.0,0.0
1606827828143198928,1812508,1606827828135446627,imu_link,0.08069386333227158,0.014279277995228767,0.22499996423721313,0.9709065556526184,0.0,0.0,0.0,0.0,0.0,0.0,0.0,0.0,0.0,26.054670333862305,-0.4918641448020935,9.388275146484375,0.0,0.0,0.0,0.0,0.0,0.0,0.0,0.0,0.0,-0.0036599773447960615,0.03764393925666809,0.32310834527015686,0.0,0.0,0.0,0.0,0.0,0.0,0.0,0.0,0.0
1606827828144348552,1812509,1606827828135521546,imu_link,0.08069562166929245,0.014278977178037167,0.22500048577785492,0.9709063172340393,0.0,0.0,0.0,0.0,0.0,0.0,0.0,0.0,0.0,26.05472755432129,-0.49194812774658203,9.38846492767334,0.0,0.0,0.0,0.0,0.0,0.0,0.0,0.0,0.0,-0.00480862520635128,0.04960344731807709,0.3009755611419678,0.0,0.0,0.0,0.0,0.0,0.0,0.0,0.0,0.0
1606827828144368286,1812510,1606827828135612199,imu_link,0.08069562166929245,0.014278977178037167,0.22500048577785492,0.9709063172340393,0.0,0.0,0.0,0.0,0.0,0.0,0.0,0.0,0.0,26.05472755432129,-0.49194812774658203,9.38846492767334,0.0,0.0,0.0,0.0,0.0,0.0,0.0,0.0,0.0,-0.00480862520635128,0.04960344731807709,0.3009755611419678,0.0,0.0,0.0,0.0,0.0,0.0,0.0,0.0,0.0
1606827828144403975,1812511,1606827828135682749,imu_link,0.08069539815187454,0.014280262403190136,0.22500023245811462,0.9709064364433289,0.0,0.0,0.0,0.0,0.0,0.0,0.0,0.0,0.0,26.05470848083496,-0.49179691076278687,9.388472557067871,0.0,0.0,0.0,0.0,0.0,0.0,0.0,0.0,0.0,-0.0010262285359203815,0.0674549862742424,0.30891621112823486,0.0,0.0,0.0,0.0,0.0,0.0,0.0,0.0,0.0
1606827828144421335,1812512,1606827828135762382,imu_link,0.08069539815187454,0.014280262403190136,0.22500023245811462,0.9709064364433289,0.0,0.0,0.0,0.0,0.0,0.0,0.0,0.0,0.0,26.05470848083496,-0.49179691076278687,9.388472557067871,0.0,0.0,0.0,0.0,0.0,0.0,0.0,0.0,0.0,-0.0010262285359203815,0.0674549862742424,0.30891621112823486,0.0,0.0,0.0,0.0,0.0,0.0,0.0,0.0,0.0
1606827828144438374,1812513,1606827828135837738,imu_link,0.08069419860839844,0.014278726652264595,0.22499971091747284,0.970906674861908,0.0,0.0,0.0,0.0,0.0,0.0,0.0,0.0,0.0,26.054636001586914,-0.4919314980506897,9.388298988342285,0.0,0.0,0.0,0.0,0.0,0.0,0.0,0.0,0.0,-0.013158351182937622,0.0655372142791748,0.3258552551269531,0.0,0.0,0.0,0.0,0.0,0.0,0.0,0.0,0.0
1606827828144453383,1812514,1606827828135911121,imu_link,0.08069419860839844,0.014278726652264595,0.22499971091747284,0.970906674861908,0.0,0.0,0.0,0.0,0.0,0.0,0.0,0.0,0.0,26.054636001586914,-0.4919314980506897,9.388298988342285,0.0,0.0,0.0,0.0,0.0,0.0,0.0,0.0,0.0,-0.013158351182937622,0.0655372142791748,0.3258552551269531,0.0,0.0,0.0,0.0,0.0,0.0,0.0,0.0,0.0
1606827828156067076,1812515,1606827828147658266,imu_link,0.0806940495967865,0.014276345260441303,0.22500079870224,0.9709064364433289,0.0,0.0,0.0,0.0,0.0,0.0,0.0,0.0,0.0,26.05474090576172,-0.4922029972076416,9.38822078704834,0.0,0.0,0.0,0.0,0.0,0.0,0.0,0.0,0.0,-0.013089297339320183,0.06919056177139282,0.32982584834098816,0.0,0.0,0.0,0.0,0.0,0.0,0.0,0.0,0.0
1606827828156088386,1812516,1606827828147796160,imu_link,0.0806940495967865,0.014276345260441303,0.22500079870224,0.9709064364433289,0.0,0.0,0.0,0.0,0.0,0.0,0.0,0.0,0.0,26.05474090576172,-0.4922029972076416,9.38822078704834,0.0,0.0,0.0,0.0,0.0,0.0,0.0,0.0,0.0,-0.013089297339320183,0.06919056177139282,0.32982584834098816,0.0,0.0,0.0,0.0,0.0,0.0,0.0,0.0,0.0
1606827828156109652,1812517,1606827828147971675,imu_link,0.0806923657655716,0.014272406697273254,0.22499996423721313,0.9709068536758423,0.0,0.0,0.0,0.0,0.0,0.0,0.0,0.0,0.0,26.05460548400879,-0.4925895929336548,9.387929916381836,0.0,0.0,0.0,0.0,0.0,0.0,0.0,0.0,0.0,0.0028282315470278263,0.06394389271736145,0.33724984526634216,0.0,0.0,0.0,0.0,0.0,0.0,0.0,0.0,0.0
1606827828156126691,1812518,1606827828148048156,imu_link,0.0806923657655716,0.014272406697273254,0.22499996423721313,0.9709068536758423,0.0,0.0,0.0,0.0,0.0,0.0,0.0,0.0,0.0,26.05460548400879,-0.4925895929336548,9.387929916381836,0.0,0.0,0.0,0.0,0.0,0.0,0.0,0.0,0.0,0.0028282315470278263,0.06394389271736145,0.33724984526634216,0.0,0.0,0.0,0.0,0.0,0.0,0.0,0.0,0.0
1606827828156139304,1812519,1606827828148146734,imu_link,0.08069228380918503,0.014274448156356812,0.22500187158584595,0.9709063768386841,0.0,0.0,0.0,0.0,0.0,0.0,0.0,0.0,0.0,26.05484962463379,-0.4923788011074066,9.387972831726074,0.0,0.0,0.0,0.0,0.0,0.0,0.0,0.0,0.0,0.0037184625398367643,0.056218698620796204,0.3452182412147522,0.0,0.0,0.0,0.0,0.0,0.0,0.0,0.0,0.0
1606827828156593804,1812520,1606827828148253410,imu_link,0.08069228380918503,0.014274448156356812,0.22500187158584595,0.9709063768386841,0.0,0.0,0.0,0.0,0.0,0.0,0.0,0.0,0.0,26.05484962463379,-0.4923788011074066,9.387972831726074,0.0,0.0,0.0,0.0,0.0,0.0,0.0,0.0,0.0,0.0037184625398367643,0.056218698620796204,0.3452182412147522,0.0,0.0,0.0,0.0,0.0,0.0,0.0,0.0,0.0
1606827828156612431,1812521,1606827828148336547,imu_link,0.08069057762622833,0.014275209978222847,0.22499607503414154,0.9709078669548035,0.0,0.0,0.0,0.0,0.0,0.0,0.0,0.0,0.0,26.05417823791504,-0.4921938180923462,9.38780403137207,0.0,0.0,0.0,0.0,0.0,0.0,0.0,0.0,0.0,0.0051040686666965485,0.05884760245680809,0.3267395496368408,0.0,0.0,0.0,0.0,0.0,0.0,0.0,0.0,0.0
1606827828156618084,1812522,1606827828148414572,imu_link,0.08069057762622833,0.014275209978222847,0.22499607503414154,0.9709078669548035,0.0,0.0,0.0,0.0,0.0,0.0,0.0,0.0,0.0,26.05417823791504,-0.4921938180923462,9.38780403137207,0.0,0.0,0.0,0.0,0.0,0.0,0.0,0.0,0.0,0.0051040686666965485,0.05884760245680809,0.3267395496368408,0.0,0.0,0.0,0.0,0.0,0.0,0.0,0.0,0.0
1606827828156636214,1812523,1606827828148534990,imu_link,0.0806909129023552,0.014272747561335564,0.22499649226665497,0.9709078073501587,0.0,0.0,0.0,0.0,0.0,0.0,0.0,0.0,0.0,26.054203033447266,-0.4924805164337158,9.387777328491211,0.0,0.0,0.0,0.0,0.0,0.0,0.0,0.0,0.0,0.0007013180293142796,0.0543869212269783,0.3177231550216675,0.0,0.0,0.0,0.0,0.0,0.0,0.0,0.0,0.0
1606827828157329773,1812524,1606827828148624191,imu_link,0.0806909129023552,0.014272747561335564,0.22499649226665497,0.9709078073501587,0.0,0.0,0.0,0.0,0.0,0.0,0.0,0.0,0.0,26.054203033447266,-0.4924805164337158,9.387777328491211,0.0,0.0,0.0,0.0,0.0,0.0,0.0,0.0,0.0,0.0007013180293142796,0.0543869212269783,0.3177231550216675,0.0,0.0,0.0,0.0,0.0,0.0,0.0,0.0,0.0
1606827828157357763,1812525,1606827828148717732,imu_link,0.08069080114364624,0.014269707724452019,0.22499027848243713,0.9709092974662781,0.0,0.0,0.0,0.0,0.0,0.0,0.0,0.0,0.0,26.053443908691406,-0.49275586009025574,9.387689590454102,0.0,0.0,0.0,0.0,0.0,0.0,0.0,0.0,0.0,0.005667428486049175,0.055724333971738815,0.33072227239608765,0.0,0.0,0.0,0.0,0.0,0.0,0.0,0.0,0.0
1606827828181127608,1812526,1606827828161246923,imu_link,0.08069080114364624,0.014269707724452019,0.22499027848243713,0.9709092974662781,0.0,0.0,0.0,0.0,0.0,0.0,0.0,0.0,0.0,26.053443908691406,-0.49275586009025574,9.387689590454102,0.0,0.0,0.0,0.0,0.0,0.0,0.0,0.0,0.0,0.005667428486049175,0.055724333971738815,0.33072227239608765,0.0,0.0,0.0,0.0,0.0,0.0,0.0,0.0,0.0
1606827828181149213,1812527,1606827828161368460,imu_link,0.08069290220737457,0.014267868362367153,0.22499006986618042,0.9709091782569885,0.0,0.0,0.0,0.0,0.0,0.0,0.0,0.0,0.0,26.053403854370117,-0.49301305413246155,9.387877464294434,0.0,0.0,0.0,0.0,0.0,0.0,0.0,0.0,0.0,-0.00644358154386282,0.0626152977347374,0.31675955653190613,0.0,0.0,0.0,0.0,0.0,0.0,0.0,0.0,0.0
1606827828181156845,1812528,1606827828161456504,imu_link,0.08069290220737457,0.014267868362367153,0.22499006986618042,0.9709091782569885,0.0,0.0,0.0,0.0,0.0,0.0,0.0,0.0,0.0,26.053403854370117,-0.49301305413246155,9.387877464294434,0.0,0.0,0.0,0.0,0.0,0.0,0.0,0.0,0.0,-0.00644358154386282,0.0626152977347374,0.31675955653190613,0.0,0.0,0.0,0.0,0.0,0.0,0.0,0.0,0.0
1606827828181201284,1812529,1606827828161560908,imu_link,0.08069273084402084,0.014266455546021461,0.22499114274978638,0.9709089398384094,0.0,0.0,0.0,0.0,0.0,0.0,0.0,0.0,0.0,26.053518295288086,-0.493176132440567,9.387823104858398,0.0,0.0,0.0,0.0,0.0,0.0,0.0,0.0,0.0,-0.007258501835167408,0.06503673642873764,0.3003826439380646,0.0,0.0,0.0,0.0,0.0,0.0,0.0,0.0,0.0
1606827828181220839,1812530,1606827828161671153,imu_link,0.08069273084402084,0.014266455546021461,0.22499114274978638,0.9709089398384094,0.0,0.0,0.0,0.0,0.0,0.0,0.0,0.0,0.0,26.053518295288086,-0.493176132440567,9.387823104858398,0.0,0.0,0.0,0.0,0.0,0.0,0.0,0.0,0.0,-0.007258501835167408,0.06503673642873764,0.3003826439380646,0.0,0.0,0.0,0.0,0.0,0.0,0.0,0.0,0.0
1606827828182790767,1812531,1606827828161789218,imu_link,0.08069125562906265,0.014265788719058037,0.22499096393585205,0.9709091186523438,0.0,0.0,0.0,0.0,0.0,0.0,0.0,0.0,0.0,26.053489685058594,-0.4932103753089905,9.387639999389648,0.0,0.0,0.0,0.0,0.0,0.0,0.0,0.0,0.0,0.009091980755329132,0.039165299385786057,0.3138010799884796,0.0,0.0,0.0,0.0,0.0,0.0,0.0,0.0,0.0
1606827828182817324,1812532,1606827828161887188,imu_link,0.08069125562906265,0.014265788719058037,0.22499096393585205,0.9709091186523438,0.0,0.0,0.0,0.0,0.0,0.0,0.0,0.0,0.0,26.053489685058594,-0.4932103753089905,9.387639999389648,0.0,0.0,0.0,0.0,0.0,0.0,0.0,0.0,0.0,0.009091980755329132,0.039165299385786057,0.3138010799884796,0.0,0.0,0.0,0.0,0.0,0.0,0.0,0.0,0.0
1606827828182826819,1812533,1606827828161992307,imu_link,0.08069299161434174,0.014267005026340485,0.22499141097068787,0.9709088206291199,0.0,0.0,0.0,0.0,0.0,0.0,0.0,0.0,0.0,26.05355453491211,-0.4931243658065796,9.387866973876953,0.0,0.0,0.0,0.0,0.0,0.0,0.0,0.0,0.0,0.011606902815401554,0.04332510381937027,0.31823694705963135,0.0,0.0,0.0,0.0,0.0,0.0,0.0,0.0,0.0
1606827828182881636,1812534,1606827828162096588,imu_link,0.08069299161434174,0.014267005026340485,0.22499141097068787,0.9709088206291199,0.0,0.0,0.0,0.0,0.0,0.0,0.0,0.0,0.0,26.05355453491211,-0.4931243658065796,9.387866973876953,0.0,0.0,0.0,0.0,0.0,0.0,0.0,0.0,0.0,0.011606902815401554,0.04332510381937027,0.31823694705963135,0.0,0.0,0.0,0.0,0.0,0.0,0.0,0.0,0.0
1606827828182889222,1812535,1606827828162197250,imu_link,0.08069364726543427,0.014265665784478188,0.22499285638332367,0.9709084630012512,0.0,0.0,0.0,0.0,0.0,0.0,0.0,0.0,0.0,26.053709030151367,-0.4933043122291565,9.387903213500977,0.0,0.0,0.0,0.0,0.0,0.0,0.0,0.0,0.0,-0.01435867976397276,0.064890556037426,0.3260881006717682,0.0,0.0,0.0,0.0,0.0,0.0,0.0,0.0,0.0
1606827828184043002,1812536,1606827828175124264,imu_link,0.08069364726543427,0.014265665784478188,0.22499285638332367,0.9709084630012512,0.0,0.0,0.0,0.0,0.0,0.0,0.0,0.0,0.0,26.053709030151367,-0.4933043122291565,9.387903213500977,0.0,0.0,0.0,0.0,0.0,0.0,0.0,0.0,0.0,-0.01435867976397276,0.064890556037426,0.3260881006717682,0.0,0.0,0.0,0.0,0.0,0.0,0.0,0.0,0.0
1606827828184063411,1812537,1606827828175446969,imu_link,0.08069191873073578,0.014263450168073177,0.2249961644411087,0.9709079265594482,0.0,0.0,0.0,0.0,0.0,0.0,0.0,0.0,0.0,26.0540771484375,-0.4935376048088074,9.387650489807129,0.0,0.0,0.0,0.0,0.0,0.0,0.0,0.0,0.0,-0.010320019908249378,0.052242957055568695,0.33291152119636536,0.0,0.0,0.0,0.0,0.0,0.0,0.0,0.0,0.0
1606827828184072261,1812538,1606827828175598977,imu_link,0.08069191873073578,0.014263450168073177,0.2249961644411087,0.9709079265594482,0.0,0.0,0.0,0.0,0.0,0.0,0.0,0.0,0.0,26.0540771484375,-0.4935376048088074,9.387650489807129,0.0,0.0,0.0,0.0,0.0,0.0,0.0,0.0,0.0,-0.010320019908249378,0.052242957055568695,0.33291152119636536,0.0,0.0,0.0,0.0,0.0,0.0,0.0,0.0,0.0
1606827828184108142,1812539,1606827828175737893,imu_link,0.08069132268428802,0.01426137238740921,0.22499576210975647,0.9709080457687378,0.0,0.0,0.0,0.0,0.0,0.0,0.0,0.0,0.0,26.05401039123535,-0.49374958872795105,9.387531280517578,0.0,0.0,0.0,0.0,0.0,0.0,0.0,0.0,0.0,0.0038306857459247112,0.060356516391038895,0.32419663667678833,0.0,0.0,0.0,0.0,0.0,0.0,0.0,0.0,0.0
1606827828184125831,1812540,1606827828175933736,imu_link,0.08069132268428802,0.01426137238740921,0.22499576210975647,0.9709080457687378,0.0,0.0,0.0,0.0,0.0,0.0,0.0,0.0,0.0,26.05401039123535,-0.49374958872795105,9.387531280517578,0.0,0.0,0.0,0.0,0.0,0.0,0.0,0.0,0.0,0.0038306857459247112,0.060356516391038895,0.32419663667678833,0.0,0.0,0.0,0.0,0.0,0.0,0.0,0.0,0.0
1606827828184576340,1812541,1606827828176073062,imu_link,0.08068908005952835,0.01426116656512022,0.22500228881835938,0.9709067344665527,0.0,0.0,0.0,0.0,0.0,0.0,0.0,0.0,0.0,26.05477523803711,-0.49377724528312683,9.3872709274292,0.0,0.0,0.0,0.0,0.0,0.0,0.0,0.0,0.0,-0.0050272392109036446,0.06484078615903854,0.3467092514038086,0.0,0.0,0.0,0.0,0.0,0.0,0.0,0.0,0.0
1606827828184611936,1812542,1606827828176358646,imu_link,0.08068908005952835,0.01426116656512022,0.22500228881835938,0.9709067344665527,0.0,0.0,0.0,0.0,0.0,0.0,0.0,0.0,0.0,26.05477523803711,-0.49377724528312683,9.3872709274292,0.0,0.0,0.0,0.0,0.0,0.0,0.0,0.0,0.0,-0.0050272392109036446,0.06484078615903854,0.3467092514038086,0.0,0.0,0.0,0.0,0.0,0.0,0.0,0.0,0.0
1606827828184627804,1812543,1606827828176531048,imu_link,0.08068862557411194,0.014260726049542427,0.22500254213809967,0.9709067344665527,0.0,0.0,0.0,0.0,0.0,0.0,0.0,0.0,0.0,26.054800033569336,-0.4938168227672577,9.38720703125,0.0,0.0,0.0,0.0,0.0,0.0,0.0,0.0,0.0,0.001311733154579997,0.04403901845216751,0.35222911834716797,0.0,0.0,0.0,0.0,0.0,0.0,0.0,0.0,0.0
1606827828184644260,1812544,1606827828176669551,imu_link,0.08068862557411194,0.014260726049542427,0.22500254213809967,0.9709067344665527,0.0,0.0,0.0,0.0,0.0,0.0,0.0,0.0,0.0,26.054800033569336,-0.4938168227672577,9.38720703125,0.0,0.0,0.0,0.0,0.0,0.0,0.0,0.0,0.0,0.001311733154579997,0.04403901845216751,0.35222911834716797,0.0,0.0,0.0,0.0,0.0,0.0,0.0,0.0,0.0
1606827828185636396,1812545,1606827828176802867,imu_link,0.08069149404764175,0.01426136214286089,0.2250022441148758,0.9709065556526184,0.0,0.0,0.0,0.0,0.0,0.0,0.0,0.0,0.0,26.05476951599121,-0.4938174784183502,9.387545585632324,0.0,0.0,0.0,0.0,0.0,0.0,0.0,0.0,0.0,0.0033920942805707455,0.042320139706134796,0.33202916383743286,0.0,0.0,0.0,0.0,0.0,0.0,0.0,0.0,0.0
1606827828185653890,1812546,1606827828177010177,imu_link,0.08069149404764175,0.01426136214286089,0.2250022441148758,0.9709065556526184,0.0,0.0,0.0,0.0,0.0,0.0,0.0,0.0,0.0,26.05476951599121,-0.4938174784183502,9.387545585632324,0.0,0.0,0.0,0.0,0.0,0.0,0.0,0.0,0.0,0.0033920942805707455,0.042320139706134796,0.33202916383743286,0.0,0.0,0.0,0.0,0.0,0.0,0.0,0.0,0.0
1606827828196142929,1812547,1606827828188479609,imu_link,0.08069294691085815,0.014260640367865562,0.22500300407409668,0.9709062576293945,0.0,0.0,0.0,0.0,0.0,0.0,0.0,0.0,0.0,26.054851531982422,-0.49394288659095764,9.387689590454102,0.0,0.0,0.0,0.0,0.0,0.0,0.0,0.0,0.0,-0.0014440796803683043,0.05716455355286598,0.3136896789073944,0.0,0.0,0.0,0.0,0.0,0.0,0.0,0.0,0.0
1606827828200457713,1812548,1606827828188624966,imu_link,0.08069294691085815,0.014260640367865562,0.22500300407409668,0.9709062576293945,0.0,0.0,0.0,0.0,0.0,0.0,0.0,0.0,0.0,26.054851531982422,-0.49394288659095764,9.387689590454102,0.0,0.0,0.0,0.0,0.0,0.0,0.0,0.0,0.0,-0.0014440796803683043,0.05716455355286598,0.3136896789073944,0.0,0.0,0.0,0.0,0.0,0.0,0.0,0.0,0.0
1606827828200473466,1812549,1606827828188738184,imu_link,0.08069488406181335,0.014260340481996536,0.2250015139579773,0.9709064364433289,0.0,0.0,0.0,0.0,0.0,0.0,0.0,0.0,0.0,26.05467414855957,-0.49401190876960754,9.387899398803711,0.0,0.0,0.0,0.0,0.0,0.0,0.0,0.0,0.0,-0.013981818221509457,0.03767847269773483,0.3237169086933136,0.0,0.0,0.0,0.0,0.0,0.0,0.0,0.0,0.0
1606827828200488180,1812550,1606827828188903372,imu_link,0.08069488406181335,0.014260340481996536,0.2250015139579773,0.9709064364433289,0.0,0.0,0.0,0.0,0.0,0.0,0.0,0.0,0.0,26.05467414855957,-0.49401190876960754,9.387899398803711,0.0,0.0,0.0,0.0,0.0,0.0,0.0,0.0,0.0,-0.013981818221509457,0.03767847269773483,0.3237169086933136,0.0,0.0,0.0,0.0,0.0,0.0,0.0,0.0,0.0
1606827828200495142,1812551,1606827828189105409,imu_link,0.08069584518671036,0.01426087785512209,0.225001260638237,0.9709064364433289,0.0,0.0,0.0,0.0,0.0,0.0,0.0,0.0,0.0,26.05464744567871,-0.49397456645965576,9.388021469116211,0.0,0.0,0.0,0.0,0.0,0.0,0.0,0.0,0.0,0.0019355944823473692,0.0173686183989048,0.3433699309825897,0.0,0.0,0.0,0.0,0.0,0.0,0.0,0.0,0.0
1606827828200505575,1812552,1606827828189229645,imu_link,0.08069584518671036,0.01426087785512209,0.225001260638237,0.9709064364433289,0.0,0.0,0.0,0.0,0.0,0.0,0.0,0.0,0.0,26.05464744567871,-0.49397456645965576,9.388021469116211,0.0,0.0,0.0,0.0,0.0,0.0,0.0,0.0,0.0,0.0019355944823473692,0.0173686183989048,0.3433699309825897,0.0,0.0,0.0,0.0,0.0,0.0,0.0,0.0,0.0
1606827828200538933,1812553,1606827828189373945,imu_link,0.08069898933172226,0.014262624084949493,0.22500653564929962,0.9709049463272095,0.0,0.0,0.0,0.0,0.0,0.0,0.0,0.0,0.0,26.055282592773438,-0.49391278624534607,9.388416290283203,0.0,0.0,0.0,0.0,0.0,0.0,0.0,0.0,0.0,0.009397009387612343,0.044998474419116974,0.3127393424510956,0.0,0.0,0.0,0.0,0.0,0.0,0.0,0.0,0.0
1606827828202652751,1812554,1606827828189583758,imu_link,0.08069898933172226,0.014262624084949493,0.22500653564929962,0.9709049463272095,0.0,0.0,0.0,0.0,0.0,0.0,0.0,0.0,0.0,26.055282592773438,-0.49391278624534607,9.388416290283203,0.0,0.0,0.0,0.0,0.0,0.0,0.0,0.0,0.0,0.009397009387612343,0.044998474419116974,0.3127393424510956,0.0,0.0,0.0,0.0,0.0,0.0,0.0,0.0,0.0
1606827828202673968,1812555,1606827828189699672,imu_link,0.08069881051778793,0.014262222684919834,0.22500647604465485,0.9709049463272095,0.0,0.0,0.0,0.0,0.0,0.0,0.0,0.0,0.0,26.05527114868164,-0.49395203590393066,9.388386726379395,0.0,0.0,0.0,0.0,0.0,0.0,0.0,0.0,0.0,-0.00047030718997120857,0.06463587284088135,0.29198744893074036,0.0,0.0,0.0,0.0,0.0,0.0,0.0,0.0,0.0
1606827828202691674,1812556,1606827828189849225,imu_link,0.08069881051778793,0.014262222684919834,0.22500647604465485,0.9709049463272095,0.0,0.0,0.0,0.0,0.0,0.0,0.0,0.0,0.0,26.05527114868164,-0.49395203590393066,9.388386726379395,0.0,0.0,0.0,0.0,0.0,0.0,0.0,0.0,0.0,-0.00047030718997120857,0.06463587284088135,0.29198744893074036,0.0,0.0,0.0,0.0,0.0,0.0,0.0,0.0,0.0
1606827828202696977,1812557,1606827828189962183,imu_link,0.08069681376218796,0.014260237105190754,0.22501219809055328,0.9709038138389587,0.0,0.0,0.0,0.0,0.0,0.0,0.0,0.0,0.0,26.055925369262695,-0.4941762685775757,9.38810920715332,0.0,0.0,0.0,0.0,0.0,0.0,0.0,0.0,0.0,0.0023635821416974068,0.053898826241493225,0.31053265929222107,0.0,0.0,0.0,0.0,0.0,0.0,0.0,0.0,0.0
1606827828209896022,1812558,1606827828202278864,imu_link,0.08069681376218796,0.014260237105190754,0.22501219809055328,0.9709038138389587,0.0,0.0,0.0,0.0,0.0,0.0,0.0,0.0,0.0,26.055925369262695,-0.4941762685775757,9.38810920715332,0.0,0.0,0.0,0.0,0.0,0.0,0.0,0.0,0.0,0.0023635821416974068,0.053898826241493225,0.31053265929222107,0.0,0.0,0.0,0.0,0.0,0.0,0.0,0.0,0.0
1606827828211114845,1812559,1606827828202448483,imu_link,0.0806964635848999,0.014261233620345592,0.22501161694526672,0.9709039926528931,0.0,0.0,0.0,0.0,0.0,0.0,0.0,0.0,0.0,26.055864334106445,-0.49405086040496826,9.388094902038574,0.0,0.0,0.0,0.0,0.0,0.0,0.0,0.0,0.0,0.012639576569199562,0.05732299014925957,0.3205186724662781,0.0,0.0,0.0,0.0,0.0,0.0,0.0,0.0,0.0
1606827828211136903,1812560,1606827828202593938,imu_link,0.0806964635848999,0.014261233620345592,0.22501161694526672,0.9709039926528931,0.0,0.0,0.0,0.0,0.0,0.0,0.0,0.0,0.0,26.055864334106445,-0.49405086040496826,9.388094902038574,0.0,0.0,0.0,0.0,0.0,0.0,0.0,0.0,0.0,0.012639576569199562,0.05732299014925957,0.3205186724662781,0.0,0.0,0.0,0.0,0.0,0.0,0.0,0.0,0.0
1606827828211149767,1812561,1606827828202739497,imu_link,0.08069480210542679,0.014262557961046696,0.2250029444694519,0.9709060788154602,0.0,0.0,0.0,0.0,0.0,0.0,0.0,0.0,0.0,26.05486297607422,-0.49377691745758057,9.387947082519531,0.0,0.0,0.0,0.0,0.0,0.0,0.0,0.0,0.0,0.021009493619203568,0.07341213524341583,0.30747997760772705,0.0,0.0,0.0,0.0,0.0,0.0,0.0,0.0,0.0
1606827828211173595,1812562,1606827828202989166,imu_link,0.08069480210542679,0.014262557961046696,0.2250029444694519,0.9709060788154602,0.0,0.0,0.0,0.0,0.0,0.0,0.0,0.0,0.0,26.05486297607422,-0.49377691745758057,9.387947082519531,0.0,0.0,0.0,0.0,0.0,0.0,0.0,0.0,0.0,0.021009493619203568,0.07341213524341583,0.30747997760772705,0.0,0.0,0.0,0.0,0.0,0.0,0.0,0.0,0.0
1606827828241719787,1812563,1606827828203180585,imu_link,0.08069426566362381,0.014261715114116669,0.22500361502170563,0.9709060192108154,0.0,0.0,0.0,0.0,0.0,0.0,0.0,0.0,0.0,26.054933547973633,-0.49386337399482727,9.387866020202637,0.0,0.0,0.0,0.0,0.0,0.0,0.0,0.0,0.0,0.030962729826569557,0.06462133675813675,0.3060798943042755,0.0,0.0,0.0,0.0,0.0,0.0,0.0,0.0,0.0
1606827828241745639,1812564,1606827828203523223,imu_link,0.08069426566362381,0.014261715114116669,0.22500361502170563,0.9709060192108154,0.0,0.0,0.0,0.0,0.0,0.0,0.0,0.0,0.0,26.054933547973633,-0.49386337399482727,9.387866020202637,0.0,0.0,0.0,0.0,0.0,0.0,0.0,0.0,0.0,0.030962729826569557,0.06462133675813675,0.3060798943042755,0.0,0.0,0.0,0.0,0.0,0.0,0.0,0.0,0.0
1606827828241771343,1812565,1606827828203634650,imu_link,0.08068984746932983,0.014264756813645363,0.22499631345272064,0.9709080457687378,0.0,0.0,0.0,0.0,0.0,0.0,0.0,0.0,0.0,26.054107666015625,-0.4933399558067322,9.387452125549316,0.0,0.0,0.0,0.0,0.0,0.0,0.0,0.0,0.0,0.009445968084037304,0.05690181627869606,0.3241243362426758,0.0,0.0,0.0,0.0,0.0,0.0,0.0,0.0,0.0
1606827828241778650,1812566,1606827828203738373,imu_link,0.08068984746932983,0.014264756813645363,0.22499631345272064,0.9709080457687378,0.0,0.0,0.0,0.0,0.0,0.0,0.0,0.0,0.0,26.054107666015625,-0.4933399558067322,9.387452125549316,0.0,0.0,0.0,0.0,0.0,0.0,0.0,0.0,0.0,0.009445968084037304,0.05690181627869606,0.3241243362426758,0.0,0.0,0.0,0.0,0.0,0.0,0.0,0.0,0.0
1606827828241794201,1812567,1606827828203839707,imu_link,0.0806896984577179,0.014265366829931736,0.2249974012374878,0.9709077477455139,0.0,0.0,0.0,0.0,0.0,0.0,0.0,0.0,0.0,26.054241180419922,-0.4932788908481598,9.387451171875,0.0,0.0,0.0,0.0,0.0,0.0,0.0,0.0,0.0,-0.017378399148583412,0.05710095912218094,0.3454468846321106,0.0,0.0,0.0,0.0,0.0,0.0,0.0,0.0,0.0
1606827828241815884,1812568,1606827828203937352,imu_link,0.0806896984577179,0.014265366829931736,0.2249974012374878,0.9709077477455139,0.0,0.0,0.0,0.0,0.0,0.0,0.0,0.0,0.0,26.054241180419922,-0.4932788908481598,9.387451171875,0.0,0.0,0.0,0.0,0.0,0.0,0.0,0.0,0.0,-0.017378399148583412,0.05710095912218094,0.3454468846321106,0.0,0.0,0.0,0.0,0.0,0.0,0.0,0.0,0.0
1606827828242412822,1812569,1606827828215244106,imu_link,0.08069109916687012,0.01426395121961832,0.22499749064445496,0.9709076285362244,0.0,0.0,0.0,0.0,0.0,0.0,0.0,0.0,0.0,26.05423927307129,-0.4934735596179962,9.387571334838867,0.0,0.0,0.0,0.0,0.0,0.0,0.0,0.0,0.0,-0.00689217634499073,0.051591191440820694,0.3351227343082428,0.0,0.0,0.0,0.0,0.0,0.0,0.0,0.0,0.0
1606827828242473887,1812570,1606827828215444769,imu_link,0.08069109916687012,0.01426395121961832,0.22499749064445496,0.9709076285362244,0.0,0.0,0.0,0.0,0.0,0.0,0.0,0.0,0.0,26.05423927307129,-0.4934735596179962,9.387571334838867,0.0,0.0,0.0,0.0,0.0,0.0,0.0,0.0,0.0,-0.00689217634499073,0.051591191440820694,0.3351227343082428,0.0,0.0,0.0,0.0,0.0,0.0,0.0,0.0,0.0
1606827828242501273,1812571,1606827828215599870,imu_link,0.08069153130054474,0.014264496974647045,0.22499710321426392,0.9709076881408691,0.0,0.0,0.0,0.0,0.0,0.0,0.0,0.0,0.0,26.054195404052734,-0.49342021346092224,9.38763427734375,0.0,0.0,0.0,0.0,0.0,0.0,0.0,0.0,0.0,0.008238757029175758,0.046841830015182495,0.325633704662323,0.0,0.0,0.0,0.0,0.0,0.0,0.0,0.0,0.0
1606827828242538982,1812572,1606827828215741682,imu_link,0.08069153130054474,0.014264496974647045,0.22499710321426392,0.9709076881408691,0.0,0.0,0.0,0.0,0.0,0.0,0.0,0.0,0.0,26.054195404052734,-0.49342021346092224,9.38763427734375,0.0,0.0,0.0,0.0,0.0,0.0,0.0,0.0,0.0,0.008238757029175758,0.046841830015182495,0.325633704662323,0.0,0.0,0.0,0.0,0.0,0.0,0.0,0.0,0.0
1606827828242571966,1812573,1606827828215880246,imu_link,0.08069297671318054,0.014262700453400612,0.22499756515026093,0.9709075093269348,0.0,0.0,0.0,0.0,0.0,0.0,0.0,0.0,0.0,26.05423355102539,-0.493662029504776,9.387748718261719,0.0,0.0,0.0,0.0,0.0,0.0,0.0,0.0,0.0,0.011522842571139336,0.035895779728889465,0.340586394071579,0.0,0.0,0.0,0.0,0.0,0.0,0.0,0.0,0.0
1606827828242597454,1812574,1606827828216035159,imu_link,0.08069297671318054,0.014262700453400612,0.22499756515026093,0.9709075093269348,0.0,0.0,0.0,0.0,0.0,0.0,0.0,0.0,0.0,26.05423355102539,-0.493662029504776,9.387748718261719,0.0,0.0,0.0,0.0,0.0,0.0,0.0,0.0,0.0,0.011522842571139336,0.035895779728889465,0.340586394071579,0.0,0.0,0.0,0.0,0.0,0.0,0.0,0.0,0.0
1606827828242614717,1812575,1606827828216172708,imu_link,0.08069498836994171,0.014262516051530838,0.22499825060367584,0.9709071516990662,0.0,0.0,0.0,0.0,0.0,0.0,0.0,0.0,0.0,26.054311752319336,-0.49374115467071533,9.387969017028809,0.0,0.0,0.0,0.0,0.0,0.0,0.0,0.0,0.0,0.007769531570374966,0.03486737236380577,0.3218311667442322,0.0,0.0,0.0,0.0,0.0,0.0,0.0,0.0,0.0
1606827828242627206,1812576,1606827828216309164,imu_link,0.08069498836994171,0.014262516051530838,0.22499825060367584,0.9709071516990662,0.0,0.0,0.0,0.0,0.0,0.0,0.0,0.0,0.0,26.054311752319336,-0.49374115467071533,9.387969017028809,0.0,0.0,0.0,0.0,0.0,0.0,0.0,0.0,0.0,0.007769531570374966,0.03486737236380577,0.3218311667442322,0.0,0.0,0.0,0.0,0.0,0.0,0.0,0.0,0.0
1606827828242654170,1812577,1606827828216445979,imu_link,0.0806964859366417,0.014264384284615517,0.22500059008598328,0.9709064960479736,0.0,0.0,0.0,0.0,0.0,0.0,0.0,0.0,0.0,26.054601669311523,-0.49359479546546936,9.388184547424316,0.0,0.0,0.0,0.0,0.0,0.0,0.0,0.0,0.0,0.010404922999441624,0.050436533987522125,0.29196760058403015,0.0,0.0,0.0,0.0,0.0,0.0,0.0,0.0,0.0
1606827828242670834,1812578,1606827828216578462,imu_link,0.0806964859366417,0.014264384284615517,0.22500059008598328,0.9709064960479736,0.0,0.0,0.0,0.0,0.0,0.0,0.0,0.0,0.0,26.054601669311523,-0.49359479546546936,9.388184547424316,0.0,0.0,0.0,0.0,0.0,0.0,0.0,0.0,0.0,0.010404922999441624,0.050436533987522125,0.29196760058403015,0.0,0.0,0.0,0.0,0.0,0.0,0.0,0.0,0.0
1606827828242690436,1812579,1606827828228706617,imu_link,0.0806998610496521,0.014265247620642185,0.22499778866767883,0.9709068536758423,0.0,0.0,0.0,0.0,0.0,0.0,0.0,0.0,0.0,26.05428123474121,-0.4935591518878937,9.388586044311523,0.0,0.0,0.0,0.0,0.0,0.0,0.0,0.0,0.0,0.011119906790554523,0.06459223479032516,0.29510560631752014,0.0,0.0,0.0,0.0,0.0,0.0,0.0,0.0,0.0
1606827828242710330,1812580,1606827828228873513,imu_link,0.0806998610496521,0.014265247620642185,0.22499778866767883,0.9709068536758423,0.0,0.0,0.0,0.0,0.0,0.0,0.0,0.0,0.0,26.05428123474121,-0.4935591518878937,9.388586044311523,0.0,0.0,0.0,0.0,0.0,0.0,0.0,0.0,0.0,0.011119906790554523,0.06459223479032516,0.29510560631752014,0.0,0.0,0.0,0.0,0.0,0.0,0.0,0.0,0.0
1606827828242733262,1812581,1606827828229021664,imu_link,0.08069633692502975,0.014267534017562866,0.22499969601631165,0.970906674861908,0.0,0.0,0.0,0.0,0.0,0.0,0.0,0.0,0.0,26.054527282714844,-0.49323195219039917,9.388250350952148,0.0,0.0,0.0,0.0,0.0,0.0,0.0,0.0,0.0,0.0006578653119504452,0.052556607872247696,0.31777387857437134,0.0,0.0,0.0,0.0,0.0,0.0,0.0,0.0,0.0
1606827828242764707,1812582,1606827828229167079,imu_link,0.08069633692502975,0.014267534017562866,0.22499969601631165,0.970906674861908,0.0,0.0,0.0,0.0,0.0,0.0,0.0,0.0,0.0,26.054527282714844,-0.49323195219039917,9.388250350952148,0.0,0.0,0.0,0.0,0.0,0.0,0.0,0.0,0.0,0.0006578653119504452,0.052556607872247696,0.31777387857437134,0.0,0.0,0.0,0.0,0.0,0.0,0.0,0.0,0.0
1606827828242777053,1812583,1606827828229318433,imu_link,0.08069594204425812,0.014268068596720695,0.22500412166118622,0.9709056615829468,0.0,0.0,0.0,0.0,0.0,0.0,0.0,0.0,0.0,26.055049896240234,-0.49320483207702637,9.388216018676758,0.0,0.0,0.0,0.0,0.0,0.0,0.0,0.0,0.0,-0.009775432758033276,0.03036348707973957,0.32415392994880676,0.0,0.0,0.0,0.0,0.0,0.0,0.0,0.0,0.0
1606827828242788224,1812584,1606827828229459417,imu_link,0.08069594204425812,0.014268068596720695,0.22500412166118622,0.9709056615829468,0.0,0.0,0.0,0.0,0.0,0.0,0.0,0.0,0.0,26.055049896240234,-0.49320483207702637,9.388216018676758,0.0,0.0,0.0,0.0,0.0,0.0,0.0,0.0,0.0,-0.009775432758033276,0.03036348707973957,0.32415392994880676,0.0,0.0,0.0,0.0,0.0,0.0,0.0,0.0,0.0
1606827828242812197,1812585,1606827828229620887,imu_link,0.08069773763418198,0.014267360791563988,0.2250087559223175,0.9709044098854065,0.0,0.0,0.0,0.0,0.0,0.0,0.0,0.0,0.0,26.055587768554688,-0.49337485432624817,9.388397216796875,0.0,0.0,0.0,0.0,0.0,0.0,0.0,0.0,0.0,0.005137850530445576,0.024808555841445923,0.3257378339767456,0.0,0.0,0.0,0.0,0.0,0.0,0.0,0.0,0.0
1606827828249942352,1812586,1606827828229759136,imu_link,0.08069773763418198,0.014267360791563988,0.2250087559223175,0.9709044098854065,0.0,0.0,0.0,0.0,0.0,0.0,0.0,0.0,0.0,26.055587768554688,-0.49337485432624817,9.388397216796875,0.0,0.0,0.0,0.0,0.0,0.0,0.0,0.0,0.0,0.005137850530445576,0.024808555841445923,0.3257378339767456,0.0,0.0,0.0,0.0,0.0,0.0,0.0,0.0,0.0
1606827828249974696,1812587,1606827828229894077,imu_link,0.08069632202386856,0.014267339371144772,0.22500891983509064,0.970904529094696,0.0,0.0,0.0,0.0,0.0,0.0,0.0,0.0,0.0,26.055606842041016,-0.49334198236465454,9.388238906860352,0.0,0.0,0.0,0.0,0.0,0.0,0.0,0.0,0.0,0.014211206696927547,0.040546029806137085,0.3187752664089203,0.0,0.0,0.0,0.0,0.0,0.0,0.0,0.0,0.0
1606827828249997780,1812588,1606827828230028459,imu_link,0.08069632202386856,0.014267339371144772,0.22500891983509064,0.970904529094696,0.0,0.0,0.0,0.0,0.0,0.0,0.0,0.0,0.0,26.055606842041016,-0.49334198236465454,9.388238906860352,0.0,0.0,0.0,0.0,0.0,0.0,0.0,0.0,0.0,0.014211206696927547,0.040546029806137085,0.3187752664089203,0.0,0.0,0.0,0.0,0.0,0.0,0.0,0.0,0.0
1606827828250026532,1812589,1606827828230161112,imu_link,0.08069909363985062,0.014268406666815281,0.2250116914510727,0.9709036350250244,0.0,0.0,0.0,0.0,0.0,0.0,0.0,0.0,0.0,26.055940628051758,-0.49332180619239807,9.388575553894043,0.0,0.0,0.0,0.0,0.0,0.0,0.0,0.0,0.0,0.0034156562760472298,0.06398697197437286,0.3173929750919342,0.0,0.0,0.0,0.0,0.0,0.0,0.0,0.0,0.0
1606827828251082352,1812590,1606827828242392279,imu_link,0.08069909363985062,0.014268406666815281,0.2250116914510727,0.9709036350250244,0.0,0.0,0.0,0.0,0.0,0.0,0.0,0.0,0.0,26.055940628051758,-0.49332180619239807,9.388575553894043,0.0,0.0,0.0,0.0,0.0,0.0,0.0,0.0,0.0,0.0034156562760472298,0.06398697197437286,0.3173929750919342,0.0,0.0,0.0,0.0,0.0,0.0,0.0,0.0,0.0
1606827828251141355,1812591,1606827828242654298,imu_link,0.08070054650306702,0.014265715144574642,0.22501257061958313,0.9709033966064453,0.0,0.0,0.0,0.0,0.0,0.0,0.0,0.0,0.0,26.056013107299805,-0.4936671555042267,9.388667106628418,0.0,0.0,0.0,0.0,0.0,0.0,0.0,0.0,0.0,-0.008774572983384132,0.05915531888604164,0.3340645432472229,0.0,0.0,0.0,0.0,0.0,0.0,0.0,0.0,0.0
1606827828251165580,1812592,1606827828242899605,imu_link,0.08070054650306702,0.014265715144574642,0.22501257061958313,0.9709033966064453,0.0,0.0,0.0,0.0,0.0,0.0,0.0,0.0,0.0,26.056013107299805,-0.4936671555042267,9.388667106628418,0.0,0.0,0.0,0.0,0.0,0.0,0.0,0.0,0.0,-0.008774572983384132,0.05915531888604164,0.3340645432472229,0.0,0.0,0.0,0.0,0.0,0.0,0.0,0.0,0.0
1606827828251203651,1812593,1606827828243059263,imu_link,0.08070077747106552,0.014264995232224464,0.22501593828201294,0.9709025621414185,0.0,0.0,0.0,0.0,0.0,0.0,0.0,0.0,0.0,26.05640411376953,-0.4937857687473297,9.388673782348633,0.0,0.0,0.0,0.0,0.0,0.0,0.0,0.0,0.0,-0.013868195936083794,0.055570926517248154,0.3584670126438141,0.0,0.0,0.0,0.0,0.0,0.0,0.0,0.0,0.0
1606827828252109649,1812594,1606827828243254990,imu_link,0.08070077747106552,0.014264995232224464,0.22501593828201294,0.9709025621414185,0.0,0.0,0.0,0.0,0.0,0.0,0.0,0.0,0.0,26.05640411376953,-0.4937857687473297,9.388673782348633,0.0,0.0,0.0,0.0,0.0,0.0,0.0,0.0,0.0,-0.013868195936083794,0.055570926517248154,0.3584670126438141,0.0,0.0,0.0,0.0,0.0,0.0,0.0,0.0,0.0
1606827828252160984,1812595,1606827828243488654,imu_link,0.0807005986571312,0.014264784753322601,0.22501824796199799,0.9709020256996155,0.0,0.0,0.0,0.0,0.0,0.0,0.0,0.0,0.0,26.05667495727539,-0.4938269853591919,9.38864803314209,0.0,0.0,0.0,0.0,0.0,0.0,0.0,0.0,0.0,-0.011744657531380653,0.06244591251015663,0.3458828926086426,0.0,0.0,0.0,0.0,0.0,0.0,0.0,0.0,0.0
1606827828252189600,1812596,1606827828243713398,imu_link,0.0807005986571312,0.014264784753322601,0.22501824796199799,0.9709020256996155,0.0,0.0,0.0,0.0,0.0,0.0,0.0,0.0,0.0,26.05667495727539,-0.4938269853591919,9.38864803314209,0.0,0.0,0.0,0.0,0.0,0.0,0.0,0.0,0.0,-0.011744657531380653,0.06244591251015663,0.3458828926086426,0.0,0.0,0.0,0.0,0.0,0.0,0.0,0.0,0.0
1606827828252209349,1812597,1606827828243869704,imu_link,0.08070099353790283,0.014261879958212376,0.2250230312347412,0.9709009528160095,0.0,0.0,0.0,0.0,0.0,0.0,0.0,0.0,0.0,26.057205200195312,-0.494206041097641,9.3886137008667,0.0,0.0,0.0,0.0,0.0,0.0,0.0,0.0,0.0,0.0057135759852826595,0.049867480993270874,0.3210298717021942,0.0,0.0,0.0,0.0,0.0,0.0,0.0,0.0,0.0
1606827828252253126,1812598,1606827828244066247,imu_link,0.08070099353790283,0.014261879958212376,0.2250230312347412,0.9709009528160095,0.0,0.0,0.0,0.0,0.0,0.0,0.0,0.0,0.0,26.057205200195312,-0.494206041097641,9.3886137008667,0.0,0.0,0.0,0.0,0.0,0.0,0.0,0.0,0.0,0.0057135759852826595,0.049867480993270874,0.3210298717021942,0.0,0.0,0.0,0.0,0.0,0.0,0.0,0.0,0.0
1606827828252265561,1812599,1606827828244218829,imu_link,0.08070077747106552,0.014261552132666111,0.22502148151397705,0.9709013104438782,0.0,0.0,0.0,0.0,0.0,0.0,0.0,0.0,0.0,26.057025909423828,-0.49422216415405273,9.388582229614258,0.0,0.0,0.0,0.0,0.0,0.0,0.0,0.0,0.0,0.010363875888288021,0.04617128148674965,0.32632824778556824,0.0,0.0,0.0,0.0,0.0,0.0,0.0,0.0,0.0
1606827828254098701,1812600,1606827828244476154,imu_link,0.08070077747106552,0.014261552132666111,0.22502148151397705,0.9709013104438782,0.0,0.0,0.0,0.0,0.0,0.0,0.0,0.0,0.0,26.057025909423828,-0.49422216415405273,9.388582229614258,0.0,0.0,0.0,0.0,0.0,0.0,0.0,0.0,0.0,0.010363875888288021,0.04617128148674965,0.32632824778556824,0.0,0.0,0.0,0.0,0.0,0.0,0.0,0.0,0.0
1606827828263626340,1812601,1606827828256027111,imu_link,0.08070068806409836,0.014262828044593334,0.2250206172466278,0.9709014892578125,0.0,0.0,0.0,0.0,0.0,0.0,0.0,0.0,0.0,26.056934356689453,-0.4940696656703949,9.388605117797852,0.0,0.0,0.0,0.0,0.0,0.0,0.0,0.0,0.0,-0.0007952563464641571,0.056025244295597076,0.3138490915298462,0.0,0.0,0.0,0.0,0.0,0.0,0.0,0.0,0.0
1606827828264639757,1812602,1606827828256176668,imu_link,0.08070068806409836,0.014262828044593334,0.2250206172466278,0.9709014892578125,0.0,0.0,0.0,0.0,0.0,0.0,0.0,0.0,0.0,26.056934356689453,-0.4940696656703949,9.388605117797852,0.0,0.0,0.0,0.0,0.0,0.0,0.0,0.0,0.0,-0.0007952563464641571,0.056025244295597076,0.3138490915298462,0.0,0.0,0.0,0.0,0.0,0.0,0.0,0.0,0.0
1606827828264654224,1812603,1606827828256289801,imu_link,0.0807003602385521,0.014264566823840141,0.22502067685127258,0.9709014892578125,0.0,0.0,0.0,0.0,0.0,0.0,0.0,0.0,0.0,26.056957244873047,-0.49386826157569885,9.3886137008667,0.0,0.0,0.0,0.0,0.0,0.0,0.0,0.0,0.0,0.009257392957806587,0.060017697513103485,0.29401445388793945,0.0,0.0,0.0,0.0,0.0,0.0,0.0,0.0,0.0
1606827828264661212,1812604,1606827828256431833,imu_link,0.0807003602385521,0.014264566823840141,0.22502067685127258,0.9709014892578125,0.0,0.0,0.0,0.0,0.0,0.0,0.0,0.0,0.0,26.056957244873047,-0.49386826157569885,9.3886137008667,0.0,0.0,0.0,0.0,0.0,0.0,0.0,0.0,0.0,0.009257392957806587,0.060017697513103485,0.29401445388793945,0.0,0.0,0.0,0.0,0.0,0.0,0.0,0.0,0.0
1606827828264665771,1812605,1606827828256575829,imu_link,0.08069843053817749,0.014264424331486225,0.22502106428146362,0.970901608467102,0.0,0.0,0.0,0.0,0.0,0.0,0.0,0.0,0.0,26.0570011138916,-0.4938378632068634,9.38839340209961,0.0,0.0,0.0,0.0,0.0,0.0,0.0,0.0,0.0,0.011653508059680462,0.06272286176681519,0.29442310333251953,0.0,0.0,0.0,0.0,0.0,0.0,0.0,0.0,0.0
1606827828264678757,1812606,1606827828256700192,imu_link,0.08069843053817749,0.014264424331486225,0.22502106428146362,0.970901608467102,0.0,0.0,0.0,0.0,0.0,0.0,0.0,0.0,0.0,26.0570011138916,-0.4938378632068634,9.38839340209961,0.0,0.0,0.0,0.0,0.0,0.0,0.0,0.0,0.0,0.011653508059680462,0.06272286176681519,0.29442310333251953,0.0,0.0,0.0,0.0,0.0,0.0,0.0,0.0,0.0
1606827828267884733,1812607,1606827828256989849,imu_link,0.0806967094540596,0.014264562167227268,0.22502300143241882,0.9709013104438782,0.0,0.0,0.0,0.0,0.0,0.0,0.0,0.0,0.0,26.057228088378906,-0.49379655718803406,9.388201713562012,0.0,0.0,0.0,0.0,0.0,0.0,0.0,0.0,0.0,-0.004931374453008175,0.06683874130249023,0.3044801652431488,0.0,0.0,0.0,0.0,0.0,0.0,0.0,0.0,0.0
1606827828267902790,1812608,1606827828257123269,imu_link,0.0806967094540596,0.014264562167227268,0.22502300143241882,0.9709013104438782,0.0,0.0,0.0,0.0,0.0,0.0,0.0,0.0,0.0,26.057228088378906,-0.49379655718803406,9.388201713562012,0.0,0.0,0.0,0.0,0.0,0.0,0.0,0.0,0.0,-0.004931374453008175,0.06683874130249023,0.3044801652431488,0.0,0.0,0.0,0.0,0.0,0.0,0.0,0.0,0.0
1606827828267916844,1812609,1606827828257299976,imu_link,0.08069466799497604,0.014262424781918526,0.2250182032585144,0.9709025025367737,0.0,0.0,0.0,0.0,0.0,0.0,0.0,0.0,0.0,26.056652069091797,-0.4939352869987488,9.387922286987305,0.0,0.0,0.0,0.0,0.0,0.0,0.0,0.0,0.0,-0.003264450468122959,0.07214359939098358,0.3057084381580353,0.0,0.0,0.0,0.0,0.0,0.0,0.0,0.0,0.0
1606827828267935607,1812610,1606827828257422668,imu_link,0.08069466799497604,0.014262424781918526,0.2250182032585144,0.9709025025367737,0.0,0.0,0.0,0.0,0.0,0.0,0.0,0.0,0.0,26.056652069091797,-0.4939352869987488,9.387922286987305,0.0,0.0,0.0,0.0,0.0,0.0,0.0,0.0,0.0,-0.003264450468122959,0.07214359939098358,0.3057084381580353,0.0,0.0,0.0,0.0,0.0,0.0,0.0,0.0,0.0
1606827828268654338,1812611,1606827828257603341,imu_link,0.08069499582052231,0.014262494631111622,0.22502031922340393,0.9709020853042603,0.0,0.0,0.0,0.0,0.0,0.0,0.0,0.0,0.0,26.056896209716797,-0.4939561188220978,9.387958526611328,0.0,0.0,0.0,0.0,0.0,0.0,0.0,0.0,0.0,0.01625918224453926,0.066719189286232,0.32666683197021484,0.0,0.0,0.0,0.0,0.0,0.0,0.0,0.0,0.0
1606827828277462580,1812612,1606827828269772179,imu_link,0.08069499582052231,0.014262494631111622,0.22502031922340393,0.9709020853042603,0.0,0.0,0.0,0.0,0.0,0.0,0.0,0.0,0.0,26.056896209716797,-0.4939561188220978,9.387958526611328,0.0,0.0,0.0,0.0,0.0,0.0,0.0,0.0,0.0,0.01625918224453926,0.066719189286232,0.32666683197021484,0.0,0.0,0.0,0.0,0.0,0.0,0.0,0.0,0.0
1606827828278041857,1812613,1606827828269887193,imu_link,0.08069270104169846,0.014265243895351887,0.22501470148563385,0.9709035158157349,0.0,0.0,0.0,0.0,0.0,0.0,0.0,0.0,0.0,26.056264877319336,-0.4935368597507477,9.387775421142578,0.0,0.0,0.0,0.0,0.0,0.0,0.0,0.0,0.0,0.016036443412303925,0.05311644449830055,0.3246403932571411,0.0,0.0,0.0,0.0,0.0,0.0,0.0,0.0,0.0
1606827828278053977,1812614,1606827828269977312,imu_link,0.08069270104169846,0.014265243895351887,0.22501470148563385,0.9709035158157349,0.0,0.0,0.0,0.0,0.0,0.0,0.0,0.0,0.0,26.056264877319336,-0.4935368597507477,9.387775421142578,0.0,0.0,0.0,0.0,0.0,0.0,0.0,0.0,0.0,0.016036443412303925,0.05311644449830055,0.3246403932571411,0.0,0.0,0.0,0.0,0.0,0.0,0.0,0.0,0.0
1606827828278062972,1812615,1606827828270081642,imu_link,0.08069183677434921,0.014266661368310452,0.22501598298549652,0.9709032773971558,0.0,0.0,0.0,0.0,0.0,0.0,0.0,0.0,0.0,26.056428909301758,-0.49336907267570496,9.387713432312012,0.0,0.0,0.0,0.0,0.0,0.0,0.0,0.0,0.0,0.008203697390854359,0.06643203645944595,0.31324872374534607,0.0,0.0,0.0,0.0,0.0,0.0,0.0,0.0,0.0
1606827828278067392,1812616,1606827828270194508,imu_link,0.08069183677434921,0.014266661368310452,0.22501598298549652,0.9709032773971558,0.0,0.0,0.0,0.0,0.0,0.0,0.0,0.0,0.0,26.056428909301758,-0.49336907267570496,9.387713432312012,0.0,0.0,0.0,0.0,0.0,0.0,0.0,0.0,0.0,0.008203697390854359,0.06643203645944595,0.31324872374534607,0.0,0.0,0.0,0.0,0.0,0.0,0.0,0.0,0.0
1606827828278968331,1812617,1606827828270319519,imu_link,0.08069014549255371,0.014266910031437874,0.22501368820667267,0.9709039330482483,0.0,0.0,0.0,0.0,0.0,0.0,0.0,0.0,0.0,26.056163787841797,-0.4932754933834076,9.387533187866211,0.0,0.0,0.0,0.0,0.0,0.0,0.0,0.0,0.0,-0.007630852051079273,0.06765896826982498,0.33086225390434265,0.0,0.0,0.0,0.0,0.0,0.0,0.0,0.0,0.0
1606827828278980865,1812618,1606827828270483409,imu_link,0.08069014549255371,0.014266910031437874,0.22501368820667267,0.9709039330482483,0.0,0.0,0.0,0.0,0.0,0.0,0.0,0.0,0.0,26.056163787841797,-0.4932754933834076,9.387533187866211,0.0,0.0,0.0,0.0,0.0,0.0,0.0,0.0,0.0,-0.007630852051079273,0.06765896826982498,0.33086225390434265,0.0,0.0,0.0,0.0,0.0,0.0,0.0,0.0,0.0
1606827828278989434,1812619,1606827828270611230,imu_link,0.08069045841693878,0.014266714453697205,0.22501471638679504,0.9709036350250244,0.0,0.0,0.0,0.0,0.0,0.0,0.0,0.0,0.0,26.056283950805664,-0.4933153986930847,9.38756275177002,0.0,0.0,0.0,0.0,0.0,0.0,0.0,0.0,0.0,-0.0307240542024374,0.04319286718964577,0.32063978910446167,0.0,0.0,0.0,0.0,0.0,0.0,0.0,0.0,0.0
1606827828278993467,1812620,1606827828270705908,imu_link,0.08069045841693878,0.014266714453697205,0.22501471638679504,0.9709036350250244,0.0,0.0,0.0,0.0,0.0,0.0,0.0,0.0,0.0,26.056283950805664,-0.4933153986930847,9.38756275177002,0.0,0.0,0.0,0.0,0.0,0.0,0.0,0.0,0.0,-0.0307240542024374,0.04319286718964577,0.32063978910446167,0.0,0.0,0.0,0.0,0.0,0.0,0.0,0.0,0.0
1606827828278998142,1812621,1606827828270801483,imu_link,0.08069287985563278,0.014261594042181969,0.2250121831893921,0.9709041118621826,0.0,0.0,0.0,0.0,0.0,0.0,0.0,0.0,0.0,26.055936813354492,-0.49392324686050415,9.387702941894531,0.0,0.0,0.0,0.0,0.0,0.0,0.0,0.0,0.0,-0.017532305791974068,0.03801880031824112,0.32236629724502563,0.0,0.0,0.0,0.0,0.0,0.0,0.0,0.0,0.0
1606827828279011388,1812622,1606827828270893315,imu_link,0.08069287985563278,0.014261594042181969,0.2250121831893921,0.9709041118621826,0.0,0.0,0.0,0.0,0.0,0.0,0.0,0.0,0.0,26.055936813354492,-0.49392324686050415,9.387702941894531,0.0,0.0,0.0,0.0,0.0,0.0,0.0,0.0,0.0,-0.017532305791974068,0.03801880031824112,0.32236629724502563,0.0,0.0,0.0,0.0,0.0,0.0,0.0,0.0,0.0
1606827828293299074,1812623,1606827828282633013,imu_link,0.0806918665766716,0.014262525364756584,0.22501114010810852,0.9709044098854065,0.0,0.0,0.0,0.0,0.0,0.0,0.0,0.0,0.0,26.05582618713379,-0.49378353357315063,9.387614250183105,0.0,0.0,0.0,0.0,0.0,0.0,0.0,0.0,0.0,-0.008047751151025295,0.043294116854667664,0.34700730443000793,0.0,0.0,0.0,0.0,0.0,0.0,0.0,0.0,0.0
1606827828293323594,1812624,1606827828282795504,imu_link,0.0806918665766716,0.014262525364756584,0.22501114010810852,0.9709044098854065,0.0,0.0,0.0,0.0,0.0,0.0,0.0,0.0,0.0,26.05582618713379,-0.49378353357315063,9.387614250183105,0.0,0.0,0.0,0.0,0.0,0.0,0.0,0.0,0.0,-0.008047751151025295,0.043294116854667664,0.34700730443000793,0.0,0.0,0.0,0.0,0.0,0.0,0.0,0.0,0.0
1606827828293334910,1812625,1606827828282924786,imu_link,0.0806959867477417,0.014261860400438309,0.22501246631145477,0.9709038138389587,0.0,0.0,0.0,0.0,0.0,0.0,0.0,0.0,0.0,26.055971145629883,-0.4939769208431244,9.388056755065918,0.0,0.0,0.0,0.0,0.0,0.0,0.0,0.0,0.0,-0.008904077112674713,0.043236590921878815,0.3360925316810608,0.0,0.0,0.0,0.0,0.0,0.0,0.0,0.0,0.0
1606827828293341755,1812626,1606827828283103563,imu_link,0.0806959867477417,0.014261860400438309,0.22501246631145477,0.9709038138389587,0.0,0.0,0.0,0.0,0.0,0.0,0.0,0.0,0.0,26.055971145629883,-0.4939769208431244,9.388056755065918,0.0,0.0,0.0,0.0,0.0,0.0,0.0,0.0,0.0,-0.008904077112674713,0.043236590921878815,0.3360925316810608,0.0,0.0,0.0,0.0,0.0,0.0,0.0,0.0,0.0
1606827828293357850,1812627,1606827828283240471,imu_link,0.08069507032632828,0.014262396842241287,0.22501371800899506,0.9709035754203796,0.0,0.0,0.0,0.0,0.0,0.0,0.0,0.0,0.0,26.056123733520508,-0.4939054250717163,9.387967109680176,0.0,0.0,0.0,0.0,0.0,0.0,0.0,0.0,0.0,0.005558419972658157,0.06247444450855255,0.3219144642353058,0.0,0.0,0.0,0.0,0.0,0.0,0.0,0.0,0.0
1606827828294056608,1812628,1606827828283434647,imu_link,0.08069507032632828,0.014262396842241287,0.22501371800899506,0.9709035754203796,0.0,0.0,0.0,0.0,0.0,0.0,0.0,0.0,0.0,26.056123733520508,-0.4939054250717163,9.387967109680176,0.0,0.0,0.0,0.0,0.0,0.0,0.0,0.0,0.0,0.005558419972658157,0.06247444450855255,0.3219144642353058,0.0,0.0,0.0,0.0,0.0,0.0,0.0,0.0,0.0
1606827828294072881,1812629,1606827828283557916,imu_link,0.08069278299808502,0.01426092442125082,0.22501610219478607,0.970903217792511,0.0,0.0,0.0,0.0,0.0,0.0,0.0,0.0,0.0,26.0563907623291,-0.49403294920921326,9.387672424316406,0.0,0.0,0.0,0.0,0.0,0.0,0.0,0.0,0.0,0.010028057731688023,0.07640138268470764,0.3290441930294037,0.0,0.0,0.0,0.0,0.0,0.0,0.0,0.0,0.0
1606827828294080142,1812630,1606827828283685706,imu_link,0.08069278299808502,0.01426092442125082,0.22501610219478607,0.970903217792511,0.0,0.0,0.0,0.0,0.0,0.0,0.0,0.0,0.0,26.0563907623291,-0.49403294920921326,9.387672424316406,0.0,0.0,0.0,0.0,0.0,0.0,0.0,0.0,0.0,0.010028057731688023,0.07640138268470764,0.3290441930294037,0.0,0.0,0.0,0.0,0.0,0.0,0.0,0.0,0.0
1606827828294121803,1812631,1606827828283812599,imu_link,0.08069264143705368,0.014262358658015728,0.22501817345619202,0.9709027409553528,0.0,0.0,0.0,0.0,0.0,0.0,0.0,0.0,0.0,26.05664825439453,-0.493889719247818,9.387693405151367,0.0,0.0,0.0,0.0,0.0,0.0,0.0,0.0,0.0,0.010773167945444584,0.0705588310956955,0.31578510999679565,0.0,0.0,0.0,0.0,0.0,0.0,0.0,0.0,0.0
1606827828294131174,1812632,1606827828283932741,imu_link,0.08069264143705368,0.014262358658015728,0.22501817345619202,0.9709027409553528,0.0,0.0,0.0,0.0,0.0,0.0,0.0,0.0,0.0,26.05664825439453,-0.493889719247818,9.387693405151367,0.0,0.0,0.0,0.0,0.0,0.0,0.0,0.0,0.0,0.010773167945444584,0.0705588310956955,0.31578510999679565,0.0,0.0,0.0,0.0,0.0,0.0,0.0,0.0,0.0
1606827828303867254,1812633,1606827828296175821,imu_link,0.08068889379501343,0.014266535639762878,0.22502700984477997,0.9709009528160095,0.0,0.0,0.0,0.0,0.0,0.0,0.0,0.0,0.0,26.057720184326172,-0.49341294169425964,9.38737678527832,0.0,0.0,0.0,0.0,0.0,0.0,0.0,0.0,0.0,0.020207855850458145,0.06600990891456604,0.3200567364692688,0.0,0.0,0.0,0.0,0.0,0.0,0.0,0.0,0.0
1606827828305320410,1812634,1606827828296327451,imu_link,0.08068889379501343,0.014266535639762878,0.22502700984477997,0.9709009528160095,0.0,0.0,0.0,0.0,0.0,0.0,0.0,0.0,0.0,26.057720184326172,-0.49341294169425964,9.38737678527832,0.0,0.0,0.0,0.0,0.0,0.0,0.0,0.0,0.0,0.020207855850458145,0.06600990891456604,0.3200567364692688,0.0,0.0,0.0,0.0,0.0,0.0,0.0,0.0,0.0
1606827828305339589,1812635,1606827828296451377,imu_link,0.0806894451379776,0.014268185012042522,0.22502851486206055,0.9709005355834961,0.0,0.0,0.0,0.0,0.0,0.0,0.0,0.0,0.0,26.05791473388672,-0.4932582974433899,9.387479782104492,0.0,0.0,0.0,0.0,0.0,0.0,0.0,0.0,0.0,0.010229954496026039,0.07185529172420502,0.34319594502449036,0.0,0.0,0.0,0.0,0.0,0.0,0.0,0.0,0.0
1606827828305347774,1812636,1606827828296599186,imu_link,0.0806894451379776,0.014268185012042522,0.22502851486206055,0.9709005355834961,0.0,0.0,0.0,0.0,0.0,0.0,0.0,0.0,0.0,26.05791473388672,-0.4932582974433899,9.387479782104492,0.0,0.0,0.0,0.0,0.0,0.0,0.0,0.0,0.0,0.010229954496026039,0.07185529172420502,0.34319594502449036,0.0,0.0,0.0,0.0,0.0,0.0,0.0,0.0,0.0
1606827828305354674,1812637,1606827828296793699,imu_link,0.08068689703941345,0.014271076768636703,0.22503907978534698,0.9708982110023499,0.0,0.0,0.0,0.0,0.0,0.0,0.0,0.0,0.0,26.05918312072754,-0.49297240376472473,9.387264251708984,0.0,0.0,0.0,0.0,0.0,0.0,0.0,0.0,0.0,-0.01300806924700737,0.068877674639225,0.34524521231651306,0.0,0.0,0.0,0.0,0.0,0.0,0.0,0.0,0.0
1606827828306164247,1812638,1606827828296926798,imu_link,0.08068689703941345,0.014271076768636703,0.22503907978534698,0.9708982110023499,0.0,0.0,0.0,0.0,0.0,0.0,0.0,0.0,0.0,26.05918312072754,-0.49297240376472473,9.387264251708984,0.0,0.0,0.0,0.0,0.0,0.0,0.0,0.0,0.0,-0.01300806924700737,0.068877674639225,0.34524521231651306,0.0,0.0,0.0,0.0,0.0,0.0,0.0,0.0,0.0
1606827828306177882,1812639,1606827828297251487,imu_link,0.08068738877773285,0.014269799925386906,0.22504177689552307,0.9708975553512573,0.0,0.0,0.0,0.0,0.0,0.0,0.0,0.0,0.0,26.05948829650879,-0.49315306544303894,9.387285232543945,0.0,0.0,0.0,0.0,0.0,0.0,0.0,0.0,0.0,-0.01041620597243309,0.06035415828227997,0.33280566334724426,0.0,0.0,0.0,0.0,0.0,0.0,0.0,0.0,0.0
1606827828306192074,1812640,1606827828297418493,imu_link,0.08068738877773285,0.014269799925386906,0.22504177689552307,0.9708975553512573,0.0,0.0,0.0,0.0,0.0,0.0,0.0,0.0,0.0,26.05948829650879,-0.49315306544303894,9.387285232543945,0.0,0.0,0.0,0.0,0.0,0.0,0.0,0.0,0.0,-0.01041620597243309,0.06035415828227997,0.33280566334724426,0.0,0.0,0.0,0.0,0.0,0.0,0.0,0.0,0.0
1606827828306202264,1812641,1606827828297546957,imu_link,0.0806860700249672,0.014268897473812103,0.22505083680152893,0.9708956480026245,0.0,0.0,0.0,0.0,0.0,0.0,0.0,0.0,0.0,26.0605411529541,-0.49330633878707886,9.38710880279541,0.0,0.0,0.0,0.0,0.0,0.0,0.0,0.0,0.0,0.0045722173526883125,0.05426753684878349,0.34503453969955444,0.0,0.0,0.0,0.0,0.0,0.0,0.0,0.0,0.0
1606827828306471505,1812642,1606827828297720161,imu_link,0.0806860700249672,0.014268897473812103,0.22505083680152893,0.9708956480026245,0.0,0.0,0.0,0.0,0.0,0.0,0.0,0.0,0.0,26.0605411529541,-0.49330633878707886,9.38710880279541,0.0,0.0,0.0,0.0,0.0,0.0,0.0,0.0,0.0,0.0045722173526883125,0.05426753684878349,0.34503453969955444,0.0,0.0,0.0,0.0,0.0,0.0,0.0,0.0,0.0
1606827828306483711,1812643,1606827828297840839,imu_link,0.08068699389696121,0.014268330298364162,0.22505472600460052,0.9708946347236633,0.0,0.0,0.0,0.0,0.0,0.0,0.0,0.0,0.0,26.060991287231445,-0.49343088269233704,9.38719654083252,0.0,0.0,0.0,0.0,0.0,0.0,0.0,0.0,0.0,0.00016493955627083778,0.05653900280594826,0.34406721591949463,0.0,0.0,0.0,0.0,0.0,0.0,0.0,0.0,0.0
1606827828317737259,1812644,1606827828310013637,imu_link,0.08068699389696121,0.014268330298364162,0.22505472600460052,0.9708946347236633,0.0,0.0,0.0,0.0,0.0,0.0,0.0,0.0,0.0,26.060991287231445,-0.49343088269233704,9.38719654083252,0.0,0.0,0.0,0.0,0.0,0.0,0.0,0.0,0.0,0.00016493955627083778,0.05653900280594826,0.34406721591949463,0.0,0.0,0.0,0.0,0.0,0.0,0.0,0.0,0.0
1606827828318564989,1812645,1606827828310161198,imu_link,0.08068614453077316,0.01426851749420166,0.22506183385849,0.9708930850028992,0.0,0.0,0.0,0.0,0.0,0.0,0.0,0.0,0.0,26.061826705932617,-0.49345627427101135,9.387101173400879,0.0,0.0,0.0,0.0,0.0,0.0,0.0,0.0,0.0,-0.004841149784624577,0.07632249593734741,0.3194493055343628,0.0,0.0,0.0,0.0,0.0,0.0,0.0,0.0,0.0
1606827828318582349,1812646,1606827828310397447,imu_link,0.08068614453077316,0.01426851749420166,0.22506183385849,0.9708930850028992,0.0,0.0,0.0,0.0,0.0,0.0,0.0,0.0,0.0,26.061826705932617,-0.49345627427101135,9.387101173400879,0.0,0.0,0.0,0.0,0.0,0.0,0.0,0.0,0.0,-0.004841149784624577,0.07632249593734741,0.3194493055343628,0.0,0.0,0.0,0.0,0.0,0.0,0.0,0.0,0.0
1606827828318596415,1812647,1606827828310575417,imu_link,0.0806867778301239,0.014265699312090874,0.22506220638751984,0.9708929657936096,0.0,0.0,0.0,0.0,0.0,0.0,0.0,0.0,0.0,26.061843872070312,-0.493789941072464,9.387101173400879,0.0,0.0,0.0,0.0,0.0,0.0,0.0,0.0,0.0,-0.004184223245829344,0.07308077067136765,0.31676632165908813,0.0,0.0,0.0,0.0,0.0,0.0,0.0,0.0,0.0
1606827828318606063,1812648,1606827828310705333,imu_link,0.0806867778301239,0.014265699312090874,0.22506220638751984,0.9708929657936096,0.0,0.0,0.0,0.0,0.0,0.0,0.0,0.0,0.0,26.061843872070312,-0.493789941072464,9.387101173400879,0.0,0.0,0.0,0.0,0.0,0.0,0.0,0.0,0.0,-0.004184223245829344,0.07308077067136765,0.31676632165908813,0.0,0.0,0.0,0.0,0.0,0.0,0.0,0.0,0.0
1606827828319447818,1812649,1606827828310836608,imu_link,0.08068440109491348,0.014262688346207142,0.22505857050418854,0.9708940982818604,0.0,0.0,0.0,0.0,0.0,0.0,0.0,0.0,0.0,26.061389923095703,-0.49402815103530884,9.386757850646973,0.0,0.0,0.0,0.0,0.0,0.0,0.0,0.0,0.0,0.00029547582380473614,0.064630426466465,0.3047574460506439,0.0,0.0,0.0,0.0,0.0,0.0,0.0,0.0,0.0
1606827828319489339,1812650,1606827828311043690,imu_link,0.08068440109491348,0.014262688346207142,0.22505857050418854,0.9708940982818604,0.0,0.0,0.0,0.0,0.0,0.0,0.0,0.0,0.0,26.061389923095703,-0.49402815103530884,9.386757850646973,0.0,0.0,0.0,0.0,0.0,0.0,0.0,0.0,0.0,0.00029547582380473614,0.064630426466465,0.3047574460506439,0.0,0.0,0.0,0.0,0.0,0.0,0.0,0.0,0.0
1606827828319497784,1812651,1606827828311173422,imu_link,0.08068539202213287,0.014261867851018906,0.2250584065914154,0.9708940386772156,0.0,0.0,0.0,0.0,0.0,0.0,0.0,0.0,0.0,26.061363220214844,-0.49414360523223877,9.386848449707031,0.0,0.0,0.0,0.0,0.0,0.0,0.0,0.0,0.0,0.012278607115149498,0.06160174310207367,0.3115670680999756,0.0,0.0,0.0,0.0,0.0,0.0,0.0,0.0,0.0
1606827828319514377,1812652,1606827828311322345,imu_link,0.08068539202213287,0.014261867851018906,0.2250584065914154,0.9708940386772156,0.0,0.0,0.0,0.0,0.0,0.0,0.0,0.0,0.0,26.061363220214844,-0.49414360523223877,9.386848449707031,0.0,0.0,0.0,0.0,0.0,0.0,0.0,0.0,0.0,0.012278607115149498,0.06160174310207367,0.3115670680999756,0.0,0.0,0.0,0.0,0.0,0.0,0.0,0.0,0.0
1606827828319531940,1812653,1606827828311448661,imu_link,0.08068343997001648,0.014263223856687546,0.2250555455684662,0.9708948135375977,0.0,0.0,0.0,0.0,0.0,0.0,0.0,0.0,0.0,26.0610408782959,-0.4939146935939789,9.386666297912598,0.0,0.0,0.0,0.0,0.0,0.0,0.0,0.0,0.0,0.014891439117491245,0.06430887430906296,0.32635927200317383,0.0,0.0,0.0,0.0,0.0,0.0,0.0,0.0,0.0
1606827828319544703,1812654,1606827828311614796,imu_link,0.08068343997001648,0.014263223856687546,0.2250555455684662,0.9708948135375977,0.0,0.0,0.0,0.0,0.0,0.0,0.0,0.0,0.0,26.0610408782959,-0.4939146935939789,9.386666297912598,0.0,0.0,0.0,0.0,0.0,0.0,0.0,0.0,0.0,0.014891439117491245,0.06430887430906296,0.32635927200317383,0.0,0.0,0.0,0.0,0.0,0.0,0.0,0.0,0.0
1606827828331108599,1812655,1606827828323469458,imu_link,0.08068334311246872,0.014262868091464043,0.22505410015583038,0.9708951711654663,0.0,0.0,0.0,0.0,0.0,0.0,0.0,0.0,0.0,26.060869216918945,-0.4939378499984741,9.386646270751953,0.0,0.0,0.0,0.0,0.0,0.0,0.0,0.0,0.0,0.007509325630962849,0.06950584053993225,0.3253287971019745,0.0,0.0,0.0,0.0,0.0,0.0,0.0,0.0,0.0
1606827828332153441,1812656,1606827828323638128,imu_link,0.08068334311246872,0.014262868091464043,0.22505410015583038,0.9708951711654663,0.0,0.0,0.0,0.0,0.0,0.0,0.0,0.0,0.0,26.060869216918945,-0.4939378499984741,9.386646270751953,0.0,0.0,0.0,0.0,0.0,0.0,0.0,0.0,0.0,0.007509325630962849,0.06950584053993225,0.3253287971019745,0.0,0.0,0.0,0.0,0.0,0.0,0.0,0.0,0.0
1606827828332182856,1812657,1606827828323772522,imu_link,0.08068142831325531,0.014262208715081215,0.22505269944667816,0.9708957076072693,0.0,0.0,0.0,0.0,0.0,0.0,0.0,0.0,0.0,26.060697555541992,-0.49394798278808594,9.386414527893066,0.0,0.0,0.0,0.0,0.0,0.0,0.0,0.0,0.0,-0.0002752572763711214,0.06021669879555702,0.34456324577331543,0.0,0.0,0.0,0.0,0.0,0.0,0.0,0.0,0.0
1606827828332210206,1812658,1606827828323980910,imu_link,0.08068142831325531,0.014262208715081215,0.22505269944667816,0.9708957076072693,0.0,0.0,0.0,0.0,0.0,0.0,0.0,0.0,0.0,26.060697555541992,-0.49394798278808594,9.386414527893066,0.0,0.0,0.0,0.0,0.0,0.0,0.0,0.0,0.0,-0.0002752572763711214,0.06021669879555702,0.34456324577331543,0.0,0.0,0.0,0.0,0.0,0.0,0.0,0.0,0.0
1606827828332232334,1812659,1606827828324217246,imu_link,0.08068329840898514,0.014262551441788673,0.2250535637140274,0.9708952903747559,0.0,0.0,0.0,0.0,0.0,0.0,0.0,0.0,0.0,26.06080436706543,-0.493966668844223,9.386632919311523,0.0,0.0,0.0,0.0,0.0,0.0,0.0,0.0,0.0,-0.0019901306368410587,0.05382419377565384,0.3516513705253601,0.0,0.0,0.0,0.0,0.0,0.0,0.0,0.0,0.0
1606827828333401108,1812660,1606827828324387719,imu_link,0.08068329840898514,0.014262551441788673,0.2250535637140274,0.9708952903747559,0.0,0.0,0.0,0.0,0.0,0.0,0.0,0.0,0.0,26.06080436706543,-0.493966668844223,9.386632919311523,0.0,0.0,0.0,0.0,0.0,0.0,0.0,0.0,0.0,-0.0019901306368410587,0.05382419377565384,0.3516513705253601,0.0,0.0,0.0,0.0,0.0,0.0,0.0,0.0,0.0
1606827828333429582,1812661,1606827828324656540,imu_link,0.08068373054265976,0.014261721633374691,0.22505396604537964,0.9708951711654663,0.0,0.0,0.0,0.0,0.0,0.0,0.0,0.0,0.0,26.060840606689453,-0.49407413601875305,9.3866605758667,0.0,0.0,0.0,0.0,0.0,0.0,0.0,0.0,0.0,0.0027403016574680805,0.052157606929540634,0.331224262714386,0.0,0.0,0.0,0.0,0.0,0.0,0.0,0.0,0.0
1606827828333441676,1812662,1606827828324801341,imu_link,0.08068373054265976,0.014261721633374691,0.22505396604537964,0.9708951711654663,0.0,0.0,0.0,0.0,0.0,0.0,0.0,0.0,0.0,26.060840606689453,-0.49407413601875305,9.3866605758667,0.0,0.0,0.0,0.0,0.0,0.0,0.0,0.0,0.0,0.0027403016574680805,0.052157606929540634,0.331224262714386,0.0,0.0,0.0,0.0,0.0,0.0,0.0,0.0,0.0
1606827828333447283,1812663,1606827828324944587,imu_link,0.08068521320819855,0.014260378666222095,0.2250543087720871,0.970894992351532,0.0,0.0,0.0,0.0,0.0,0.0,0.0,0.0,0.0,26.060869216918945,-0.49426528811454773,9.386791229248047,0.0,0.0,0.0,0.0,0.0,0.0,0.0,0.0,0.0,-0.005117399618029594,0.04598366841673851,0.3248017728328705,0.0,0.0,0.0,0.0,0.0,0.0,0.0,0.0,0.0
1606827828333463238,1812664,1606827828325118977,imu_link,0.08068521320819855,0.014260378666222095,0.2250543087720871,0.970894992351532,0.0,0.0,0.0,0.0,0.0,0.0,0.0,0.0,0.0,26.060869216918945,-0.49426528811454773,9.386791229248047,0.0,0.0,0.0,0.0,0.0,0.0,0.0,0.0,0.0,-0.005117399618029594,0.04598366841673851,0.3248017728328705,0.0,0.0,0.0,0.0,0.0,0.0,0.0,0.0,0.0
1606827828334539568,1812665,1606827828325254422,imu_link,0.08068691939115524,0.014258937910199165,0.22505100071430206,0.9708956480026245,0.0,0.0,0.0,0.0,0.0,0.0,0.0,0.0,0.0,26.060466766357422,-0.49443796277046204,9.386946678161621,0.0,0.0,0.0,0.0,0.0,0.0,0.0,0.0,0.0,-0.001638858113437891,0.04134809598326683,0.34073641896247864,0.0,0.0,0.0,0.0,0.0,0.0,0.0,0.0,0.0
1606827828344114950,1812666,1606827828336358170,imu_link,0.08068691939115524,0.014258937910199165,0.22505100071430206,0.9708956480026245,0.0,0.0,0.0,0.0,0.0,0.0,0.0,0.0,0.0,26.060466766357422,-0.49443796277046204,9.386946678161621,0.0,0.0,0.0,0.0,0.0,0.0,0.0,0.0,0.0,-0.001638858113437891,0.04134809598326683,0.34073641896247864,0.0,0.0,0.0,0.0,0.0,0.0,0.0,0.0,0.0
1606827828345071836,1812667,1606827828336497120,imu_link,0.08068691939115524,0.014258937910199165,0.22505100071430206,0.9708956480026245,0.0,0.0,0.0,0.0,0.0,0.0,0.0,0.0,0.0,26.060466766357422,-0.49443796277046204,9.386946678161621,0.0,0.0,0.0,0.0,0.0,0.0,0.0,0.0,0.0,0.006670365110039711,0.04424392431974411,0.32668182253837585,0.0,0.0,0.0,0.0,0.0,0.0,0.0,0.0,0.0
1606827828345090130,1812668,1606827828336605130,imu_link,0.08068691939115524,0.014258937910199165,0.22505100071430206,0.9708956480026245,0.0,0.0,0.0,0.0,0.0,0.0,0.0,0.0,0.0,26.060466766357422,-0.49443796277046204,9.386946678161621,0.0,0.0,0.0,0.0,0.0,0.0,0.0,0.0,0.0,0.006670365110039711,0.04424392431974411,0.32668182253837585,0.0,0.0,0.0,0.0,0.0,0.0,0.0,0.0,0.0
1606827828345112046,1812669,1606827828336750899,imu_link,0.08068834245204926,0.014260686933994293,0.22505047917366028,0.9708956480026245,0.0,0.0,0.0,0.0,0.0,0.0,0.0,0.0,0.0,26.0604190826416,-0.4942750930786133,9.387151718139648,0.0,0.0,0.0,0.0,0.0,0.0,0.0,0.0,0.0,0.013851899653673172,0.05752689763903618,0.30794557929039,0.0,0.0,0.0,0.0,0.0,0.0,0.0,0.0,0.0
1606827828345129078,1812670,1606827828336959369,imu_link,0.08068834245204926,0.014260686933994293,0.22505047917366028,0.9708956480026245,0.0,0.0,0.0,0.0,0.0,0.0,0.0,0.0,0.0,26.0604190826416,-0.4942750930786133,9.387151718139648,0.0,0.0,0.0,0.0,0.0,0.0,0.0,0.0,0.0,0.013851899653673172,0.05752689763903618,0.30794557929039,0.0,0.0,0.0,0.0,0.0,0.0,0.0,0.0,0.0
1606827828345142409,1812671,1606827828337101996,imu_link,0.08068786561489105,0.014260559342801571,0.22504958510398865,0.9708958864212036,0.0,0.0,0.0,0.0,0.0,0.0,0.0,0.0,0.0,26.060314178466797,-0.4942684769630432,9.387094497680664,0.0,0.0,0.0,0.0,0.0,0.0,0.0,0.0,0.0,0.00695418193936348,0.05323217064142227,0.32886871695518494,0.0,0.0,0.0,0.0,0.0,0.0,0.0,0.0,0.0
1606827828345190056,1812672,1606827828337210750,imu_link,0.08068786561489105,0.014260559342801571,0.22504958510398865,0.9708958864212036,0.0,0.0,0.0,0.0,0.0,0.0,0.0,0.0,0.0,26.060314178466797,-0.4942684769630432,9.387094497680664,0.0,0.0,0.0,0.0,0.0,0.0,0.0,0.0,0.0,0.00695418193936348,0.05323217064142227,0.32886871695518494,0.0,0.0,0.0,0.0,0.0,0.0,0.0,0.0,0.0
1606827828346588009,1812673,1606827828337432669,imu_link,0.08068860322237015,0.014261433854699135,0.22505339980125427,0.9708949327468872,0.0,0.0,0.0,0.0,0.0,0.0,0.0,0.0,0.0,26.060771942138672,-0.49422696232795715,9.387198448181152,0.0,0.0,0.0,0.0,0.0,0.0,0.0,0.0,0.0,-0.008459682576358318,0.04386718571186066,0.32715773582458496,0.0,0.0,0.0,0.0,0.0,0.0,0.0,0.0,0.0
1606827828346601955,1812674,1606827828337550814,imu_link,0.08068860322237015,0.014261433854699135,0.22505339980125427,0.9708949327468872,0.0,0.0,0.0,0.0,0.0,0.0,0.0,0.0,0.0,26.060771942138672,-0.49422696232795715,9.387198448181152,0.0,0.0,0.0,0.0,0.0,0.0,0.0,0.0,0.0,-0.008459682576358318,0.04386718571186066,0.32715773582458496,0.0,0.0,0.0,0.0,0.0,0.0,0.0,0.0,0.0
1606827828346611818,1812675,1606827828337672878,imu_link,0.08068810403347015,0.014261960983276367,0.22505471110343933,0.9708946943283081,0.0,0.0,0.0,0.0,0.0,0.0,0.0,0.0,0.0,26.060928344726562,-0.4941680431365967,9.387155532836914,0.0,0.0,0.0,0.0,0.0,0.0,0.0,0.0,0.0,0.007710101082921028,0.053872160613536835,0.30225837230682373,0.0,0.0,0.0,0.0,0.0,0.0,0.0,0.0,0.0
1606827828361140760,1812676,1606827828350116115,imu_link,0.08068810403347015,0.014261960983276367,0.22505471110343933,0.9708946943283081,0.0,0.0,0.0,0.0,0.0,0.0,0.0,0.0,0.0,26.060928344726562,-0.4941680431365967,9.387155532836914,0.0,0.0,0.0,0.0,0.0,0.0,0.0,0.0,0.0,0.007710101082921028,0.053872160613536835,0.30225837230682373,0.0,0.0,0.0,0.0,0.0,0.0,0.0,0.0,0.0
1606827828361170773,1812677,1606827828350284811,imu_link,0.08068735897541046,0.014262285083532333,0.22505749762058258,0.9708940982818604,0.0,0.0,0.0,0.0,0.0,0.0,0.0,0.0,0.0,26.061256408691406,-0.49413934350013733,9.387079238891602,0.0,0.0,0.0,0.0,0.0,0.0,0.0,0.0,0.0,0.01313948817551136,0.06519495695829391,0.3074662387371063,0.0,0.0,0.0,0.0,0.0,0.0,0.0,0.0,0.0
1606827828361182910,1812678,1606827828350422707,imu_link,0.08068735897541046,0.014262285083532333,0.22505749762058258,0.9708940982818604,0.0,0.0,0.0,0.0,0.0,0.0,0.0,0.0,0.0,26.061256408691406,-0.49413934350013733,9.387079238891602,0.0,0.0,0.0,0.0,0.0,0.0,0.0,0.0,0.0,0.01313948817551136,0.06519495695829391,0.3074662387371063,0.0,0.0,0.0,0.0,0.0,0.0,0.0,0.0,0.0
1606827828361196510,1812679,1606827828350573147,imu_link,0.08068650960922241,0.014261165633797646,0.22505787014961243,0.9708940982818604,0.0,0.0,0.0,0.0,0.0,0.0,0.0,0.0,0.0,26.06129264831543,-0.4942455291748047,9.386955261230469,0.0,0.0,0.0,0.0,0.0,0.0,0.0,0.0,0.0,0.0046959733590483665,0.061778392642736435,0.32763513922691345,0.0,0.0,0.0,0.0,0.0,0.0,0.0,0.0,0.0
1606827828361209517,1812680,1606827828350726346,imu_link,0.08068650960922241,0.014261165633797646,0.22505787014961243,0.9708940982818604,0.0,0.0,0.0,0.0,0.0,0.0,0.0,0.0,0.0,26.06129264831543,-0.4942455291748047,9.386955261230469,0.0,0.0,0.0,0.0,0.0,0.0,0.0,0.0,0.0,0.0046959733590483665,0.061778392642736435,0.32763513922691345,0.0,0.0,0.0,0.0,0.0,0.0,0.0,0.0,0.0
1606827828361602136,1812681,1606827828350865391,imu_link,0.08068420737981796,0.014259629882872105,0.2250615954399109,0.9708935022354126,0.0,0.0,0.0,0.0,0.0,0.0,0.0,0.0,0.0,26.061716079711914,-0.49439239501953125,9.386653900146484,0.0,0.0,0.0,0.0,0.0,0.0,0.0,0.0,0.0,0.0036039992701262236,0.06182548776268959,0.3369380831718445,0.0,0.0,0.0,0.0,0.0,0.0,0.0,0.0,0.0
1606827828361612682,1812682,1606827828351042195,imu_link,0.08068420737981796,0.014259629882872105,0.2250615954399109,0.9708935022354126,0.0,0.0,0.0,0.0,0.0,0.0,0.0,0.0,0.0,26.061716079711914,-0.49439239501953125,9.386653900146484,0.0,0.0,0.0,0.0,0.0,0.0,0.0,0.0,0.0,0.0036039992701262236,0.06182548776268959,0.3369380831718445,0.0,0.0,0.0,0.0,0.0,0.0,0.0,0.0,0.0
1606827828361621309,1812683,1606827828351184452,imu_link,0.08068403601646423,0.014258991926908493,0.2250613123178482,0.9708935618400574,0.0,0.0,0.0,0.0,0.0,0.0,0.0,0.0,0.0,26.061676025390625,-0.4944562017917633,9.386619567871094,0.0,0.0,0.0,0.0,0.0,0.0,0.0,0.0,0.0,0.008485579863190651,0.05896775797009468,0.3319806456565857,0.0,0.0,0.0,0.0,0.0,0.0,0.0,0.0,0.0
1606827828361628107,1812684,1606827828351360739,imu_link,0.08068403601646423,0.014258991926908493,0.2250613123178482,0.9708935618400574,0.0,0.0,0.0,0.0,0.0,0.0,0.0,0.0,0.0,26.061676025390625,-0.4944562017917633,9.386619567871094,0.0,0.0,0.0,0.0,0.0,0.0,0.0,0.0,0.0,0.008485579863190651,0.05896775797009468,0.3319806456565857,0.0,0.0,0.0,0.0,0.0,0.0,0.0,0.0,0.0
1606827828366691865,1812685,1606827828351496372,imu_link,0.08068135380744934,0.01425877120345831,0.22506815195083618,0.9708921909332275,0.0,0.0,0.0,0.0,0.0,0.0,0.0,0.0,0.0,26.062475204467773,-0.49447712302207947,9.386309623718262,0.0,0.0,0.0,0.0,0.0,0.0,0.0,0.0,0.0,0.002691686851903796,0.044830597937107086,0.3353291153907776,0.0,0.0,0.0,0.0,0.0,0.0,0.0,0.0,0.0
1606827828366708834,1812686,1606827828351648990,imu_link,0.08068135380744934,0.01425877120345831,0.22506815195083618,0.9708921909332275,0.0,0.0,0.0,0.0,0.0,0.0,0.0,0.0,0.0,26.062475204467773,-0.49447712302207947,9.386309623718262,0.0,0.0,0.0,0.0,0.0,0.0,0.0,0.0,0.0,0.002691686851903796,0.044830597937107086,0.3353291153907776,0.0,0.0,0.0,0.0,0.0,0.0,0.0,0.0,0.0
1606827828371536738,1812687,1606827828363569938,imu_link,0.08068154007196426,0.014259292744100094,0.22506928443908691,0.9708918929100037,0.0,0.0,0.0,0.0,0.0,0.0,0.0,0.0,0.0,26.0626163482666,-0.4944348633289337,9.386343002319336,0.0,0.0,0.0,0.0,0.0,0.0,0.0,0.0,0.0,-0.007337285205721855,0.053988266736269,0.34230613708496094,0.0,0.0,0.0,0.0,0.0,0.0,0.0,0.0,0.0
1606827828373201434,1812688,1606827828363735957,imu_link,0.08068154007196426,0.014259292744100094,0.22506928443908691,0.9708918929100037,0.0,0.0,0.0,0.0,0.0,0.0,0.0,0.0,0.0,26.0626163482666,-0.4944348633289337,9.386343002319336,0.0,0.0,0.0,0.0,0.0,0.0,0.0,0.0,0.0,-0.007337285205721855,0.053988266736269,0.34230613708496094,0.0,0.0,0.0,0.0,0.0,0.0,0.0,0.0,0.0
1606827828373230962,1812689,1606827828363930415,imu_link,0.0806814506649971,0.014257787726819515,0.22507737576961517,0.9708900451660156,0.0,0.0,0.0,0.0,0.0,0.0,0.0,0.0,0.0,26.063547134399414,-0.49467775225639343,9.38629150390625,0.0,0.0,0.0,0.0,0.0,0.0,0.0,0.0,0.0,0.00013535842299461365,0.057108353823423386,0.3150086998939514,0.0,0.0,0.0,0.0,0.0,0.0,0.0,0.0,0.0
1606827828373248725,1812690,1606827828364124294,imu_link,0.0806814506649971,0.014257787726819515,0.22507737576961517,0.9708900451660156,0.0,0.0,0.0,0.0,0.0,0.0,0.0,0.0,0.0,26.063547134399414,-0.49467775225639343,9.38629150390625,0.0,0.0,0.0,0.0,0.0,0.0,0.0,0.0,0.0,0.00013535842299461365,0.057108353823423386,0.3150086998939514,0.0,0.0,0.0,0.0,0.0,0.0,0.0,0.0,0.0
1606827828373273362,1812691,1606827828364274831,imu_link,0.08068153262138367,0.014257170259952545,0.2250792533159256,0.9708896279335022,0.0,0.0,0.0,0.0,0.0,0.0,0.0,0.0,0.0,26.063762664794922,-0.4947667717933655,9.386283874511719,0.0,0.0,0.0,0.0,0.0,0.0,0.0,0.0,0.0,0.0034185226541012526,0.061554692685604095,0.2892753779888153,0.0,0.0,0.0,0.0,0.0,0.0,0.0,0.0,0.0
1606827828373329988,1812692,1606827828364461886,imu_link,0.08068153262138367,0.014257170259952545,0.2250792533159256,0.9708896279335022,0.0,0.0,0.0,0.0,0.0,0.0,0.0,0.0,0.0,26.063762664794922,-0.4947667717933655,9.386283874511719,0.0,0.0,0.0,0.0,0.0,0.0,0.0,0.0,0.0,0.0034185226541012526,0.061554692685604095,0.2892753779888153,0.0,0.0,0.0,0.0,0.0,0.0,0.0,0.0,0.0
1606827828373352186,1812693,1606827828364622189,imu_link,0.08067993819713593,0.014255992136895657,0.22508609294891357,0.9708881974220276,0.0,0.0,0.0,0.0,0.0,0.0,0.0,0.0,0.0,26.06455421447754,-0.4949221611022949,9.386070251464844,0.0,0.0,0.0,0.0,0.0,0.0,0.0,0.0,0.0,0.0068766651675105095,0.07455115020275116,0.30400651693344116,0.0,0.0,0.0,0.0,0.0,0.0,0.0,0.0,0.0
1606827828373371442,1812694,1606827828364790547,imu_link,0.08067993819713593,0.014255992136895657,0.22508609294891357,0.9708881974220276,0.0,0.0,0.0,0.0,0.0,0.0,0.0,0.0,0.0,26.06455421447754,-0.4949221611022949,9.386070251464844,0.0,0.0,0.0,0.0,0.0,0.0,0.0,0.0,0.0,0.0068766651675105095,0.07455115020275116,0.30400651693344116,0.0,0.0,0.0,0.0,0.0,0.0,0.0,0.0,0.0
1606827828374647044,1812695,1606827828365052592,imu_link,0.08068128675222397,0.01425689086318016,0.225087970495224,0.9708876013755798,0.0,0.0,0.0,0.0,0.0,0.0,0.0,0.0,0.0,26.06478500366211,-0.49487540125846863,9.38624382019043,0.0,0.0,0.0,0.0,0.0,0.0,0.0,0.0,0.0,0.0016517459880560637,0.05872335657477379,0.34413883090019226,0.0,0.0,0.0,0.0,0.0,0.0,0.0,0.0,0.0
1606827828374659117,1812696,1606827828365195748,imu_link,0.08068128675222397,0.01425689086318016,0.225087970495224,0.9708876013755798,0.0,0.0,0.0,0.0,0.0,0.0,0.0,0.0,0.0,26.06478500366211,-0.49487540125846863,9.38624382019043,0.0,0.0,0.0,0.0,0.0,0.0,0.0,0.0,0.0,0.0016517459880560637,0.05872335657477379,0.34413883090019226,0.0,0.0,0.0,0.0,0.0,0.0,0.0,0.0,0.0
1606827828374679137,1812697,1606827828365372926,imu_link,0.08068044483661652,0.01425436232239008,0.22509042918682098,0.9708871245384216,0.0,0.0,0.0,0.0,0.0,0.0,0.0,0.0,0.0,26.065046310424805,-0.4951583743095398,9.386082649230957,0.0,0.0,0.0,0.0,0.0,0.0,0.0,0.0,0.0,0.00025815959088504314,0.03924960643053055,0.36990368366241455,0.0,0.0,0.0,0.0,0.0,0.0,0.0,0.0,0.0
1606827828385029685,1812698,1606827828377334115,imu_link,0.08068044483661652,0.01425436232239008,0.22509042918682098,0.9708871245384216,0.0,0.0,0.0,0.0,0.0,0.0,0.0,0.0,0.0,26.065046310424805,-0.4951583743095398,9.386082649230957,0.0,0.0,0.0,0.0,0.0,0.0,0.0,0.0,0.0,0.00025815959088504314,0.03924960643053055,0.36990368366241455,0.0,0.0,0.0,0.0,0.0,0.0,0.0,0.0,0.0
1606827828386665386,1812699,1606827828377450269,imu_link,0.08068197965621948,0.014254528097808361,0.22509130835533142,0.970886766910553,0.0,0.0,0.0,0.0,0.0,0.0,0.0,0.0,0.0,26.065153121948242,-0.4951883554458618,9.386260032653809,0.0,0.0,0.0,0.0,0.0,0.0,0.0,0.0,0.0,0.016190268099308014,0.043990254402160645,0.3532608151435852,0.0,0.0,0.0,0.0,0.0,0.0,0.0,0.0,0.0
1606827828386688685,1812700,1606827828377538739,imu_link,0.08068197965621948,0.014254528097808361,0.22509130835533142,0.970886766910553,0.0,0.0,0.0,0.0,0.0,0.0,0.0,0.0,0.0,26.065153121948242,-0.4951883554458618,9.386260032653809,0.0,0.0,0.0,0.0,0.0,0.0,0.0,0.0,0.0,0.016190268099308014,0.043990254402160645,0.3532608151435852,0.0,0.0,0.0,0.0,0.0,0.0,0.0,0.0,0.0
1606827828386697387,1812701,1606827828377640626,imu_link,0.08068529516458511,0.014260250143706799,0.22509224712848663,0.97088623046875,0.0,0.0,0.0,0.0,0.0,0.0,0.0,0.0,0.0,26.0653133392334,-0.49464669823646545,9.3867769241333,0.0,0.0,0.0,0.0,0.0,0.0,0.0,0.0,0.0,0.014776872470974922,0.047939483076334,0.3317728042602539,0.0,0.0,0.0,0.0,0.0,0.0,0.0,0.0,0.0
1606827828386704366,1812702,1606827828377757934,imu_link,0.08068529516458511,0.014260250143706799,0.22509224712848663,0.97088623046875,0.0,0.0,0.0,0.0,0.0,0.0,0.0,0.0,0.0,26.0653133392334,-0.49464669823646545,9.3867769241333,0.0,0.0,0.0,0.0,0.0,0.0,0.0,0.0,0.0,0.014776872470974922,0.047939483076334,0.3317728042602539,0.0,0.0,0.0,0.0,0.0,0.0,0.0,0.0,0.0
1606827828386717396,1812703,1606827828377922436,imu_link,0.0806814432144165,0.014260225929319859,0.22509180009365082,0.9708866477012634,0.0,0.0,0.0,0.0,0.0,0.0,0.0,0.0,0.0,26.065263748168945,-0.49454522132873535,9.386345863342285,0.0,0.0,0.0,0.0,0.0,0.0,0.0,0.0,0.0,0.010602792724967003,0.037843257188797,0.34155651926994324,0.0,0.0,0.0,0.0,0.0,0.0,0.0,0.0,0.0
1606827828386732987,1812704,1606827828378044739,imu_link,0.0806814432144165,0.014260225929319859,0.22509180009365082,0.9708866477012634,0.0,0.0,0.0,0.0,0.0,0.0,0.0,0.0,0.0,26.065263748168945,-0.49454522132873535,9.386345863342285,0.0,0.0,0.0,0.0,0.0,0.0,0.0,0.0,0.0,0.010602792724967003,0.037843257188797,0.34155651926994324,0.0,0.0,0.0,0.0,0.0,0.0,0.0,0.0,0.0
1606827828386760770,1812705,1606827828378152078,imu_link,0.08068305253982544,0.014262198470532894,0.22508883476257324,0.9708871841430664,0.0,0.0,0.0,0.0,0.0,0.0,0.0,0.0,0.0,26.064931869506836,-0.4943389296531677,9.386579513549805,0.0,0.0,0.0,0.0,0.0,0.0,0.0,0.0,0.0,-0.002771354280412197,0.037067048251628876,0.3587135076522827,0.0,0.0,0.0,0.0,0.0,0.0,0.0,0.0,0.0
1606827828386777541,1812706,1606827828378254497,imu_link,0.08068305253982544,0.014262198470532894,0.22508883476257324,0.9708871841430664,0.0,0.0,0.0,0.0,0.0,0.0,0.0,0.0,0.0,26.064931869506836,-0.4943389296531677,9.386579513549805,0.0,0.0,0.0,0.0,0.0,0.0,0.0,0.0,0.0,-0.002771354280412197,0.037067048251628876,0.3587135076522827,0.0,0.0,0.0,0.0,0.0,0.0,0.0,0.0,0.0
1606827828387510305,1812707,1606827828378348431,imu_link,0.0806841105222702,0.01426165085285902,0.2250892072916031,0.9708870053291321,0.0,0.0,0.0,0.0,0.0,0.0,0.0,0.0,0.0,26.064970016479492,-0.49443089962005615,9.386682510375977,0.0,0.0,0.0,0.0,0.0,0.0,0.0,0.0,0.0,-0.005235981661826372,0.04849900305271149,0.33201873302459717,0.0,0.0,0.0,0.0,0.0,0.0,0.0,0.0,0.0
1606827828387522725,1812708,1606827828378439129,imu_link,0.0806841105222702,0.01426165085285902,0.2250892072916031,0.9708870053291321,0.0,0.0,0.0,0.0,0.0,0.0,0.0,0.0,0.0,26.064970016479492,-0.49443089962005615,9.386682510375977,0.0,0.0,0.0,0.0,0.0,0.0,0.0,0.0,0.0,-0.005235981661826372,0.04849900305271149,0.33201873302459717,0.0,0.0,0.0,0.0,0.0,0.0,0.0,0.0,0.0
1606827828408986197,1812709,1606827828390837514,imu_link,0.08068624883890152,0.014259453862905502,0.22508525848388672,0.9708877801895142,0.0,0.0,0.0,0.0,0.0,0.0,0.0,0.0,0.0,26.064489364624023,-0.4946928024291992,9.386866569519043,0.0,0.0,0.0,0.0,0.0,0.0,0.0,0.0,0.0,0.022734906524419785,0.0618533119559288,0.2898890972137451,0.0,0.0,0.0,0.0,0.0,0.0,0.0,0.0,0.0
1606827828421596444,1812710,1606827828390987431,imu_link,0.08068624883890152,0.014259453862905502,0.22508525848388672,0.9708877801895142,0.0,0.0,0.0,0.0,0.0,0.0,0.0,0.0,0.0,26.064489364624023,-0.4946928024291992,9.386866569519043,0.0,0.0,0.0,0.0,0.0,0.0,0.0,0.0,0.0,0.022734906524419785,0.0618533119559288,0.2898890972137451,0.0,0.0,0.0,0.0,0.0,0.0,0.0,0.0,0.0
1606827828421628810,1812711,1606827828391107633,imu_link,0.0806858018040657,0.014258099719882011,0.2250867784023285,0.9708874821662903,0.0,0.0,0.0,0.0,0.0,0.0,0.0,0.0,0.0,26.064653396606445,-0.4948465824127197,9.386781692504883,0.0,0.0,0.0,0.0,0.0,0.0,0.0,0.0,0.0,0.024363644421100616,0.056987375020980835,0.3034747838973999,0.0,0.0,0.0,0.0,0.0,0.0,0.0,0.0,0.0
1606827828421643161,1812712,1606827828391262582,imu_link,0.0806858018040657,0.014258099719882011,0.2250867784023285,0.9708874821662903,0.0,0.0,0.0,0.0,0.0,0.0,0.0,0.0,0.0,26.064653396606445,-0.4948465824127197,9.386781692504883,0.0,0.0,0.0,0.0,0.0,0.0,0.0,0.0,0.0,0.024363644421100616,0.056987375020980835,0.3034747838973999,0.0,0.0,0.0,0.0,0.0,0.0,0.0,0.0,0.0
1606827828421662776,1812713,1606827828391451835,imu_link,0.08068372309207916,0.01426262129098177,0.2250838279724121,0.9708881974220276,0.0,0.0,0.0,0.0,0.0,0.0,0.0,0.0,0.0,26.06435203552246,-0.4942614436149597,9.38666820526123,0.0,0.0,0.0,0.0,0.0,0.0,0.0,0.0,0.0,-0.013994913548231125,0.06798502057790756,0.3296908438205719,0.0,0.0,0.0,0.0,0.0,0.0,0.0,0.0,0.0
1606827828421706416,1812714,1606827828391614210,imu_link,0.08068372309207916,0.01426262129098177,0.2250838279724121,0.9708881974220276,0.0,0.0,0.0,0.0,0.0,0.0,0.0,0.0,0.0,26.06435203552246,-0.4942614436149597,9.38666820526123,0.0,0.0,0.0,0.0,0.0,0.0,0.0,0.0,0.0,-0.013994913548231125,0.06798502057790756,0.3296908438205719,0.0,0.0,0.0,0.0,0.0,0.0,0.0,0.0,0.0
1606827828421731687,1812715,1606827828391739038,imu_link,0.08068418502807617,0.014262394979596138,0.22508405148983002,0.9708881974220276,0.0,0.0,0.0,0.0,0.0,0.0,0.0,0.0,0.0,26.064373016357422,-0.4943004846572876,9.386712074279785,0.0,0.0,0.0,0.0,0.0,0.0,0.0,0.0,0.0,-0.025823276489973068,0.07673019170761108,0.32162848114967346,0.0,0.0,0.0,0.0,0.0,0.0,0.0,0.0,0.0
1606827828421792374,1812716,1606827828391866881,imu_link,0.08068418502807617,0.014262394979596138,0.22508405148983002,0.9708881974220276,0.0,0.0,0.0,0.0,0.0,0.0,0.0,0.0,0.0,26.064373016357422,-0.4943004846572876,9.386712074279785,0.0,0.0,0.0,0.0,0.0,0.0,0.0,0.0,0.0,-0.025823276489973068,0.07673019170761108,0.32162848114967346,0.0,0.0,0.0,0.0,0.0,0.0,0.0,0.0,0.0
1606827828421805269,1812717,1606827828391994977,imu_link,0.08068349212408066,0.014254939742386341,0.22508405148983002,0.9708883166313171,0.0,0.0,0.0,0.0,0.0,0.0,0.0,0.0,0.0,26.064302444458008,-0.4951117932796478,9.386443138122559,0.0,0.0,0.0,0.0,0.0,0.0,0.0,0.0,0.0,-0.014403682202100754,0.04684631526470184,0.31334373354911804,0.0,0.0,0.0,0.0,0.0,0.0,0.0,0.0,0.0
1606827828421854647,1812718,1606827828392115283,imu_link,0.08068349212408066,0.014254939742386341,0.22508405148983002,0.9708883166313171,0.0,0.0,0.0,0.0,0.0,0.0,0.0,0.0,0.0,26.064302444458008,-0.4951117932796478,9.386443138122559,0.0,0.0,0.0,0.0,0.0,0.0,0.0,0.0,0.0,-0.014403682202100754,0.04684631526470184,0.31334373354911804,0.0,0.0,0.0,0.0,0.0,0.0,0.0,0.0,0.0
1606827828421882229,1812719,1606827828392240516,imu_link,0.0806829184293747,0.014256607741117477,0.2250845581293106,0.9708882570266724,0.0,0.0,0.0,0.0,0.0,0.0,0.0,0.0,0.0,26.06437873840332,-0.49491629004478455,9.386422157287598,0.0,0.0,0.0,0.0,0.0,0.0,0.0,0.0,0.0,-0.009845210239291191,0.032146502286195755,0.32590001821517944,0.0,0.0,0.0,0.0,0.0,0.0,0.0,0.0,0.0
1606827828421963100,1812720,1606827828403683283,imu_link,0.0806829184293747,0.014256607741117477,0.2250845581293106,0.9708882570266724,0.0,0.0,0.0,0.0,0.0,0.0,0.0,0.0,0.0,26.06437873840332,-0.49491629004478455,9.386422157287598,0.0,0.0,0.0,0.0,0.0,0.0,0.0,0.0,0.0,-0.009845210239291191,0.032146502286195755,0.32590001821517944,0.0,0.0,0.0,0.0,0.0,0.0,0.0,0.0,0.0
1606827828422021925,1812721,1606827828403829661,imu_link,0.08068802207708359,0.014256986789405346,0.2250877022743225,0.9708871245384216,0.0,0.0,0.0,0.0,0.0,0.0,0.0,0.0,0.0,26.064748764038086,-0.49503666162490845,9.38700008392334,0.0,0.0,0.0,0.0,0.0,0.0,0.0,0.0,0.0,-0.009259015321731567,0.04536056891083717,0.3369770348072052,0.0,0.0,0.0,0.0,0.0,0.0,0.0,0.0,0.0
1606827828422056813,1812722,1606827828403951642,imu_link,0.08068802207708359,0.014256986789405346,0.2250877022743225,0.9708871245384216,0.0,0.0,0.0,0.0,0.0,0.0,0.0,0.0,0.0,26.064748764038086,-0.49503666162490845,9.38700008392334,0.0,0.0,0.0,0.0,0.0,0.0,0.0,0.0,0.0,-0.009259015321731567,0.04536056891083717,0.3369770348072052,0.0,0.0,0.0,0.0,0.0,0.0,0.0,0.0,0.0
