%time,field.header.seq,field.header.stamp,field.header.frame_id,field.orientation.x,field.orientation.y,field.orientation.z,field.orientation.w,field.orientation_covariance0,field.orientation_covariance1,field.orientation_covariance2,field.orientation_covariance3,field.orientation_covariance4,field.orientation_covariance5,field.orientation_covariance6,field.orientation_covariance7,field.orientation_covariance8,field.angular_velocity.x,field.angular_velocity.y,field.angular_velocity.z,field.angular_velocity_covariance0,field.angular_velocity_covariance1,field.angular_velocity_covariance2,field.angular_velocity_covariance3,field.angular_velocity_covariance4,field.angular_velocity_covariance5,field.angular_velocity_covariance6,field.angular_velocity_covariance7,field.angular_velocity_covariance8,field.linear_acceleration.x,field.linear_acceleration.y,field.linear_acceleration.z,field.linear_acceleration_covariance0,field.linear_acceleration_covariance1,field.linear_acceleration_covariance2,field.linear_acceleration_covariance3,field.linear_acceleration_covariance4,field.linear_acceleration_covariance5,field.linear_acceleration_covariance6,field.linear_acceleration_covariance7,field.linear_acceleration_covariance8
1606828568771146942,2404999,1606828568759169112,imu_link,-0.07293853908777237,-0.0226706825196743,0.16572050750255585,0.9832104444503784,0.0,0.0,0.0,0.0,0.0,0.0,0.0,0.0,0.0,19.223377227783203,-1.1692173480987549,-8.683333396911621,0.0,0.0,0.0,0.0,0.0,0.0,0.0,0.0,0.0,0.016448931768536568,-0.04906504601240158,0.32673439383506775,0.0,0.0,0.0,0.0,0.0,0.0,0.0,0.0,0.0
1606828568771173378,2405000,1606828568759415566,imu_link,-0.07293853908777237,-0.0226706825196743,0.16572050750255585,0.9832104444503784,0.0,0.0,0.0,0.0,0.0,0.0,0.0,0.0,0.0,19.223377227783203,-1.1692173480987549,-8.683333396911621,0.0,0.0,0.0,0.0,0.0,0.0,0.0,0.0,0.0,0.016448931768536568,-0.04906504601240158,0.32673439383506775,0.0,0.0,0.0,0.0,0.0,0.0,0.0,0.0,0.0
1606828568771185336,2405001,1606828568759599511,imu_link,-0.07293755561113358,-0.02266811951994896,0.16573067009449005,0.9832088351249695,0.0,0.0,0.0,0.0,0.0,0.0,0.0,0.0,0.0,19.224531173706055,-1.168858289718628,-8.683185577392578,0.0,0.0,0.0,0.0,0.0,0.0,0.0,0.0,0.0,-0.006294815335422754,-0.04928411543369293,0.34501394629478455,0.0,0.0,0.0,0.0,0.0,0.0,0.0,0.0,0.0
1606828568771208183,2405002,1606828568759747572,imu_link,-0.07293755561113358,-0.02266811951994896,0.16573067009449005,0.9832088351249695,0.0,0.0,0.0,0.0,0.0,0.0,0.0,0.0,0.0,19.224531173706055,-1.168858289718628,-8.683185577392578,0.0,0.0,0.0,0.0,0.0,0.0,0.0,0.0,0.0,-0.006294815335422754,-0.04928411543369293,0.34501394629478455,0.0,0.0,0.0,0.0,0.0,0.0,0.0,0.0,0.0
1606828568771224792,2405003,1606828568759888122,imu_link,-0.07293811440467834,-0.02266869880259037,0.16573122143745422,0.9832087159156799,0.0,0.0,0.0,0.0,0.0,0.0,0.0,0.0,0.0,19.22460174560547,-1.1689079999923706,-8.683259010314941,0.0,0.0,0.0,0.0,0.0,0.0,0.0,0.0,0.0,-0.0030834535136818886,-0.034891191869974136,0.33804944157600403,0.0,0.0,0.0,0.0,0.0,0.0,0.0,0.0,0.0
1606828568771236875,2405004,1606828568760075815,imu_link,-0.07293811440467834,-0.02266869880259037,0.16573122143745422,0.9832087159156799,0.0,0.0,0.0,0.0,0.0,0.0,0.0,0.0,0.0,19.22460174560547,-1.1689079999923706,-8.683259010314941,0.0,0.0,0.0,0.0,0.0,0.0,0.0,0.0,0.0,-0.0030834535136818886,-0.034891191869974136,0.33804944157600403,0.0,0.0,0.0,0.0,0.0,0.0,0.0,0.0,0.0
1606828568771249826,2405005,1606828568760233308,imu_link,-0.07294043153524399,-0.02267061360180378,0.1657426506280899,0.9832066297531128,0.0,0.0,0.0,0.0,0.0,0.0,0.0,0.0,0.0,19.22594451904297,-1.1689789295196533,-8.683572769165039,0.0,0.0,0.0,0.0,0.0,0.0,0.0,0.0,0.0,0.006435571238398552,-0.02658718451857567,0.3326427638530731,0.0,0.0,0.0,0.0,0.0,0.0,0.0,0.0,0.0
1606828568771262488,2405006,1606828568760405140,imu_link,-0.07294043153524399,-0.02267061360180378,0.1657426506280899,0.9832066297531128,0.0,0.0,0.0,0.0,0.0,0.0,0.0,0.0,0.0,19.22594451904297,-1.1689789295196533,-8.683572769165039,0.0,0.0,0.0,0.0,0.0,0.0,0.0,0.0,0.0,0.006435571238398552,-0.02658718451857567,0.3326427638530731,0.0,0.0,0.0,0.0,0.0,0.0,0.0,0.0,0.0
1606828568772340913,2405007,1606828568760560158,imu_link,-0.07294037938117981,-0.022670870646834373,0.16574014723300934,0.9832070469856262,0.0,0.0,0.0,0.0,0.0,0.0,0.0,0.0,0.0,19.225656509399414,-1.1690306663513184,-8.683568954467773,0.0,0.0,0.0,0.0,0.0,0.0,0.0,0.0,0.0,0.012197321280837059,-0.039100877940654755,0.32520222663879395,0.0,0.0,0.0,0.0,0.0,0.0,0.0,0.0,0.0
1606828568772357383,2405008,1606828568760710455,imu_link,-0.07294037938117981,-0.022670870646834373,0.16574014723300934,0.9832070469856262,0.0,0.0,0.0,0.0,0.0,0.0,0.0,0.0,0.0,19.225656509399414,-1.1690306663513184,-8.683568954467773,0.0,0.0,0.0,0.0,0.0,0.0,0.0,0.0,0.0,0.012197321280837059,-0.039100877940654755,0.32520222663879395,0.0,0.0,0.0,0.0,0.0,0.0,0.0,0.0,0.0
1606828568772363498,2405009,1606828568760879550,imu_link,-0.07294158637523651,-0.022671643644571304,0.1657426357269287,0.9832064509391785,0.0,0.0,0.0,0.0,0.0,0.0,0.0,0.0,0.0,19.225954055786133,-1.1690725088119507,-8.683723449707031,0.0,0.0,0.0,0.0,0.0,0.0,0.0,0.0,0.0,0.009007647633552551,-0.06160106882452965,0.33446547389030457,0.0,0.0,0.0,0.0,0.0,0.0,0.0,0.0,0.0
1606828568781307520,2405010,1606828568772166960,imu_link,-0.07294158637523651,-0.022671643644571304,0.1657426357269287,0.9832064509391785,0.0,0.0,0.0,0.0,0.0,0.0,0.0,0.0,0.0,19.225954055786133,-1.1690725088119507,-8.683723449707031,0.0,0.0,0.0,0.0,0.0,0.0,0.0,0.0,0.0,0.009007647633552551,-0.06160106882452965,0.33446547389030457,0.0,0.0,0.0,0.0,0.0,0.0,0.0,0.0,0.0
1606828568782634793,2405011,1606828568772321079,imu_link,-0.07294023036956787,-0.02267245575785637,0.16574135422706604,0.9832067489624023,0.0,0.0,0.0,0.0,0.0,0.0,0.0,0.0,0.0,19.225811004638672,-1.1692012548446655,-8.683584213256836,0.0,0.0,0.0,0.0,0.0,0.0,0.0,0.0,0.0,0.00400676392018795,-0.06271122395992279,0.33705177903175354,0.0,0.0,0.0,0.0,0.0,0.0,0.0,0.0,0.0
1606828568782665376,2405012,1606828568772437744,imu_link,-0.07294023036956787,-0.02267245575785637,0.16574135422706604,0.9832067489624023,0.0,0.0,0.0,0.0,0.0,0.0,0.0,0.0,0.0,19.225811004638672,-1.1692012548446655,-8.683584213256836,0.0,0.0,0.0,0.0,0.0,0.0,0.0,0.0,0.0,0.00400676392018795,-0.06271122395992279,0.33705177903175354,0.0,0.0,0.0,0.0,0.0,0.0,0.0,0.0,0.0
1606828568782686050,2405013,1606828568772606570,imu_link,-0.07293788343667984,-0.022672517225146294,0.16574421525001526,0.9832064509391785,0.0,0.0,0.0,0.0,0.0,0.0,0.0,0.0,0.0,19.226139068603516,-1.169227957725525,-8.683323860168457,0.0,0.0,0.0,0.0,0.0,0.0,0.0,0.0,0.0,0.0038425778038799763,-0.05982165038585663,0.32119205594062805,0.0,0.0,0.0,0.0,0.0,0.0,0.0,0.0,0.0
1606828568782699084,2405014,1606828568772749889,imu_link,-0.07293788343667984,-0.022672517225146294,0.16574421525001526,0.9832064509391785,0.0,0.0,0.0,0.0,0.0,0.0,0.0,0.0,0.0,19.226139068603516,-1.169227957725525,-8.683323860168457,0.0,0.0,0.0,0.0,0.0,0.0,0.0,0.0,0.0,0.0038425778038799763,-0.05982165038585663,0.32119205594062805,0.0,0.0,0.0,0.0,0.0,0.0,0.0,0.0,0.0
1606828568782736956,2405015,1606828568772894952,imu_link,-0.07293657213449478,-0.022672228515148163,0.1657455712556839,0.9832063317298889,0.0,0.0,0.0,0.0,0.0,0.0,0.0,0.0,0.0,19.226293563842773,-1.1692087650299072,-8.6831693649292,0.0,0.0,0.0,0.0,0.0,0.0,0.0,0.0,0.0,0.018400564789772034,-0.057269733399152756,0.3290286958217621,0.0,0.0,0.0,0.0,0.0,0.0,0.0,0.0,0.0
1606828568782768421,2405016,1606828568773010811,imu_link,-0.07293657213449478,-0.022672228515148163,0.1657455712556839,0.9832063317298889,0.0,0.0,0.0,0.0,0.0,0.0,0.0,0.0,0.0,19.226293563842773,-1.1692087650299072,-8.6831693649292,0.0,0.0,0.0,0.0,0.0,0.0,0.0,0.0,0.0,0.018400564789772034,-0.057269733399152756,0.3290286958217621,0.0,0.0,0.0,0.0,0.0,0.0,0.0,0.0,0.0
1606828568784563092,2405017,1606828568773146621,imu_link,-0.07293622195720673,-0.022670770063996315,0.16574349999427795,0.9832067489624023,0.0,0.0,0.0,0.0,0.0,0.0,0.0,0.0,0.0,19.226037979125977,-1.1690696477890015,-8.683099746704102,0.0,0.0,0.0,0.0,0.0,0.0,0.0,0.0,0.0,0.014186385087668896,-0.04483552649617195,0.3388393521308899,0.0,0.0,0.0,0.0,0.0,0.0,0.0,0.0,0.0
1606828568784586602,2405018,1606828568773281287,imu_link,-0.07293622195720673,-0.022670770063996315,0.16574349999427795,0.9832067489624023,0.0,0.0,0.0,0.0,0.0,0.0,0.0,0.0,0.0,19.226037979125977,-1.1690696477890015,-8.683099746704102,0.0,0.0,0.0,0.0,0.0,0.0,0.0,0.0,0.0,0.014186385087668896,-0.04483552649617195,0.3388393521308899,0.0,0.0,0.0,0.0,0.0,0.0,0.0,0.0,0.0
1606828568784595756,2405019,1606828568773402812,imu_link,-0.07293674349784851,-0.022672127932310104,0.16574537754058838,0.9832063317298889,0.0,0.0,0.0,0.0,0.0,0.0,0.0,0.0,0.0,19.226268768310547,-1.1691957712173462,-8.683186531066895,0.0,0.0,0.0,0.0,0.0,0.0,0.0,0.0,0.0,-0.019238010048866272,-0.053118377923965454,0.3536319434642792,0.0,0.0,0.0,0.0,0.0,0.0,0.0,0.0,0.0
1606828568795056628,2405020,1606828568785820497,imu_link,-0.07293674349784851,-0.022672127932310104,0.16574537754058838,0.9832063317298889,0.0,0.0,0.0,0.0,0.0,0.0,0.0,0.0,0.0,19.226268768310547,-1.1691957712173462,-8.683186531066895,0.0,0.0,0.0,0.0,0.0,0.0,0.0,0.0,0.0,-0.019238010048866272,-0.053118377923965454,0.3536319434642792,0.0,0.0,0.0,0.0,0.0,0.0,0.0,0.0,0.0
1606828568795973141,2405021,1606828568785961160,imu_link,-0.07293662428855896,-0.022677293047308922,0.16574165225028992,0.9832068681716919,0.0,0.0,0.0,0.0,0.0,0.0,0.0,0.0,0.0,19.22588539123535,-1.1698126792907715,-8.683270454406738,0.0,0.0,0.0,0.0,0.0,0.0,0.0,0.0,0.0,-0.00732090137898922,-0.0650310069322586,0.33566462993621826,0.0,0.0,0.0,0.0,0.0,0.0,0.0,0.0,0.0
1606828568796015602,2405022,1606828568786069895,imu_link,-0.07293662428855896,-0.022677293047308922,0.16574165225028992,0.9832068681716919,0.0,0.0,0.0,0.0,0.0,0.0,0.0,0.0,0.0,19.22588539123535,-1.1698126792907715,-8.683270454406738,0.0,0.0,0.0,0.0,0.0,0.0,0.0,0.0,0.0,-0.00732090137898922,-0.0650310069322586,0.33566462993621826,0.0,0.0,0.0,0.0,0.0,0.0,0.0,0.0,0.0
1606828568796037564,2405023,1606828568786210048,imu_link,-0.07293783873319626,-0.022677971050143242,0.16574004292488098,0.9832070469856262,0.0,0.0,0.0,0.0,0.0,0.0,0.0,0.0,0.0,19.225706100463867,-1.1698799133300781,-8.683419227600098,0.0,0.0,0.0,0.0,0.0,0.0,0.0,0.0,0.0,0.015784241259098053,-0.06829046458005905,0.30974406003952026,0.0,0.0,0.0,0.0,0.0,0.0,0.0,0.0,0.0
1606828568796047350,2405024,1606828568786342251,imu_link,-0.07293783873319626,-0.022677971050143242,0.16574004292488098,0.9832070469856262,0.0,0.0,0.0,0.0,0.0,0.0,0.0,0.0,0.0,19.225706100463867,-1.1698799133300781,-8.683419227600098,0.0,0.0,0.0,0.0,0.0,0.0,0.0,0.0,0.0,0.015784241259098053,-0.06829046458005905,0.30974406003952026,0.0,0.0,0.0,0.0,0.0,0.0,0.0,0.0,0.0
1606828568796059560,2405025,1606828568786469731,imu_link,-0.07293453067541122,-0.022674929350614548,0.16573122143745422,0.9832088351249695,0.0,0.0,0.0,0.0,0.0,0.0,0.0,0.0,0.0,19.224653244018555,-1.1696785688400269,-8.682973861694336,0.0,0.0,0.0,0.0,0.0,0.0,0.0,0.0,0.0,0.014858828857541084,-0.046920742839574814,0.3183523714542389,0.0,0.0,0.0,0.0,0.0,0.0,0.0,0.0,0.0
1606828568796078067,2405026,1606828568786620435,imu_link,-0.07293453067541122,-0.022674929350614548,0.16573122143745422,0.9832088351249695,0.0,0.0,0.0,0.0,0.0,0.0,0.0,0.0,0.0,19.224653244018555,-1.1696785688400269,-8.682973861694336,0.0,0.0,0.0,0.0,0.0,0.0,0.0,0.0,0.0,0.014858828857541084,-0.046920742839574814,0.3183523714542389,0.0,0.0,0.0,0.0,0.0,0.0,0.0,0.0,0.0
1606828568797424756,2405027,1606828568786749995,imu_link,-0.07293561846017838,-0.022676266729831696,0.16572943329811096,0.9832090139389038,0.0,0.0,0.0,0.0,0.0,0.0,0.0,0.0,0.0,19.224458694458008,-1.1698240041732788,-8.683121681213379,0.0,0.0,0.0,0.0,0.0,0.0,0.0,0.0,0.0,0.016757864505052567,-0.02138039842247963,0.3175780773162842,0.0,0.0,0.0,0.0,0.0,0.0,0.0,0.0,0.0
1606828568797454273,2405028,1606828568786867449,imu_link,-0.07293561846017838,-0.022676266729831696,0.16572943329811096,0.9832090139389038,0.0,0.0,0.0,0.0,0.0,0.0,0.0,0.0,0.0,19.224458694458008,-1.1698240041732788,-8.683121681213379,0.0,0.0,0.0,0.0,0.0,0.0,0.0,0.0,0.0,0.016757864505052567,-0.02138039842247963,0.3175780773162842,0.0,0.0,0.0,0.0,0.0,0.0,0.0,0.0,0.0
1606828568797463789,2405029,1606828568786982773,imu_link,-0.07294254004955292,-0.022674299776554108,0.16571931540966034,0.9832102656364441,0.0,0.0,0.0,0.0,0.0,0.0,0.0,0.0,0.0,19.22327423095703,-1.1695587635040283,-8.683855056762695,0.0,0.0,0.0,0.0,0.0,0.0,0.0,0.0,0.0,0.02798873744904995,-0.020742109045386314,0.3029111623764038,0.0,0.0,0.0,0.0,0.0,0.0,0.0,0.0,0.0
1606828568797472436,2405030,1606828568787093676,imu_link,-0.07294254004955292,-0.022674299776554108,0.16571931540966034,0.9832102656364441,0.0,0.0,0.0,0.0,0.0,0.0,0.0,0.0,0.0,19.22327423095703,-1.1695587635040283,-8.683855056762695,0.0,0.0,0.0,0.0,0.0,0.0,0.0,0.0,0.0,0.02798873744904995,-0.020742109045386314,0.3029111623764038,0.0,0.0,0.0,0.0,0.0,0.0,0.0,0.0,0.0
1606828568832765854,2405031,1606828568799374683,imu_link,-0.07294227182865143,-0.022675683721899986,0.1657194346189499,0.9832102656364441,0.0,0.0,0.0,0.0,0.0,0.0,0.0,0.0,0.0,19.22330093383789,-1.169718623161316,-8.683852195739746,0.0,0.0,0.0,0.0,0.0,0.0,0.0,0.0,0.0,0.0152359027415514,-0.038171377032995224,0.3045729398727417,0.0,0.0,0.0,0.0,0.0,0.0,0.0,0.0,0.0
1606828568832812018,2405032,1606828568799546252,imu_link,-0.07294227182865143,-0.022675683721899986,0.1657194346189499,0.9832102656364441,0.0,0.0,0.0,0.0,0.0,0.0,0.0,0.0,0.0,19.22330093383789,-1.169718623161316,-8.683852195739746,0.0,0.0,0.0,0.0,0.0,0.0,0.0,0.0,0.0,0.0152359027415514,-0.038171377032995224,0.3045729398727417,0.0,0.0,0.0,0.0,0.0,0.0,0.0,0.0,0.0
1606828568832845594,2405033,1606828568799678299,imu_link,-0.0729423388838768,-0.022675221785902977,0.16571426391601562,0.9832111597061157,0.0,0.0,0.0,0.0,0.0,0.0,0.0,0.0,0.0,19.22269630432129,-1.1697107553482056,-8.683844566345215,0.0,0.0,0.0,0.0,0.0,0.0,0.0,0.0,0.0,-0.005349013023078442,-0.053580719977617264,0.32078152894973755,0.0,0.0,0.0,0.0,0.0,0.0,0.0,0.0,0.0
1606828568832872665,2405034,1606828568799848849,imu_link,-0.0729423388838768,-0.022675221785902977,0.16571426391601562,0.9832111597061157,0.0,0.0,0.0,0.0,0.0,0.0,0.0,0.0,0.0,19.22269630432129,-1.1697107553482056,-8.683844566345215,0.0,0.0,0.0,0.0,0.0,0.0,0.0,0.0,0.0,-0.005349013023078442,-0.053580719977617264,0.32078152894973755,0.0,0.0,0.0,0.0,0.0,0.0,0.0,0.0,0.0
1606828568832894807,2405035,1606828568800006982,imu_link,-0.07294485718011856,-0.022676967084407806,0.1657133847475052,0.9832110404968262,0.0,0.0,0.0,0.0,0.0,0.0,0.0,0.0,0.0,19.22261619567871,-1.1698668003082275,-8.684163093566895,0.0,0.0,0.0,0.0,0.0,0.0,0.0,0.0,0.0,0.0007692808285355568,-0.05491951107978821,0.30995020270347595,0.0,0.0,0.0,0.0,0.0,0.0,0.0,0.0,0.0
1606828568832940409,2405036,1606828568800149151,imu_link,-0.07294485718011856,-0.022676967084407806,0.1657133847475052,0.9832110404968262,0.0,0.0,0.0,0.0,0.0,0.0,0.0,0.0,0.0,19.22261619567871,-1.1698668003082275,-8.684163093566895,0.0,0.0,0.0,0.0,0.0,0.0,0.0,0.0,0.0,0.0007692808285355568,-0.05491951107978821,0.30995020270347595,0.0,0.0,0.0,0.0,0.0,0.0,0.0,0.0,0.0
1606828568832965502,2405037,1606828568800314448,imu_link,-0.07294297963380814,-0.022679032757878304,0.16570889949798584,0.983211874961853,0.0,0.0,0.0,0.0,0.0,0.0,0.0,0.0,0.0,19.22211265563965,-1.1701750755310059,-8.683984756469727,0.0,0.0,0.0,0.0,0.0,0.0,0.0,0.0,0.0,-0.006211752071976662,-0.07115787267684937,0.2977488338947296,0.0,0.0,0.0,0.0,0.0,0.0,0.0,0.0,0.0
1606828568832982430,2405038,1606828568800452451,imu_link,-0.07294297963380814,-0.022679032757878304,0.16570889949798584,0.983211874961853,0.0,0.0,0.0,0.0,0.0,0.0,0.0,0.0,0.0,19.22211265563965,-1.1701750755310059,-8.683984756469727,0.0,0.0,0.0,0.0,0.0,0.0,0.0,0.0,0.0,-0.006211752071976662,-0.07115787267684937,0.2977488338947296,0.0,0.0,0.0,0.0,0.0,0.0,0.0,0.0,0.0
1606828568833021102,2405039,1606828568800588997,imu_link,-0.072942815721035,-0.022679781541228294,0.16570943593978882,0.9832117557525635,0.0,0.0,0.0,0.0,0.0,0.0,0.0,0.0,0.0,19.22218132019043,-1.170257568359375,-8.683981895446777,0.0,0.0,0.0,0.0,0.0,0.0,0.0,0.0,0.0,-0.015043623745441437,-0.0675143152475357,0.2896857261657715,0.0,0.0,0.0,0.0,0.0,0.0,0.0,0.0,0.0
1606828568833045184,2405040,1606828568800722126,imu_link,-0.072942815721035,-0.022679781541228294,0.16570943593978882,0.9832117557525635,0.0,0.0,0.0,0.0,0.0,0.0,0.0,0.0,0.0,19.22218132019043,-1.170257568359375,-8.683981895446777,0.0,0.0,0.0,0.0,0.0,0.0,0.0,0.0,0.0,-0.015043623745441437,-0.0675143152475357,0.2896857261657715,0.0,0.0,0.0,0.0,0.0,0.0,0.0,0.0,0.0
1606828568833054695,2405041,1606828568800853340,imu_link,-0.07293879985809326,-0.02268431894481182,0.16570305824279785,0.9832130074501038,0.0,0.0,0.0,0.0,0.0,0.0,0.0,0.0,0.0,19.221477508544922,-1.170901894569397,-8.68360710144043,0.0,0.0,0.0,0.0,0.0,0.0,0.0,0.0,0.0,-0.01395823061466217,-0.05133066326379776,0.31307539343833923,0.0,0.0,0.0,0.0,0.0,0.0,0.0,0.0,0.0
1606828568833066754,2405042,1606828568813185406,imu_link,-0.07293879985809326,-0.02268431894481182,0.16570305824279785,0.9832130074501038,0.0,0.0,0.0,0.0,0.0,0.0,0.0,0.0,0.0,19.221477508544922,-1.170901894569397,-8.68360710144043,0.0,0.0,0.0,0.0,0.0,0.0,0.0,0.0,0.0,-0.01395823061466217,-0.05133066326379776,0.31307539343833923,0.0,0.0,0.0,0.0,0.0,0.0,0.0,0.0,0.0
1606828568833073541,2405043,1606828568813356916,imu_link,-0.07293801009654999,-0.02268410101532936,0.16570019721984863,0.9832135438919067,0.0,0.0,0.0,0.0,0.0,0.0,0.0,0.0,0.0,19.221145629882812,-1.1709175109863281,-8.683509826660156,0.0,0.0,0.0,0.0,0.0,0.0,0.0,0.0,0.0,-0.010766394436359406,-0.05780835822224617,0.33234357833862305,0.0,0.0,0.0,0.0,0.0,0.0,0.0,0.0,0.0
1606828568833081559,2405044,1606828568813504997,imu_link,-0.07293801009654999,-0.02268410101532936,0.16570019721984863,0.9832135438919067,0.0,0.0,0.0,0.0,0.0,0.0,0.0,0.0,0.0,19.221145629882812,-1.1709175109863281,-8.683509826660156,0.0,0.0,0.0,0.0,0.0,0.0,0.0,0.0,0.0,-0.010766394436359406,-0.05780835822224617,0.33234357833862305,0.0,0.0,0.0,0.0,0.0,0.0,0.0,0.0,0.0
1606828568833217828,2405045,1606828568813652617,imu_link,-0.07293348759412766,-0.022687895223498344,0.1656959503889084,0.9832145571708679,0.0,0.0,0.0,0.0,0.0,0.0,0.0,0.0,0.0,19.22068214416504,-1.1714690923690796,-8.683066368103027,0.0,0.0,0.0,0.0,0.0,0.0,0.0,0.0,0.0,0.009272096678614616,-0.04859430342912674,0.3295896053314209,0.0,0.0,0.0,0.0,0.0,0.0,0.0,0.0,0.0
1606828568833246693,2405046,1606828568813792127,imu_link,-0.07293348759412766,-0.022687895223498344,0.1656959503889084,0.9832145571708679,0.0,0.0,0.0,0.0,0.0,0.0,0.0,0.0,0.0,19.22068214416504,-1.1714690923690796,-8.683066368103027,0.0,0.0,0.0,0.0,0.0,0.0,0.0,0.0,0.0,0.009272096678614616,-0.04859430342912674,0.3295896053314209,0.0,0.0,0.0,0.0,0.0,0.0,0.0,0.0,0.0
1606828568833261901,2405047,1606828568813937559,imu_link,-0.07293392717838287,-0.022686732932925224,0.16569414734840393,0.9832148551940918,0.0,0.0,0.0,0.0,0.0,0.0,0.0,0.0,0.0,19.220462799072266,-1.171345829963684,-8.683091163635254,0.0,0.0,0.0,0.0,0.0,0.0,0.0,0.0,0.0,0.0018004444427788258,-0.037835218012332916,0.3535112738609314,0.0,0.0,0.0,0.0,0.0,0.0,0.0,0.0,0.0
1606828568833271521,2405048,1606828568814120605,imu_link,-0.07293392717838287,-0.022686732932925224,0.16569414734840393,0.9832148551940918,0.0,0.0,0.0,0.0,0.0,0.0,0.0,0.0,0.0,19.220462799072266,-1.171345829963684,-8.683091163635254,0.0,0.0,0.0,0.0,0.0,0.0,0.0,0.0,0.0,0.0018004444427788258,-0.037835218012332916,0.3535112738609314,0.0,0.0,0.0,0.0,0.0,0.0,0.0,0.0,0.0
1606828568835793836,2405049,1606828568814259199,imu_link,-0.07293612509965897,-0.022688860073685646,0.16570262610912323,0.9832132458686829,0.0,0.0,0.0,0.0,0.0,0.0,0.0,0.0,0.0,19.221466064453125,-1.1714686155319214,-8.683390617370605,0.0,0.0,0.0,0.0,0.0,0.0,0.0,0.0,0.0,-0.0030784192495048046,-0.04499223828315735,0.35619083046913147,0.0,0.0,0.0,0.0,0.0,0.0,0.0,0.0,0.0
1606828568835831959,2405050,1606828568814397746,imu_link,-0.07293612509965897,-0.022688860073685646,0.16570262610912323,0.9832132458686829,0.0,0.0,0.0,0.0,0.0,0.0,0.0,0.0,0.0,19.221466064453125,-1.1714686155319214,-8.683390617370605,0.0,0.0,0.0,0.0,0.0,0.0,0.0,0.0,0.0,-0.0030784192495048046,-0.04499223828315735,0.35619083046913147,0.0,0.0,0.0,0.0,0.0,0.0,0.0,0.0,0.0
1606828568835854047,2405051,1606828568814535736,imu_link,-0.07293513417243958,-0.02269037440419197,0.16570274531841278,0.9832132458686829,0.0,0.0,0.0,0.0,0.0,0.0,0.0,0.0,0.0,19.221492767333984,-1.1716569662094116,-8.683306694030762,0.0,0.0,0.0,0.0,0.0,0.0,0.0,0.0,0.0,-0.008987565524876118,-0.05144444480538368,0.34292733669281006,0.0,0.0,0.0,0.0,0.0,0.0,0.0,0.0,0.0
1606828568835867830,2405052,1606828568814669502,imu_link,-0.07293513417243958,-0.02269037440419197,0.16570274531841278,0.9832132458686829,0.0,0.0,0.0,0.0,0.0,0.0,0.0,0.0,0.0,19.221492767333984,-1.1716569662094116,-8.683306694030762,0.0,0.0,0.0,0.0,0.0,0.0,0.0,0.0,0.0,-0.008987565524876118,-0.05144444480538368,0.34292733669281006,0.0,0.0,0.0,0.0,0.0,0.0,0.0,0.0,0.0
1606828568835879835,2405053,1606828568826569129,imu_link,-0.07293450832366943,-0.022694464772939682,0.1657131314277649,0.9832114577293396,0.0,0.0,0.0,0.0,0.0,0.0,0.0,0.0,0.0,19.222734451293945,-1.1720383167266846,-8.683329582214355,0.0,0.0,0.0,0.0,0.0,0.0,0.0,0.0,0.0,-0.001707714982330799,-0.04486847296357155,0.32509803771972656,0.0,0.0,0.0,0.0,0.0,0.0,0.0,0.0,0.0
1606828568836466229,2405054,1606828568826717479,imu_link,-0.07293450832366943,-0.022694464772939682,0.1657131314277649,0.9832114577293396,0.0,0.0,0.0,0.0,0.0,0.0,0.0,0.0,0.0,19.222734451293945,-1.1720383167266846,-8.683329582214355,0.0,0.0,0.0,0.0,0.0,0.0,0.0,0.0,0.0,-0.001707714982330799,-0.04486847296357155,0.32509803771972656,0.0,0.0,0.0,0.0,0.0,0.0,0.0,0.0,0.0
1606828568836488494,2405055,1606828568826845391,imu_link,-0.07293422520160675,-0.022695008665323257,0.1657104194164276,0.9832119345664978,0.0,0.0,0.0,0.0,0.0,0.0,0.0,0.0,0.0,19.22242546081543,-1.1721289157867432,-8.683304786682129,0.0,0.0,0.0,0.0,0.0,0.0,0.0,0.0,0.0,0.016955452039837837,-0.03800777345895767,0.3149397373199463,0.0,0.0,0.0,0.0,0.0,0.0,0.0,0.0,0.0
1606828568836505662,2405056,1606828568826974340,imu_link,-0.07293422520160675,-0.022695008665323257,0.1657104194164276,0.9832119345664978,0.0,0.0,0.0,0.0,0.0,0.0,0.0,0.0,0.0,19.22242546081543,-1.1721289157867432,-8.683304786682129,0.0,0.0,0.0,0.0,0.0,0.0,0.0,0.0,0.0,0.016955452039837837,-0.03800777345895767,0.3149397373199463,0.0,0.0,0.0,0.0,0.0,0.0,0.0,0.0,0.0
1606828568836522427,2405057,1606828568827125160,imu_link,-0.07293624430894852,-0.02269342727959156,0.16571442782878876,0.9832111597061157,0.0,0.0,0.0,0.0,0.0,0.0,0.0,0.0,0.0,19.222877502441406,-1.1718769073486328,-8.683506965637207,0.0,0.0,0.0,0.0,0.0,0.0,0.0,0.0,0.0,0.0026427782140672207,-0.03836357593536377,0.3224621117115021,0.0,0.0,0.0,0.0,0.0,0.0,0.0,0.0,0.0
1606828568839541350,2405058,1606828568827344931,imu_link,-0.07293624430894852,-0.02269342727959156,0.16571442782878876,0.9832111597061157,0.0,0.0,0.0,0.0,0.0,0.0,0.0,0.0,0.0,19.222877502441406,-1.1718769073486328,-8.683506965637207,0.0,0.0,0.0,0.0,0.0,0.0,0.0,0.0,0.0,0.0026427782140672207,-0.03836357593536377,0.3224621117115021,0.0,0.0,0.0,0.0,0.0,0.0,0.0,0.0,0.0
1606828568839594532,2405059,1606828568827499391,imu_link,-0.0729357972741127,-0.022693149745464325,0.1657143235206604,0.9832112193107605,0.0,0.0,0.0,0.0,0.0,0.0,0.0,0.0,0.0,19.222862243652344,-1.1718552112579346,-8.683450698852539,0.0,0.0,0.0,0.0,0.0,0.0,0.0,0.0,0.0,-0.0022096820175647736,-0.040700145065784454,0.31244727969169617,0.0,0.0,0.0,0.0,0.0,0.0,0.0,0.0,0.0
1606828568839654451,2405060,1606828568827649039,imu_link,-0.0729357972741127,-0.022693149745464325,0.1657143235206604,0.9832112193107605,0.0,0.0,0.0,0.0,0.0,0.0,0.0,0.0,0.0,19.222862243652344,-1.1718552112579346,-8.683450698852539,0.0,0.0,0.0,0.0,0.0,0.0,0.0,0.0,0.0,-0.0022096820175647736,-0.040700145065784454,0.31244727969169617,0.0,0.0,0.0,0.0,0.0,0.0,0.0,0.0,0.0
1606828568839676350,2405061,1606828568827784052,imu_link,-0.0729367733001709,-0.022696401923894882,0.1657208800315857,0.9832098484039307,0.0,0.0,0.0,0.0,0.0,0.0,0.0,0.0,0.0,19.22365379333496,-1.1721446514129639,-8.683631896972656,0.0,0.0,0.0,0.0,0.0,0.0,0.0,0.0,0.0,0.0006175003945827484,-0.05128476396203041,0.3135386109352112,0.0,0.0,0.0,0.0,0.0,0.0,0.0,0.0,0.0
1606828568839732016,2405062,1606828568827919533,imu_link,-0.0729367733001709,-0.022696401923894882,0.1657208800315857,0.9832098484039307,0.0,0.0,0.0,0.0,0.0,0.0,0.0,0.0,0.0,19.22365379333496,-1.1721446514129639,-8.683631896972656,0.0,0.0,0.0,0.0,0.0,0.0,0.0,0.0,0.0,0.0006175003945827484,-0.05128476396203041,0.3135386109352112,0.0,0.0,0.0,0.0,0.0,0.0,0.0,0.0,0.0
1606828568839754734,2405063,1606828568828058000,imu_link,-0.07293912768363953,-0.022698983550071716,0.16571983695030212,0.9832099080085754,0.0,0.0,0.0,0.0,0.0,0.0,0.0,0.0,0.0,19.22355842590332,-1.172399878501892,-8.683947563171387,0.0,0.0,0.0,0.0,0.0,0.0,0.0,0.0,0.0,0.013205107301473618,-0.06600981950759888,0.32939761877059937,0.0,0.0,0.0,0.0,0.0,0.0,0.0,0.0,0.0
1606828568849159626,2405064,1606828568839502966,imu_link,-0.07293912768363953,-0.022698983550071716,0.16571983695030212,0.9832099080085754,0.0,0.0,0.0,0.0,0.0,0.0,0.0,0.0,0.0,19.22355842590332,-1.172399878501892,-8.683947563171387,0.0,0.0,0.0,0.0,0.0,0.0,0.0,0.0,0.0,0.013205107301473618,-0.06600981950759888,0.32939761877059937,0.0,0.0,0.0,0.0,0.0,0.0,0.0,0.0,0.0
1606828568850325973,2405065,1606828568839669212,imu_link,-0.07293672859668732,-0.022697938606142998,0.16571524739265442,0.9832108020782471,0.0,0.0,0.0,0.0,0.0,0.0,0.0,0.0,0.0,19.2230167388916,-1.1723684072494507,-8.683650970458984,0.0,0.0,0.0,0.0,0.0,0.0,0.0,0.0,0.0,0.01998024806380272,-0.05541614070534706,0.334001749753952,0.0,0.0,0.0,0.0,0.0,0.0,0.0,0.0,0.0
1606828568850343004,2405066,1606828568839806564,imu_link,-0.07293672859668732,-0.022697938606142998,0.16571524739265442,0.9832108020782471,0.0,0.0,0.0,0.0,0.0,0.0,0.0,0.0,0.0,19.2230167388916,-1.1723684072494507,-8.683650970458984,0.0,0.0,0.0,0.0,0.0,0.0,0.0,0.0,0.0,0.01998024806380272,-0.05541614070534706,0.334001749753952,0.0,0.0,0.0,0.0,0.0,0.0,0.0,0.0,0.0
1606828568850347611,2405067,1606828568839953107,imu_link,-0.07293618470430374,-0.02269531786441803,0.16571515798568726,0.9832109212875366,0.0,0.0,0.0,0.0,0.0,0.0,0.0,0.0,0.0,19.222980499267578,-1.1720843315124512,-8.683537483215332,0.0,0.0,0.0,0.0,0.0,0.0,0.0,0.0,0.0,0.006719386205077171,-0.036713652312755585,0.3265058398246765,0.0,0.0,0.0,0.0,0.0,0.0,0.0,0.0,0.0
1606828568850356321,2405068,1606828568840109713,imu_link,-0.07293618470430374,-0.02269531786441803,0.16571515798568726,0.9832109212875366,0.0,0.0,0.0,0.0,0.0,0.0,0.0,0.0,0.0,19.222980499267578,-1.1720843315124512,-8.683537483215332,0.0,0.0,0.0,0.0,0.0,0.0,0.0,0.0,0.0,0.006719386205077171,-0.036713652312755585,0.3265058398246765,0.0,0.0,0.0,0.0,0.0,0.0,0.0,0.0,0.0
1606828568850366406,2405069,1606828568840291804,imu_link,-0.07293875515460968,-0.022695427760481834,0.16570957005023956,0.9832116961479187,0.0,0.0,0.0,0.0,0.0,0.0,0.0,0.0,0.0,19.222335815429688,-1.172096848487854,-8.683825492858887,0.0,0.0,0.0,0.0,0.0,0.0,0.0,0.0,0.0,0.00374705926515162,-0.046268071979284286,0.3073823153972626,0.0,0.0,0.0,0.0,0.0,0.0,0.0,0.0,0.0
1606828568850376398,2405070,1606828568840440441,imu_link,-0.07293875515460968,-0.022695427760481834,0.16570957005023956,0.9832116961479187,0.0,0.0,0.0,0.0,0.0,0.0,0.0,0.0,0.0,19.222335815429688,-1.172096848487854,-8.683825492858887,0.0,0.0,0.0,0.0,0.0,0.0,0.0,0.0,0.0,0.00374705926515162,-0.046268071979284286,0.3073823153972626,0.0,0.0,0.0,0.0,0.0,0.0,0.0,0.0,0.0
1606828568850386368,2405071,1606828568840586511,imu_link,-0.07293832302093506,-0.022695494815707207,0.16570883989334106,0.9832118153572083,0.0,0.0,0.0,0.0,0.0,0.0,0.0,0.0,0.0,19.222251892089844,-1.1721190214157104,-8.683775901794434,0.0,0.0,0.0,0.0,0.0,0.0,0.0,0.0,0.0,0.007336828857660294,-0.044003166258335114,0.3102351129055023,0.0,0.0,0.0,0.0,0.0,0.0,0.0,0.0,0.0
1606828568850391599,2405072,1606828568840722220,imu_link,-0.07293832302093506,-0.022695494815707207,0.16570883989334106,0.9832118153572083,0.0,0.0,0.0,0.0,0.0,0.0,0.0,0.0,0.0,19.222251892089844,-1.1721190214157104,-8.683775901794434,0.0,0.0,0.0,0.0,0.0,0.0,0.0,0.0,0.0,0.007336828857660294,-0.044003166258335114,0.3102351129055023,0.0,0.0,0.0,0.0,0.0,0.0,0.0,0.0,0.0
1606828568850399155,2405073,1606828568840856490,imu_link,-0.07293948531150818,-0.022693727165460587,0.16570164263248444,0.9832130074501038,0.0,0.0,0.0,0.0,0.0,0.0,0.0,0.0,0.0,19.221405029296875,-1.1719609498977661,-8.683865547180176,0.0,0.0,0.0,0.0,0.0,0.0,0.0,0.0,0.0,0.005076235625892878,-0.037414517253637314,0.309172123670578,0.0,0.0,0.0,0.0,0.0,0.0,0.0,0.0,0.0
1606828568883277686,2405074,1606828568853322740,imu_link,-0.07293948531150818,-0.022693727165460587,0.16570164263248444,0.9832130074501038,0.0,0.0,0.0,0.0,0.0,0.0,0.0,0.0,0.0,19.221405029296875,-1.1719609498977661,-8.683865547180176,0.0,0.0,0.0,0.0,0.0,0.0,0.0,0.0,0.0,0.005076235625892878,-0.037414517253637314,0.309172123670578,0.0,0.0,0.0,0.0,0.0,0.0,0.0,0.0,0.0
1606828568883296724,2405075,1606828568853490546,imu_link,-0.07293954491615295,-0.022694231942296028,0.16570137441158295,0.9832130670547485,0.0,0.0,0.0,0.0,0.0,0.0,0.0,0.0,0.0,19.221376419067383,-1.1720190048217773,-8.683881759643555,0.0,0.0,0.0,0.0,0.0,0.0,0.0,0.0,0.0,-0.0045524477027356625,-0.051088765263557434,0.2926052510738373,0.0,0.0,0.0,0.0,0.0,0.0,0.0,0.0,0.0
1606828568883308385,2405076,1606828568853624602,imu_link,-0.07293954491615295,-0.022694231942296028,0.16570137441158295,0.9832130670547485,0.0,0.0,0.0,0.0,0.0,0.0,0.0,0.0,0.0,19.221376419067383,-1.1720190048217773,-8.683881759643555,0.0,0.0,0.0,0.0,0.0,0.0,0.0,0.0,0.0,-0.0045524477027356625,-0.051088765263557434,0.2926052510738373,0.0,0.0,0.0,0.0,0.0,0.0,0.0,0.0,0.0
1606828568883338314,2405077,1606828568853821915,imu_link,-0.07293782383203506,-0.022693265229463577,0.16569122672080994,0.9832149147987366,0.0,0.0,0.0,0.0,0.0,0.0,0.0,0.0,0.0,19.22018814086914,-1.172032356262207,-8.683655738830566,0.0,0.0,0.0,0.0,0.0,0.0,0.0,0.0,0.0,-0.005753588397055864,-0.05215935409069061,0.3069705665111542,0.0,0.0,0.0,0.0,0.0,0.0,0.0,0.0,0.0
1606828568883360753,2405078,1606828568853979696,imu_link,-0.07293782383203506,-0.022693265229463577,0.16569122672080994,0.9832149147987366,0.0,0.0,0.0,0.0,0.0,0.0,0.0,0.0,0.0,19.22018814086914,-1.172032356262207,-8.683655738830566,0.0,0.0,0.0,0.0,0.0,0.0,0.0,0.0,0.0,-0.005753588397055864,-0.05215935409069061,0.3069705665111542,0.0,0.0,0.0,0.0,0.0,0.0,0.0,0.0,0.0
1606828568883369081,2405079,1606828568854125082,imu_link,-0.0729377269744873,-0.02269255928695202,0.1656906008720398,0.9832150340080261,0.0,0.0,0.0,0.0,0.0,0.0,0.0,0.0,0.0,19.220111846923828,-1.1719602346420288,-8.683629989624023,0.0,0.0,0.0,0.0,0.0,0.0,0.0,0.0,0.0,0.0071417661383748055,-0.048236723989248276,0.3436885476112366,0.0,0.0,0.0,0.0,0.0,0.0,0.0,0.0,0.0
1606828568883387462,2405080,1606828568854284680,imu_link,-0.0729377269744873,-0.02269255928695202,0.1656906008720398,0.9832150340080261,0.0,0.0,0.0,0.0,0.0,0.0,0.0,0.0,0.0,19.220111846923828,-1.1719602346420288,-8.683629989624023,0.0,0.0,0.0,0.0,0.0,0.0,0.0,0.0,0.0,0.0071417661383748055,-0.048236723989248276,0.3436885476112366,0.0,0.0,0.0,0.0,0.0,0.0,0.0,0.0,0.0
1606828568883406453,2405081,1606828568854447759,imu_link,-0.07293885946273804,-0.022690150886774063,0.1656848043203354,0.9832159876823425,0.0,0.0,0.0,0.0,0.0,0.0,0.0,0.0,0.0,19.219419479370117,-1.1717181205749512,-8.68370532989502,0.0,0.0,0.0,0.0,0.0,0.0,0.0,0.0,0.0,0.013836288824677467,-0.05077241733670235,0.36444151401519775,0.0,0.0,0.0,0.0,0.0,0.0,0.0,0.0,0.0
1606828568883413894,2405082,1606828568854590797,imu_link,-0.07293885946273804,-0.022690150886774063,0.1656848043203354,0.9832159876823425,0.0,0.0,0.0,0.0,0.0,0.0,0.0,0.0,0.0,19.219419479370117,-1.1717181205749512,-8.68370532989502,0.0,0.0,0.0,0.0,0.0,0.0,0.0,0.0,0.0,0.013836288824677467,-0.05077241733670235,0.36444151401519775,0.0,0.0,0.0,0.0,0.0,0.0,0.0,0.0,0.0
1606828568883424020,2405083,1606828568854727766,imu_link,-0.07293874770402908,-0.022690124809741974,0.16568399965763092,0.9832161068916321,0.0,0.0,0.0,0.0,0.0,0.0,0.0,0.0,0.0,19.219324111938477,-1.1717244386672974,-8.683691024780273,0.0,0.0,0.0,0.0,0.0,0.0,0.0,0.0,0.0,0.015278692357242107,-0.05518708750605583,0.35933440923690796,0.0,0.0,0.0,0.0,0.0,0.0,0.0,0.0,0.0
1606828568883429640,2405084,1606828568854863194,imu_link,-0.07293874770402908,-0.022690124809741974,0.16568399965763092,0.9832161068916321,0.0,0.0,0.0,0.0,0.0,0.0,0.0,0.0,0.0,19.219324111938477,-1.1717244386672974,-8.683691024780273,0.0,0.0,0.0,0.0,0.0,0.0,0.0,0.0,0.0,0.015278692357242107,-0.05518708750605583,0.35933440923690796,0.0,0.0,0.0,0.0,0.0,0.0,0.0,0.0,0.0
1606828568883437418,2405085,1606828568863121441,imu_link,-0.07293954491615295,-0.022690923884510994,0.16567766666412354,0.9832171201705933,0.0,0.0,0.0,0.0,0.0,0.0,0.0,0.0,0.0,19.218597412109375,-1.1718549728393555,-8.683788299560547,0.0,0.0,0.0,0.0,0.0,0.0,0.0,0.0,0.0,-0.004174686968326569,-0.06611773371696472,0.3271885812282562,0.0,0.0,0.0,0.0,0.0,0.0,0.0,0.0,0.0
1606828568883445510,2405086,1606828568863408037,imu_link,-0.07293954491615295,-0.022690923884510994,0.16567766666412354,0.9832171201705933,0.0,0.0,0.0,0.0,0.0,0.0,0.0,0.0,0.0,19.218597412109375,-1.1718549728393555,-8.683788299560547,0.0,0.0,0.0,0.0,0.0,0.0,0.0,0.0,0.0,-0.004174686968326569,-0.06611773371696472,0.3271885812282562,0.0,0.0,0.0,0.0,0.0,0.0,0.0,0.0,0.0
1606828568883449433,2405087,1606828568863587667,imu_link,-0.07294035702943802,-0.022693490609526634,0.16567817330360413,0.9832168817520142,0.0,0.0,0.0,0.0,0.0,0.0,0.0,0.0,0.0,19.218679428100586,-1.172123908996582,-8.683932304382324,0.0,0.0,0.0,0.0,0.0,0.0,0.0,0.0,0.0,-0.017802078276872635,-0.06547536700963974,0.3133716285228729,0.0,0.0,0.0,0.0,0.0,0.0,0.0,0.0,0.0
1606828568883788024,2405088,1606828568863741076,imu_link,-0.07294035702943802,-0.022693490609526634,0.16567817330360413,0.9832168817520142,0.0,0.0,0.0,0.0,0.0,0.0,0.0,0.0,0.0,19.218679428100586,-1.172123908996582,-8.683932304382324,0.0,0.0,0.0,0.0,0.0,0.0,0.0,0.0,0.0,-0.017802078276872635,-0.06547536700963974,0.3133716285228729,0.0,0.0,0.0,0.0,0.0,0.0,0.0,0.0,0.0
1606828568883805575,2405089,1606828568863883670,imu_link,-0.07293766736984253,-0.022698651999235153,0.16568173468112946,0.983216404914856,0.0,0.0,0.0,0.0,0.0,0.0,0.0,0.0,0.0,19.219141006469727,-1.1727255582809448,-8.683732032775879,0.0,0.0,0.0,0.0,0.0,0.0,0.0,0.0,0.0,-0.0015409551560878754,-0.05186530947685242,0.34240424633026123,0.0,0.0,0.0,0.0,0.0,0.0,0.0,0.0,0.0
1606828568883817058,2405090,1606828568864266499,imu_link,-0.07293766736984253,-0.022698651999235153,0.16568173468112946,0.983216404914856,0.0,0.0,0.0,0.0,0.0,0.0,0.0,0.0,0.0,19.219141006469727,-1.1727255582809448,-8.683732032775879,0.0,0.0,0.0,0.0,0.0,0.0,0.0,0.0,0.0,-0.0015409551560878754,-0.05186530947685242,0.34240424633026123,0.0,0.0,0.0,0.0,0.0,0.0,0.0,0.0,0.0
1606828568883838119,2405091,1606828568864421742,imu_link,-0.07293631881475449,-0.02269935980439186,0.16568100452423096,0.9832165837287903,0.0,0.0,0.0,0.0,0.0,0.0,0.0,0.0,0.0,19.21906089782715,-1.172837495803833,-8.683589935302734,0.0,0.0,0.0,0.0,0.0,0.0,0.0,0.0,0.0,0.015019942075014114,-0.03962266445159912,0.3492140769958496,0.0,0.0,0.0,0.0,0.0,0.0,0.0,0.0,0.0
1606828568886487966,2405092,1606828568864588542,imu_link,-0.07293631881475449,-0.02269935980439186,0.16568100452423096,0.9832165837287903,0.0,0.0,0.0,0.0,0.0,0.0,0.0,0.0,0.0,19.21906089782715,-1.172837495803833,-8.683589935302734,0.0,0.0,0.0,0.0,0.0,0.0,0.0,0.0,0.0,0.015019942075014114,-0.03962266445159912,0.3492140769958496,0.0,0.0,0.0,0.0,0.0,0.0,0.0,0.0,0.0
1606828568886526848,2405093,1606828568876535466,imu_link,-0.07293877750635147,-0.022698935121297836,0.16568395495414734,0.9832159280776978,0.0,0.0,0.0,0.0,0.0,0.0,0.0,0.0,0.0,19.21940040588379,-1.172716736793518,-8.683865547180176,0.0,0.0,0.0,0.0,0.0,0.0,0.0,0.0,0.0,0.029739834368228912,-0.03417869657278061,0.33203810453414917,0.0,0.0,0.0,0.0,0.0,0.0,0.0,0.0,0.0
1606828568886548641,2405094,1606828568876719471,imu_link,-0.07293877750635147,-0.022698935121297836,0.16568395495414734,0.9832159280776978,0.0,0.0,0.0,0.0,0.0,0.0,0.0,0.0,0.0,19.21940040588379,-1.172716736793518,-8.683865547180176,0.0,0.0,0.0,0.0,0.0,0.0,0.0,0.0,0.0,0.029739834368228912,-0.03417869657278061,0.33203810453414917,0.0,0.0,0.0,0.0,0.0,0.0,0.0,0.0,0.0
1606828568886558605,2405095,1606828568876881440,imu_link,-0.07293820381164551,-0.022698912769556046,0.1656852662563324,0.9832157492637634,0.0,0.0,0.0,0.0,0.0,0.0,0.0,0.0,0.0,19.219552993774414,-1.1727136373519897,-8.683801651000977,0.0,0.0,0.0,0.0,0.0,0.0,0.0,0.0,0.0,0.014697296544909477,-0.04053634777665138,0.3068045377731323,0.0,0.0,0.0,0.0,0.0,0.0,0.0,0.0,0.0
1606828568886598705,2405096,1606828568877039600,imu_link,-0.07293820381164551,-0.022698912769556046,0.1656852662563324,0.9832157492637634,0.0,0.0,0.0,0.0,0.0,0.0,0.0,0.0,0.0,19.219552993774414,-1.1727136373519897,-8.683801651000977,0.0,0.0,0.0,0.0,0.0,0.0,0.0,0.0,0.0,0.014697296544909477,-0.04053634777665138,0.3068045377731323,0.0,0.0,0.0,0.0,0.0,0.0,0.0,0.0,0.0
1606828568887623324,2405097,1606828568877196286,imu_link,-0.07294175028800964,-0.022700322791934013,0.16569426655769348,0.9832139611244202,0.0,0.0,0.0,0.0,0.0,0.0,0.0,0.0,0.0,19.220611572265625,-1.1727252006530762,-8.68424129486084,0.0,0.0,0.0,0.0,0.0,0.0,0.0,0.0,0.0,-0.001191999763250351,-0.04923040792346001,0.32191821932792664,0.0,0.0,0.0,0.0,0.0,0.0,0.0,0.0,0.0
1606828568887640940,2405098,1606828568877370318,imu_link,-0.07294175028800964,-0.022700322791934013,0.16569426655769348,0.9832139611244202,0.0,0.0,0.0,0.0,0.0,0.0,0.0,0.0,0.0,19.220611572265625,-1.1727252006530762,-8.68424129486084,0.0,0.0,0.0,0.0,0.0,0.0,0.0,0.0,0.0,-0.001191999763250351,-0.04923040792346001,0.32191821932792664,0.0,0.0,0.0,0.0,0.0,0.0,0.0,0.0,0.0
1606828568887649612,2405099,1606828568877541959,imu_link,-0.07294238358736038,-0.022702431306242943,0.16569355130195618,0.9832139611244202,0.0,0.0,0.0,0.0,0.0,0.0,0.0,0.0,0.0,19.220548629760742,-1.1729568243026733,-8.684353828430176,0.0,0.0,0.0,0.0,0.0,0.0,0.0,0.0,0.0,0.0048448750749230385,-0.04791411757469177,0.3416992425918579,0.0,0.0,0.0,0.0,0.0,0.0,0.0,0.0,0.0
1606828568887663789,2405100,1606828568877706604,imu_link,-0.07294238358736038,-0.022702431306242943,0.16569355130195618,0.9832139611244202,0.0,0.0,0.0,0.0,0.0,0.0,0.0,0.0,0.0,19.220548629760742,-1.1729568243026733,-8.684353828430176,0.0,0.0,0.0,0.0,0.0,0.0,0.0,0.0,0.0,0.0048448750749230385,-0.04791411757469177,0.3416992425918579,0.0,0.0,0.0,0.0,0.0,0.0,0.0,0.0,0.0
1606828568889643196,2405101,1606828568877859126,imu_link,-0.07294148206710815,-0.022704746574163437,0.16570451855659485,0.9832121133804321,0.0,0.0,0.0,0.0,0.0,0.0,0.0,0.0,0.0,19.221839904785156,-1.1731383800506592,-8.684309005737305,0.0,0.0,0.0,0.0,0.0,0.0,0.0,0.0,0.0,0.005712042097002268,-0.03221876919269562,0.32588085532188416,0.0,0.0,0.0,0.0,0.0,0.0,0.0,0.0,0.0
1606828568889663015,2405102,1606828568878011784,imu_link,-0.07294148206710815,-0.022704746574163437,0.16570451855659485,0.9832121133804321,0.0,0.0,0.0,0.0,0.0,0.0,0.0,0.0,0.0,19.221839904785156,-1.1731383800506592,-8.684309005737305,0.0,0.0,0.0,0.0,0.0,0.0,0.0,0.0,0.0,0.005712042097002268,-0.03221876919269562,0.32588085532188416,0.0,0.0,0.0,0.0,0.0,0.0,0.0,0.0,0.0
1606828568889672714,2405103,1606828568878163544,imu_link,-0.0729379951953888,-0.02270463854074478,0.16570338606834412,0.9832125902175903,0.0,0.0,0.0,0.0,0.0,0.0,0.0,0.0,0.0,19.221702575683594,-1.1732032299041748,-8.68390941619873,0.0,0.0,0.0,0.0,0.0,0.0,0.0,0.0,0.0,0.02060161530971527,-0.030900804325938225,0.33873170614242554,0.0,0.0,0.0,0.0,0.0,0.0,0.0,0.0,0.0
1606828568898567381,2405104,1606828568889440121,imu_link,-0.0729379951953888,-0.02270463854074478,0.16570338606834412,0.9832125902175903,0.0,0.0,0.0,0.0,0.0,0.0,0.0,0.0,0.0,19.221702575683594,-1.1732032299041748,-8.68390941619873,0.0,0.0,0.0,0.0,0.0,0.0,0.0,0.0,0.0,0.02060161530971527,-0.030900804325938225,0.33873170614242554,0.0,0.0,0.0,0.0,0.0,0.0,0.0,0.0,0.0
1606828568911557941,2405105,1606828568889620908,imu_link,-0.07294061034917831,-0.02270490676164627,0.1657097190618515,0.98321133852005,0.0,0.0,0.0,0.0,0.0,0.0,0.0,0.0,0.0,19.222442626953125,-1.17312753200531,-8.684218406677246,0.0,0.0,0.0,0.0,0.0,0.0,0.0,0.0,0.0,0.024463512003421783,-0.03102687932550907,0.3373328447341919,0.0,0.0,0.0,0.0,0.0,0.0,0.0,0.0,0.0
1606828568911611741,2405106,1606828568889757819,imu_link,-0.07294061034917831,-0.02270490676164627,0.1657097190618515,0.98321133852005,0.0,0.0,0.0,0.0,0.0,0.0,0.0,0.0,0.0,19.222442626953125,-1.17312753200531,-8.684218406677246,0.0,0.0,0.0,0.0,0.0,0.0,0.0,0.0,0.0,0.024463512003421783,-0.03102687932550907,0.3373328447341919,0.0,0.0,0.0,0.0,0.0,0.0,0.0,0.0,0.0
1606828568911620034,2405107,1606828568889986522,imu_link,-0.07293878495693207,-0.022704118862748146,0.16570667922496796,0.9832119941711426,0.0,0.0,0.0,0.0,0.0,0.0,0.0,0.0,0.0,19.22208023071289,-1.173100471496582,-8.683992385864258,0.0,0.0,0.0,0.0,0.0,0.0,0.0,0.0,0.0,0.009913583286106586,-0.02830081805586815,0.3340209126472473,0.0,0.0,0.0,0.0,0.0,0.0,0.0,0.0,0.0
1606828568911640726,2405108,1606828568890147439,imu_link,-0.07293878495693207,-0.022704118862748146,0.16570667922496796,0.9832119941711426,0.0,0.0,0.0,0.0,0.0,0.0,0.0,0.0,0.0,19.22208023071289,-1.173100471496582,-8.683992385864258,0.0,0.0,0.0,0.0,0.0,0.0,0.0,0.0,0.0,0.009913583286106586,-0.02830081805586815,0.3340209126472473,0.0,0.0,0.0,0.0,0.0,0.0,0.0,0.0,0.0
1606828568912223217,2405109,1606828568890326061,imu_link,-0.0729408860206604,-0.02270682156085968,0.16571348905563354,0.9832106232643127,0.0,0.0,0.0,0.0,0.0,0.0,0.0,0.0,0.0,19.2228946685791,-1.1733046770095825,-8.684290885925293,0.0,0.0,0.0,0.0,0.0,0.0,0.0,0.0,0.0,0.0004058731719851494,-0.03973575681447983,0.3324868977069855,0.0,0.0,0.0,0.0,0.0,0.0,0.0,0.0,0.0
1606828568912243455,2405110,1606828568890474834,imu_link,-0.0729408860206604,-0.02270682156085968,0.16571348905563354,0.9832106232643127,0.0,0.0,0.0,0.0,0.0,0.0,0.0,0.0,0.0,19.2228946685791,-1.1733046770095825,-8.684290885925293,0.0,0.0,0.0,0.0,0.0,0.0,0.0,0.0,0.0,0.0004058731719851494,-0.03973575681447983,0.3324868977069855,0.0,0.0,0.0,0.0,0.0,0.0,0.0,0.0,0.0
1606828568912253573,2405111,1606828568890634613,imu_link,-0.07294071465730667,-0.022709712386131287,0.1657131314277649,0.9832106232643127,0.0,0.0,0.0,0.0,0.0,0.0,0.0,0.0,0.0,19.22287940979004,-1.1736366748809814,-8.684327125549316,0.0,0.0,0.0,0.0,0.0,0.0,0.0,0.0,0.0,0.011891954578459263,-0.05226660892367363,0.3210126459598541,0.0,0.0,0.0,0.0,0.0,0.0,0.0,0.0,0.0
1606828568912261472,2405112,1606828568890796862,imu_link,-0.07294071465730667,-0.022709712386131287,0.1657131314277649,0.9832106232643127,0.0,0.0,0.0,0.0,0.0,0.0,0.0,0.0,0.0,19.22287940979004,-1.1736366748809814,-8.684327125549316,0.0,0.0,0.0,0.0,0.0,0.0,0.0,0.0,0.0,0.011891954578459263,-0.05226660892367363,0.3210126459598541,0.0,0.0,0.0,0.0,0.0,0.0,0.0,0.0,0.0
1606828568914862162,2405113,1606828568890947253,imu_link,-0.07294147461652756,-0.02270832657814026,0.16570912301540375,0.9832112789154053,0.0,0.0,0.0,0.0,0.0,0.0,0.0,0.0,0.0,19.22240447998047,-1.1735012531280518,-8.684381484985352,0.0,0.0,0.0,0.0,0.0,0.0,0.0,0.0,0.0,-0.0023531699553132057,-0.0535942018032074,0.31132444739341736,0.0,0.0,0.0,0.0,0.0,0.0,0.0,0.0,0.0
1606828568914907276,2405114,1606828568903157532,imu_link,-0.07294147461652756,-0.02270832657814026,0.16570912301540375,0.9832112789154053,0.0,0.0,0.0,0.0,0.0,0.0,0.0,0.0,0.0,19.22240447998047,-1.1735012531280518,-8.684381484985352,0.0,0.0,0.0,0.0,0.0,0.0,0.0,0.0,0.0,-0.0023531699553132057,-0.0535942018032074,0.31132444739341736,0.0,0.0,0.0,0.0,0.0,0.0,0.0,0.0,0.0
1606828568914926418,2405115,1606828568903231101,imu_link,-0.07294236123561859,-0.0227085929363966,0.16570794582366943,0.9832113981246948,0.0,0.0,0.0,0.0,0.0,0.0,0.0,0.0,0.0,19.222272872924805,-1.1735244989395142,-8.684487342834473,0.0,0.0,0.0,0.0,0.0,0.0,0.0,0.0,0.0,-0.007900496013462543,-0.036628320813179016,0.32754284143447876,0.0,0.0,0.0,0.0,0.0,0.0,0.0,0.0,0.0
1606828568914941489,2405116,1606828568903316337,imu_link,-0.07294236123561859,-0.0227085929363966,0.16570794582366943,0.9832113981246948,0.0,0.0,0.0,0.0,0.0,0.0,0.0,0.0,0.0,19.222272872924805,-1.1735244989395142,-8.684487342834473,0.0,0.0,0.0,0.0,0.0,0.0,0.0,0.0,0.0,-0.007900496013462543,-0.036628320813179016,0.32754284143447876,0.0,0.0,0.0,0.0,0.0,0.0,0.0,0.0,0.0
1606828568914953989,2405117,1606828568903382834,imu_link,-0.07294395565986633,-0.022710904479026794,0.16570553183555603,0.9832116365432739,0.0,0.0,0.0,0.0,0.0,0.0,0.0,0.0,0.0,19.222015380859375,-1.173775553703308,-8.684709548950195,0.0,0.0,0.0,0.0,0.0,0.0,0.0,0.0,0.0,0.009312227368354797,-0.02859051339328289,0.3309633433818817,0.0,0.0,0.0,0.0,0.0,0.0,0.0,0.0,0.0
1606828568915017371,2405118,1606828568903438795,imu_link,-0.07294395565986633,-0.022710904479026794,0.16570553183555603,0.9832116365432739,0.0,0.0,0.0,0.0,0.0,0.0,0.0,0.0,0.0,19.222015380859375,-1.173775553703308,-8.684709548950195,0.0,0.0,0.0,0.0,0.0,0.0,0.0,0.0,0.0,0.009312227368354797,-0.02859051339328289,0.3309633433818817,0.0,0.0,0.0,0.0,0.0,0.0,0.0,0.0,0.0
1606828568915056874,2405119,1606828568903496682,imu_link,-0.07294250279664993,-0.022711381316184998,0.1657043844461441,0.9832119345664978,0.0,0.0,0.0,0.0,0.0,0.0,0.0,0.0,0.0,19.221885681152344,-1.1738673448562622,-8.684552192687988,0.0,0.0,0.0,0.0,0.0,0.0,0.0,0.0,0.0,6.413692608475685e-05,-0.03787284716963768,0.3100784718990326,0.0,0.0,0.0,0.0,0.0,0.0,0.0,0.0,0.0
1606828568915083453,2405120,1606828568903560488,imu_link,-0.07294250279664993,-0.022711381316184998,0.1657043844461441,0.9832119345664978,0.0,0.0,0.0,0.0,0.0,0.0,0.0,0.0,0.0,19.221885681152344,-1.1738673448562622,-8.684552192687988,0.0,0.0,0.0,0.0,0.0,0.0,0.0,0.0,0.0,6.413692608475685e-05,-0.03787284716963768,0.3100784718990326,0.0,0.0,0.0,0.0,0.0,0.0,0.0,0.0,0.0
1606828568915102268,2405121,1606828568903616519,imu_link,-0.07294438034296036,-0.022712677717208862,0.16569556295871735,0.9832132458686829,0.0,0.0,0.0,0.0,0.0,0.0,0.0,0.0,0.0,19.220876693725586,-1.1740548610687256,-8.68478012084961,0.0,0.0,0.0,0.0,0.0,0.0,0.0,0.0,0.0,-0.007935810834169388,-0.04534383863210678,0.31362971663475037,0.0,0.0,0.0,0.0,0.0,0.0,0.0,0.0,0.0
1606828568915117306,2405122,1606828568903671218,imu_link,-0.07294438034296036,-0.022712677717208862,0.16569556295871735,0.9832132458686829,0.0,0.0,0.0,0.0,0.0,0.0,0.0,0.0,0.0,19.220876693725586,-1.1740548610687256,-8.68478012084961,0.0,0.0,0.0,0.0,0.0,0.0,0.0,0.0,0.0,-0.007935810834169388,-0.04534383863210678,0.31362971663475037,0.0,0.0,0.0,0.0,0.0,0.0,0.0,0.0,0.0
1606828568915140283,2405123,1606828568903720049,imu_link,-0.07294706255197525,-0.02271197736263275,0.1656944751739502,0.9832132458686829,0.0,0.0,0.0,0.0,0.0,0.0,0.0,0.0,0.0,19.220748901367188,-1.1739341020584106,-8.685068130493164,0.0,0.0,0.0,0.0,0.0,0.0,0.0,0.0,0.0,-0.002239607274532318,-0.04912129044532776,0.3215910494327545,0.0,0.0,0.0,0.0,0.0,0.0,0.0,0.0,0.0
1606828568915149760,2405124,1606828568903767843,imu_link,-0.07294706255197525,-0.02271197736263275,0.1656944751739502,0.9832132458686829,0.0,0.0,0.0,0.0,0.0,0.0,0.0,0.0,0.0,19.220748901367188,-1.1739341020584106,-8.685068130493164,0.0,0.0,0.0,0.0,0.0,0.0,0.0,0.0,0.0,-0.002239607274532318,-0.04912129044532776,0.3215910494327545,0.0,0.0,0.0,0.0,0.0,0.0,0.0,0.0,0.0
1606828568925765337,2405125,1606828568916614287,imu_link,-0.07294705510139465,-0.022712605074048042,0.16568447649478912,0.9832149147987366,0.0,0.0,0.0,0.0,0.0,0.0,0.0,0.0,0.0,19.219594955444336,-1.1740928888320923,-8.685068130493164,0.0,0.0,0.0,0.0,0.0,0.0,0.0,0.0,0.0,0.0028389631770551205,-0.05473580211400986,0.3275776505470276,0.0,0.0,0.0,0.0,0.0,0.0,0.0,0.0,0.0
1606828568926616781,2405126,1606828568916683766,imu_link,-0.07294705510139465,-0.022712605074048042,0.16568447649478912,0.9832149147987366,0.0,0.0,0.0,0.0,0.0,0.0,0.0,0.0,0.0,19.219594955444336,-1.1740928888320923,-8.685068130493164,0.0,0.0,0.0,0.0,0.0,0.0,0.0,0.0,0.0,0.0028389631770551205,-0.05473580211400986,0.3275776505470276,0.0,0.0,0.0,0.0,0.0,0.0,0.0,0.0,0.0
1606828568926632753,2405127,1606828568916729397,imu_link,-0.07294871658086777,-0.022710569202899933,0.16568264365196228,0.9832151532173157,0.0,0.0,0.0,0.0,0.0,0.0,0.0,0.0,0.0,19.21936798095703,-1.1738477945327759,-8.685213088989258,0.0,0.0,0.0,0.0,0.0,0.0,0.0,0.0,0.0,-0.0031004827469587326,-0.05048969015479088,0.3172574043273926,0.0,0.0,0.0,0.0,0.0,0.0,0.0,0.0,0.0
1606828568926657303,2405128,1606828568916782138,imu_link,-0.07294871658086777,-0.022710569202899933,0.16568264365196228,0.9832151532173157,0.0,0.0,0.0,0.0,0.0,0.0,0.0,0.0,0.0,19.21936798095703,-1.1738477945327759,-8.685213088989258,0.0,0.0,0.0,0.0,0.0,0.0,0.0,0.0,0.0,-0.0031004827469587326,-0.05048969015479088,0.3172574043273926,0.0,0.0,0.0,0.0,0.0,0.0,0.0,0.0,0.0
1606828568926665661,2405129,1606828568916839223,imu_link,-0.07295016944408417,-0.02271324396133423,0.16567862033843994,0.9832156896591187,0.0,0.0,0.0,0.0,0.0,0.0,0.0,0.0,0.0,19.21892738342285,-1.1741567850112915,-8.685425758361816,0.0,0.0,0.0,0.0,0.0,0.0,0.0,0.0,0.0,0.004133719019591808,-0.0423453226685524,0.30485787987709045,0.0,0.0,0.0,0.0,0.0,0.0,0.0,0.0,0.0
1606828568926675297,2405130,1606828568916896355,imu_link,-0.07295016944408417,-0.02271324396133423,0.16567862033843994,0.9832156896591187,0.0,0.0,0.0,0.0,0.0,0.0,0.0,0.0,0.0,19.21892738342285,-1.1741567850112915,-8.685425758361816,0.0,0.0,0.0,0.0,0.0,0.0,0.0,0.0,0.0,0.004133719019591808,-0.0423453226685524,0.30485787987709045,0.0,0.0,0.0,0.0,0.0,0.0,0.0,0.0,0.0
1606828568926698475,2405131,1606828568916960302,imu_link,-0.07294933497905731,-0.022712694481015205,0.16567854583263397,0.9832157492637634,0.0,0.0,0.0,0.0,0.0,0.0,0.0,0.0,0.0,19.21891212463379,-1.1741113662719727,-8.685320854187012,0.0,0.0,0.0,0.0,0.0,0.0,0.0,0.0,0.0,0.003931147046387196,-0.035649802535772324,0.31046926975250244,0.0,0.0,0.0,0.0,0.0,0.0,0.0,0.0,0.0
1606828568926711370,2405132,1606828568917019574,imu_link,-0.07294933497905731,-0.022712694481015205,0.16567854583263397,0.9832157492637634,0.0,0.0,0.0,0.0,0.0,0.0,0.0,0.0,0.0,19.21891212463379,-1.1741113662719727,-8.685320854187012,0.0,0.0,0.0,0.0,0.0,0.0,0.0,0.0,0.0,0.003931147046387196,-0.035649802535772324,0.31046926975250244,0.0,0.0,0.0,0.0,0.0,0.0,0.0,0.0,0.0
1606828568926719953,2405133,1606828568917075299,imu_link,-0.07295017689466476,-0.022712746635079384,0.1656782031059265,0.9832157492637634,0.0,0.0,0.0,0.0,0.0,0.0,0.0,0.0,0.0,19.218873977661133,-1.1741042137145996,-8.685417175292969,0.0,0.0,0.0,0.0,0.0,0.0,0.0,0.0,0.0,0.0015563000924885273,-0.05209190770983696,0.33797305822372437,0.0,0.0,0.0,0.0,0.0,0.0,0.0,0.0,0.0
1606828568928402304,2405134,1606828568917131159,imu_link,-0.07295017689466476,-0.022712746635079384,0.1656782031059265,0.9832157492637634,0.0,0.0,0.0,0.0,0.0,0.0,0.0,0.0,0.0,19.218873977661133,-1.1741042137145996,-8.685417175292969,0.0,0.0,0.0,0.0,0.0,0.0,0.0,0.0,0.0,0.0015563000924885273,-0.05209190770983696,0.33797305822372437,0.0,0.0,0.0,0.0,0.0,0.0,0.0,0.0,0.0
1606828568928415205,2405135,1606828568917186095,imu_link,-0.07295108586549759,-0.02271329239010811,0.1656772792339325,0.9832158088684082,0.0,0.0,0.0,0.0,0.0,0.0,0.0,0.0,0.0,19.21877098083496,-1.1741564273834229,-8.685529708862305,0.0,0.0,0.0,0.0,0.0,0.0,0.0,0.0,0.0,0.0143126230686903,-0.06388687342405319,0.330767422914505,0.0,0.0,0.0,0.0,0.0,0.0,0.0,0.0,0.0
1606828568940036431,2405136,1606828568930487217,imu_link,-0.07295108586549759,-0.02271329239010811,0.1656772792339325,0.9832158088684082,0.0,0.0,0.0,0.0,0.0,0.0,0.0,0.0,0.0,19.21877098083496,-1.1741564273834229,-8.685529708862305,0.0,0.0,0.0,0.0,0.0,0.0,0.0,0.0,0.0,0.0143126230686903,-0.06388687342405319,0.330767422914505,0.0,0.0,0.0,0.0,0.0,0.0,0.0,0.0,0.0
1606828568940052079,2405137,1606828568930566044,imu_link,-0.0729488953948021,-0.022710878401994705,0.16568146646022797,0.98321533203125,0.0,0.0,0.0,0.0,0.0,0.0,0.0,0.0,0.0,19.21923065185547,-1.1738898754119873,-8.685239791870117,0.0,0.0,0.0,0.0,0.0,0.0,0.0,0.0,0.0,-0.014828772284090519,-0.04514499381184578,0.3111436069011688,0.0,0.0,0.0,0.0,0.0,0.0,0.0,0.0,0.0
1606828568940063575,2405138,1606828568930696212,imu_link,-0.0729488953948021,-0.022710878401994705,0.16568146646022797,0.98321533203125,0.0,0.0,0.0,0.0,0.0,0.0,0.0,0.0,0.0,19.21923065185547,-1.1738898754119873,-8.685239791870117,0.0,0.0,0.0,0.0,0.0,0.0,0.0,0.0,0.0,-0.014828772284090519,-0.04514499381184578,0.3111436069011688,0.0,0.0,0.0,0.0,0.0,0.0,0.0,0.0,0.0
1606828568940070080,2405139,1606828568930743541,imu_link,-0.07294852286577225,-0.02271178737282753,0.1656832993030548,0.9832150340080261,0.0,0.0,0.0,0.0,0.0,0.0,0.0,0.0,0.0,19.219451904296875,-1.173983097076416,-8.685216903686523,0.0,0.0,0.0,0.0,0.0,0.0,0.0,0.0,0.0,-0.04261915758252144,-0.04461759701371193,0.3411952555179596,0.0,0.0,0.0,0.0,0.0,0.0,0.0,0.0,0.0
1606828568940083501,2405140,1606828568930803788,imu_link,-0.07294852286577225,-0.02271178737282753,0.1656832993030548,0.9832150340080261,0.0,0.0,0.0,0.0,0.0,0.0,0.0,0.0,0.0,19.219451904296875,-1.173983097076416,-8.685216903686523,0.0,0.0,0.0,0.0,0.0,0.0,0.0,0.0,0.0,-0.04261915758252144,-0.04461759701371193,0.3411952555179596,0.0,0.0,0.0,0.0,0.0,0.0,0.0,0.0,0.0
1606828568940690692,2405141,1606828568930849245,imu_link,-0.07294860482215881,-0.022716179490089417,0.16568806767463684,0.9832141399383545,0.0,0.0,0.0,0.0,0.0,0.0,0.0,0.0,0.0,19.220046997070312,-1.1744341850280762,-8.685317993164062,0.0,0.0,0.0,0.0,0.0,0.0,0.0,0.0,0.0,-0.009135432541370392,-0.04875980317592621,0.3566652238368988,0.0,0.0,0.0,0.0,0.0,0.0,0.0,0.0,0.0
1606828568940711880,2405142,1606828568930907806,imu_link,-0.07294860482215881,-0.022716179490089417,0.16568806767463684,0.9832141399383545,0.0,0.0,0.0,0.0,0.0,0.0,0.0,0.0,0.0,19.220046997070312,-1.1744341850280762,-8.685317993164062,0.0,0.0,0.0,0.0,0.0,0.0,0.0,0.0,0.0,-0.009135432541370392,-0.04875980317592621,0.3566652238368988,0.0,0.0,0.0,0.0,0.0,0.0,0.0,0.0,0.0
1606828568940720006,2405143,1606828568930951236,imu_link,-0.07294757664203644,-0.022719731554389,0.16568805277347565,0.9832141399383545,0.0,0.0,0.0,0.0,0.0,0.0,0.0,0.0,0.0,19.220075607299805,-1.174854040145874,-8.685270309448242,0.0,0.0,0.0,0.0,0.0,0.0,0.0,0.0,0.0,0.010235697031021118,-0.054554954171180725,0.36157697439193726,0.0,0.0,0.0,0.0,0.0,0.0,0.0,0.0,0.0
1606828568940730449,2405144,1606828568930996425,imu_link,-0.07294757664203644,-0.022719731554389,0.16568805277347565,0.9832141399383545,0.0,0.0,0.0,0.0,0.0,0.0,0.0,0.0,0.0,19.220075607299805,-1.174854040145874,-8.685270309448242,0.0,0.0,0.0,0.0,0.0,0.0,0.0,0.0,0.0,0.010235697031021118,-0.054554954171180725,0.36157697439193726,0.0,0.0,0.0,0.0,0.0,0.0,0.0,0.0,0.0
1606828568942364024,2405145,1606828568931041043,imu_link,-0.07294752448797226,-0.022720539942383766,0.16569310426712036,0.9832132458686829,0.0,0.0,0.0,0.0,0.0,0.0,0.0,0.0,0.0,19.22066879272461,-1.1749017238616943,-8.685284614562988,0.0,0.0,0.0,0.0,0.0,0.0,0.0,0.0,0.0,0.0009175771847367287,-0.06376013159751892,0.3444232940673828,0.0,0.0,0.0,0.0,0.0,0.0,0.0,0.0,0.0
1606828568942377083,2405146,1606828568931082033,imu_link,-0.07294752448797226,-0.022720539942383766,0.16569310426712036,0.9832132458686829,0.0,0.0,0.0,0.0,0.0,0.0,0.0,0.0,0.0,19.22066879272461,-1.1749017238616943,-8.685284614562988,0.0,0.0,0.0,0.0,0.0,0.0,0.0,0.0,0.0,0.0009175771847367287,-0.06376013159751892,0.3444232940673828,0.0,0.0,0.0,0.0,0.0,0.0,0.0,0.0,0.0
1606828568953153782,2405147,1606828568943986588,imu_link,-0.07294625043869019,-0.022721195593476295,0.16569076478481293,0.9832137227058411,0.0,0.0,0.0,0.0,0.0,0.0,0.0,0.0,0.0,19.220401763916016,-1.175020694732666,-8.685150146484375,0.0,0.0,0.0,0.0,0.0,0.0,0.0,0.0,0.0,0.01831846684217453,-0.06367948651313782,0.317035049200058,0.0,0.0,0.0,0.0,0.0,0.0,0.0,0.0,0.0
1606828568954332659,2405148,1606828568944066395,imu_link,-0.07294625043869019,-0.022721195593476295,0.16569076478481293,0.9832137227058411,0.0,0.0,0.0,0.0,0.0,0.0,0.0,0.0,0.0,19.220401763916016,-1.175020694732666,-8.685150146484375,0.0,0.0,0.0,0.0,0.0,0.0,0.0,0.0,0.0,0.01831846684217453,-0.06367948651313782,0.317035049200058,0.0,0.0,0.0,0.0,0.0,0.0,0.0,0.0,0.0
1606828568954363915,2405149,1606828568944196405,imu_link,-0.07294564694166183,-0.0227197352796793,0.16569587588310242,0.983212947845459,0.0,0.0,0.0,0.0,0.0,0.0,0.0,0.0,0.0,19.22098159790039,-1.1748228073120117,-8.685060501098633,0.0,0.0,0.0,0.0,0.0,0.0,0.0,0.0,0.0,0.03049958311021328,-0.059266071766614914,0.3301629424095154,0.0,0.0,0.0,0.0,0.0,0.0,0.0,0.0,0.0
1606828568954379940,2405150,1606828568944251730,imu_link,-0.07294564694166183,-0.0227197352796793,0.16569587588310242,0.983212947845459,0.0,0.0,0.0,0.0,0.0,0.0,0.0,0.0,0.0,19.22098159790039,-1.1748228073120117,-8.685060501098633,0.0,0.0,0.0,0.0,0.0,0.0,0.0,0.0,0.0,0.03049958311021328,-0.059266071766614914,0.3301629424095154,0.0,0.0,0.0,0.0,0.0,0.0,0.0,0.0,0.0
1606828568954394485,2405151,1606828568944317989,imu_link,-0.07294531166553497,-0.022720953449606895,0.16569584608078003,0.983212947845459,0.0,0.0,0.0,0.0,0.0,0.0,0.0,0.0,0.0,19.220985412597656,-1.1749666929244995,-8.685046195983887,0.0,0.0,0.0,0.0,0.0,0.0,0.0,0.0,0.0,0.004486813675612211,-0.05332503467798233,0.3295055627822876,0.0,0.0,0.0,0.0,0.0,0.0,0.0,0.0,0.0
1606828568954455100,2405152,1606828568944383875,imu_link,-0.07294531166553497,-0.022720953449606895,0.16569584608078003,0.983212947845459,0.0,0.0,0.0,0.0,0.0,0.0,0.0,0.0,0.0,19.220985412597656,-1.1749666929244995,-8.685046195983887,0.0,0.0,0.0,0.0,0.0,0.0,0.0,0.0,0.0,0.004486813675612211,-0.05332503467798233,0.3295055627822876,0.0,0.0,0.0,0.0,0.0,0.0,0.0,0.0,0.0
1606828568954465324,2405153,1606828568944439062,imu_link,-0.0729447603225708,-0.022720471024513245,0.16569750010967255,0.9832127094268799,0.0,0.0,0.0,0.0,0.0,0.0,0.0,0.0,0.0,19.221174240112305,-1.1749083995819092,-8.684975624084473,0.0,0.0,0.0,0.0,0.0,0.0,0.0,0.0,0.0,-0.006383167114108801,-0.06109125167131424,0.314231812953949,0.0,0.0,0.0,0.0,0.0,0.0,0.0,0.0,0.0
1606828568954478406,2405154,1606828568944490788,imu_link,-0.0729447603225708,-0.022720471024513245,0.16569750010967255,0.9832127094268799,0.0,0.0,0.0,0.0,0.0,0.0,0.0,0.0,0.0,19.221174240112305,-1.1749083995819092,-8.684975624084473,0.0,0.0,0.0,0.0,0.0,0.0,0.0,0.0,0.0,-0.006383167114108801,-0.06109125167131424,0.314231812953949,0.0,0.0,0.0,0.0,0.0,0.0,0.0,0.0,0.0
1606828568954516099,2405155,1606828568944538682,imu_link,-0.07294493913650513,-0.02272132970392704,0.16569861769676208,0.9832124710083008,0.0,0.0,0.0,0.0,0.0,0.0,0.0,0.0,0.0,19.221311569213867,-1.1749918460845947,-8.685015678405762,0.0,0.0,0.0,0.0,0.0,0.0,0.0,0.0,0.0,0.007813382893800735,-0.05915386974811554,0.2959572374820709,0.0,0.0,0.0,0.0,0.0,0.0,0.0,0.0,0.0
1606828568954540195,2405156,1606828568944590706,imu_link,-0.07294493913650513,-0.02272132970392704,0.16569861769676208,0.9832124710083008,0.0,0.0,0.0,0.0,0.0,0.0,0.0,0.0,0.0,19.221311569213867,-1.1749918460845947,-8.685015678405762,0.0,0.0,0.0,0.0,0.0,0.0,0.0,0.0,0.0,0.007813382893800735,-0.05915386974811554,0.2959572374820709,0.0,0.0,0.0,0.0,0.0,0.0,0.0,0.0,0.0
1606828568954569228,2405157,1606828568944641743,imu_link,-0.07294239848852158,-0.022719023749232292,0.16570037603378296,0.983212411403656,0.0,0.0,0.0,0.0,0.0,0.0,0.0,0.0,0.0,19.221492767333984,-1.1747652292251587,-8.684683799743652,0.0,0.0,0.0,0.0,0.0,0.0,0.0,0.0,0.0,0.01671498641371727,-0.05453038588166237,0.3085107207298279,0.0,0.0,0.0,0.0,0.0,0.0,0.0,0.0,0.0
1606828568966116240,2405158,1606828568956951265,imu_link,-0.07294239848852158,-0.022719023749232292,0.16570037603378296,0.983212411403656,0.0,0.0,0.0,0.0,0.0,0.0,0.0,0.0,0.0,19.221492767333984,-1.1747652292251587,-8.684683799743652,0.0,0.0,0.0,0.0,0.0,0.0,0.0,0.0,0.0,0.01671498641371727,-0.05453038588166237,0.3085107207298279,0.0,0.0,0.0,0.0,0.0,0.0,0.0,0.0,0.0
1606828568967645519,2405159,1606828568957040465,imu_link,-0.07294199615716934,-0.022717677056789398,0.16569861769676208,0.9832127690315247,0.0,0.0,0.0,0.0,0.0,0.0,0.0,0.0,0.0,19.221277236938477,-1.174636721611023,-8.684610366821289,0.0,0.0,0.0,0.0,0.0,0.0,0.0,0.0,0.0,0.011778812855482101,-0.07173676788806915,0.3330099582672119,0.0,0.0,0.0,0.0,0.0,0.0,0.0,0.0,0.0
1606828568967667732,2405160,1606828568957153609,imu_link,-0.07294199615716934,-0.022717677056789398,0.16569861769676208,0.9832127690315247,0.0,0.0,0.0,0.0,0.0,0.0,0.0,0.0,0.0,19.221277236938477,-1.174636721611023,-8.684610366821289,0.0,0.0,0.0,0.0,0.0,0.0,0.0,0.0,0.0,0.011778812855482101,-0.07173676788806915,0.3330099582672119,0.0,0.0,0.0,0.0,0.0,0.0,0.0,0.0,0.0
1606828568967707240,2405161,1606828568957204470,imu_link,-0.07293999940156937,-0.022714445367455482,0.16568993031978607,0.9832144379615784,0.0,0.0,0.0,0.0,0.0,0.0,0.0,0.0,0.0,19.22023582458496,-1.1743875741958618,-8.684311866760254,0.0,0.0,0.0,0.0,0.0,0.0,0.0,0.0,0.0,0.0022247834131121635,-0.06283030658960342,0.33298030495643616,0.0,0.0,0.0,0.0,0.0,0.0,0.0,0.0,0.0
1606828568967727790,2405162,1606828568957252217,imu_link,-0.07293999940156937,-0.022714445367455482,0.16568993031978607,0.9832144379615784,0.0,0.0,0.0,0.0,0.0,0.0,0.0,0.0,0.0,19.22023582458496,-1.1743875741958618,-8.684311866760254,0.0,0.0,0.0,0.0,0.0,0.0,0.0,0.0,0.0,0.0022247834131121635,-0.06283030658960342,0.33298030495643616,0.0,0.0,0.0,0.0,0.0,0.0,0.0,0.0,0.0
1606828568967736049,2405163,1606828568957329850,imu_link,-0.0729406327009201,-0.02271503582596779,0.16569004952907562,0.9832143783569336,0.0,0.0,0.0,0.0,0.0,0.0,0.0,0.0,0.0,19.22025489807129,-1.1744409799575806,-8.684393882751465,0.0,0.0,0.0,0.0,0.0,0.0,0.0,0.0,0.0,0.0026230420917272568,-0.029923904687166214,0.33243829011917114,0.0,0.0,0.0,0.0,0.0,0.0,0.0,0.0,0.0
1606828568967770144,2405164,1606828568957383869,imu_link,-0.0729406327009201,-0.02271503582596779,0.16569004952907562,0.9832143783569336,0.0,0.0,0.0,0.0,0.0,0.0,0.0,0.0,0.0,19.22025489807129,-1.1744409799575806,-8.684393882751465,0.0,0.0,0.0,0.0,0.0,0.0,0.0,0.0,0.0,0.0026230420917272568,-0.029923904687166214,0.33243829011917114,0.0,0.0,0.0,0.0,0.0,0.0,0.0,0.0,0.0
1606828568967795860,2405165,1606828568957431476,imu_link,-0.07294153422117233,-0.022716809064149857,0.16568362712860107,0.9832153916358948,0.0,0.0,0.0,0.0,0.0,0.0,0.0,0.0,0.0,19.219528198242188,-1.1746798753738403,-8.68452262878418,0.0,0.0,0.0,0.0,0.0,0.0,0.0,0.0,0.0,-0.0055070132948458195,-0.031361646950244904,0.3246254324913025,0.0,0.0,0.0,0.0,0.0,0.0,0.0,0.0,0.0
1606828568967809556,2405166,1606828568957478327,imu_link,-0.07294153422117233,-0.022716809064149857,0.16568362712860107,0.9832153916358948,0.0,0.0,0.0,0.0,0.0,0.0,0.0,0.0,0.0,19.219528198242188,-1.1746798753738403,-8.68452262878418,0.0,0.0,0.0,0.0,0.0,0.0,0.0,0.0,0.0,-0.0055070132948458195,-0.031361646950244904,0.3246254324913025,0.0,0.0,0.0,0.0,0.0,0.0,0.0,0.0,0.0
1606828568968733880,2405167,1606828568957532258,imu_link,-0.07294078171253204,-0.0227167047560215,0.1656814068555832,0.9832158088684082,0.0,0.0,0.0,0.0,0.0,0.0,0.0,0.0,0.0,19.219270706176758,-1.1747020483016968,-8.684432983398438,0.0,0.0,0.0,0.0,0.0,0.0,0.0,0.0,0.0,-0.008692518807947636,-0.039643362164497375,0.3201090395450592,0.0,0.0,0.0,0.0,0.0,0.0,0.0,0.0,0.0
1606828568983835601,2405168,1606828568970704495,imu_link,-0.07294078171253204,-0.0227167047560215,0.1656814068555832,0.9832158088684082,0.0,0.0,0.0,0.0,0.0,0.0,0.0,0.0,0.0,19.219270706176758,-1.1747020483016968,-8.684432983398438,0.0,0.0,0.0,0.0,0.0,0.0,0.0,0.0,0.0,-0.008692518807947636,-0.039643362164497375,0.3201090395450592,0.0,0.0,0.0,0.0,0.0,0.0,0.0,0.0,0.0
1606828568983857006,2405169,1606828568970793721,imu_link,-0.07294248789548874,-0.02271842770278454,0.16567234694957733,0.983217179775238,0.0,0.0,0.0,0.0,0.0,0.0,0.0,0.0,0.0,19.218236923217773,-1.174943208694458,-8.684649467468262,0.0,0.0,0.0,0.0,0.0,0.0,0.0,0.0,0.0,0.0022061197087168694,-0.029010623693466187,0.32048049569129944,0.0,0.0,0.0,0.0,0.0,0.0,0.0,0.0,0.0
1606828568983870953,2405170,1606828568970902692,imu_link,-0.07294248789548874,-0.02271842770278454,0.16567234694957733,0.983217179775238,0.0,0.0,0.0,0.0,0.0,0.0,0.0,0.0,0.0,19.218236923217773,-1.174943208694458,-8.684649467468262,0.0,0.0,0.0,0.0,0.0,0.0,0.0,0.0,0.0,0.0022061197087168694,-0.029010623693466187,0.32048049569129944,0.0,0.0,0.0,0.0,0.0,0.0,0.0,0.0,0.0
1606828568983879200,2405171,1606828568970953590,imu_link,-0.07294174283742905,-0.022719349712133408,0.16567234694957733,0.983217179775238,0.0,0.0,0.0,0.0,0.0,0.0,0.0,0.0,0.0,19.218246459960938,-1.1750612258911133,-8.684581756591797,0.0,0.0,0.0,0.0,0.0,0.0,0.0,0.0,0.0,0.017993412911891937,-0.033239416778087616,0.3041895031929016,0.0,0.0,0.0,0.0,0.0,0.0,0.0,0.0,0.0
1606828568983905078,2405172,1606828568970998671,imu_link,-0.07294174283742905,-0.022719349712133408,0.16567234694957733,0.983217179775238,0.0,0.0,0.0,0.0,0.0,0.0,0.0,0.0,0.0,19.218246459960938,-1.1750612258911133,-8.684581756591797,0.0,0.0,0.0,0.0,0.0,0.0,0.0,0.0,0.0,0.017993412911891937,-0.033239416778087616,0.3041895031929016,0.0,0.0,0.0,0.0,0.0,0.0,0.0,0.0,0.0
1606828568987627489,2405173,1606828568971056312,imu_link,-0.07294347882270813,-0.02271769568324089,0.1656632423400879,0.9832186102867126,0.0,0.0,0.0,0.0,0.0,0.0,0.0,0.0,0.0,19.21717643737793,-1.1749217510223389,-8.684737205505371,0.0,0.0,0.0,0.0,0.0,0.0,0.0,0.0,0.0,0.041943080723285675,-0.05316975340247154,0.2985380291938782,0.0,0.0,0.0,0.0,0.0,0.0,0.0,0.0,0.0
1606828568987643709,2405174,1606828568971123321,imu_link,-0.07294347882270813,-0.02271769568324089,0.1656632423400879,0.9832186102867126,0.0,0.0,0.0,0.0,0.0,0.0,0.0,0.0,0.0,19.21717643737793,-1.1749217510223389,-8.684737205505371,0.0,0.0,0.0,0.0,0.0,0.0,0.0,0.0,0.0,0.041943080723285675,-0.05316975340247154,0.2985380291938782,0.0,0.0,0.0,0.0,0.0,0.0,0.0,0.0,0.0
1606828568987667873,2405175,1606828568971179408,imu_link,-0.07294604927301407,-0.022716442123055458,0.16566260159015656,0.9832185506820679,0.0,0.0,0.0,0.0,0.0,0.0,0.0,0.0,0.0,19.217092514038086,-1.1747368574142456,-8.685003280639648,0.0,0.0,0.0,0.0,0.0,0.0,0.0,0.0,0.0,0.04550354555249214,-0.05937851592898369,0.3159143328666687,0.0,0.0,0.0,0.0,0.0,0.0,0.0,0.0,0.0
1606828568987674402,2405176,1606828568971227121,imu_link,-0.07294604927301407,-0.022716442123055458,0.16566260159015656,0.9832185506820679,0.0,0.0,0.0,0.0,0.0,0.0,0.0,0.0,0.0,19.217092514038086,-1.1747368574142456,-8.685003280639648,0.0,0.0,0.0,0.0,0.0,0.0,0.0,0.0,0.0,0.04550354555249214,-0.05937851592898369,0.3159143328666687,0.0,0.0,0.0,0.0,0.0,0.0,0.0,0.0,0.0
1606828568987686944,2405177,1606828568971304998,imu_link,-0.07294642180204391,-0.02271203137934208,0.16565629839897156,0.9832197427749634,0.0,0.0,0.0,0.0,0.0,0.0,0.0,0.0,0.0,19.216323852539062,-1.1742883920669556,-8.684951782226562,0.0,0.0,0.0,0.0,0.0,0.0,0.0,0.0,0.0,0.03209632635116577,-0.049466297030448914,0.30256205797195435,0.0,0.0,0.0,0.0,0.0,0.0,0.0,0.0,0.0
1606828568987704541,2405178,1606828568971374684,imu_link,-0.07294642180204391,-0.02271203137934208,0.16565629839897156,0.9832197427749634,0.0,0.0,0.0,0.0,0.0,0.0,0.0,0.0,0.0,19.216323852539062,-1.1742883920669556,-8.684951782226562,0.0,0.0,0.0,0.0,0.0,0.0,0.0,0.0,0.0,0.03209632635116577,-0.049466297030448914,0.30256205797195435,0.0,0.0,0.0,0.0,0.0,0.0,0.0,0.0,0.0
1606828568994814861,2405179,1606828568984203871,imu_link,-0.07294751703739166,-0.022711100056767464,0.1656554937362671,0.9832198023796082,0.0,0.0,0.0,0.0,0.0,0.0,0.0,0.0,0.0,19.21622085571289,-1.1741695404052734,-8.685057640075684,0.0,0.0,0.0,0.0,0.0,0.0,0.0,0.0,0.0,0.005051706917583942,-0.03418094664812088,0.29089584946632385,0.0,0.0,0.0,0.0,0.0,0.0,0.0,0.0,0.0
1606828568994837710,2405180,1606828568984313669,imu_link,-0.07294751703739166,-0.022711100056767464,0.1656554937362671,0.9832198023796082,0.0,0.0,0.0,0.0,0.0,0.0,0.0,0.0,0.0,19.21622085571289,-1.1741695404052734,-8.685057640075684,0.0,0.0,0.0,0.0,0.0,0.0,0.0,0.0,0.0,0.005051706917583942,-0.03418094664812088,0.29089584946632385,0.0,0.0,0.0,0.0,0.0,0.0,0.0,0.0,0.0
1606828568994853367,2405181,1606828568984451808,imu_link,-0.07295020669698715,-0.02271093986928463,0.16564975678920746,0.9832205772399902,0.0,0.0,0.0,0.0,0.0,0.0,0.0,0.0,0.0,19.215559005737305,-1.1741504669189453,-8.68535041809082,0.0,0.0,0.0,0.0,0.0,0.0,0.0,0.0,0.0,-0.010733555071055889,-0.024849560111761093,0.30109381675720215,0.0,0.0,0.0,0.0,0.0,0.0,0.0,0.0,0.0
1606828568994873219,2405182,1606828568984518497,imu_link,-0.07295020669698715,-0.02271093986928463,0.16564975678920746,0.9832205772399902,0.0,0.0,0.0,0.0,0.0,0.0,0.0,0.0,0.0,19.215559005737305,-1.1741504669189453,-8.68535041809082,0.0,0.0,0.0,0.0,0.0,0.0,0.0,0.0,0.0,-0.010733555071055889,-0.024849560111761093,0.30109381675720215,0.0,0.0,0.0,0.0,0.0,0.0,0.0,0.0,0.0
1606828568994890779,2405183,1606828568984594910,imu_link,-0.07294867187738419,-0.022712187841534615,0.1656484156847,0.9832209348678589,0.0,0.0,0.0,0.0,0.0,0.0,0.0,0.0,0.0,19.21541404724121,-1.1743322610855103,-8.685199737548828,0.0,0.0,0.0,0.0,0.0,0.0,0.0,0.0,0.0,0.007267084904015064,-0.025345202535390854,0.30972975492477417,0.0,0.0,0.0,0.0,0.0,0.0,0.0,0.0,0.0
1606828568994900715,2405184,1606828568984665994,imu_link,-0.07294867187738419,-0.022712187841534615,0.1656484156847,0.9832209348678589,0.0,0.0,0.0,0.0,0.0,0.0,0.0,0.0,0.0,19.21541404724121,-1.1743322610855103,-8.685199737548828,0.0,0.0,0.0,0.0,0.0,0.0,0.0,0.0,0.0,0.007267084904015064,-0.025345202535390854,0.30972975492477417,0.0,0.0,0.0,0.0,0.0,0.0,0.0,0.0,0.0
1606828568994917356,2405185,1606828568984752225,imu_link,-0.07295065373182297,-0.022711647674441338,0.16565604507923126,0.9832194447517395,0.0,0.0,0.0,0.0,0.0,0.0,0.0,0.0,0.0,19.216297149658203,-1.174166202545166,-8.685423851013184,0.0,0.0,0.0,0.0,0.0,0.0,0.0,0.0,0.0,0.021351821720600128,-0.024096505716443062,0.32597944140434265,0.0,0.0,0.0,0.0,0.0,0.0,0.0,0.0,0.0
1606828568994942197,2405186,1606828568984818642,imu_link,-0.07295065373182297,-0.022711647674441338,0.16565604507923126,0.9832194447517395,0.0,0.0,0.0,0.0,0.0,0.0,0.0,0.0,0.0,19.216297149658203,-1.174166202545166,-8.685423851013184,0.0,0.0,0.0,0.0,0.0,0.0,0.0,0.0,0.0,0.021351821720600128,-0.024096505716443062,0.32597944140434265,0.0,0.0,0.0,0.0,0.0,0.0,0.0,0.0,0.0
1606828569012449347,2405187,1606828568984880693,imu_link,-0.07294999808073044,-0.02270994894206524,0.1656569391489029,0.9832193851470947,0.0,0.0,0.0,0.0,0.0,0.0,0.0,0.0,0.0,19.216384887695312,-1.1739797592163086,-8.685317993164062,0.0,0.0,0.0,0.0,0.0,0.0,0.0,0.0,0.0,0.02901722677052021,-0.026898585259914398,0.32718825340270996,0.0,0.0,0.0,0.0,0.0,0.0,0.0,0.0,0.0
1606828569012470076,2405188,1606828568984941342,imu_link,-0.07294999808073044,-0.02270994894206524,0.1656569391489029,0.9832193851470947,0.0,0.0,0.0,0.0,0.0,0.0,0.0,0.0,0.0,19.216384887695312,-1.1739797592163086,-8.685317993164062,0.0,0.0,0.0,0.0,0.0,0.0,0.0,0.0,0.0,0.02901722677052021,-0.026898585259914398,0.32718825340270996,0.0,0.0,0.0,0.0,0.0,0.0,0.0,0.0,0.0
1606828569012505805,2405189,1606828568985002399,imu_link,-0.07295210659503937,-0.02270948514342308,0.16566456854343414,0.9832179546356201,0.0,0.0,0.0,0.0,0.0,0.0,0.0,0.0,0.0,19.217267990112305,-1.173819661140442,-8.685556411743164,0.0,0.0,0.0,0.0,0.0,0.0,0.0,0.0,0.0,0.02743109129369259,-0.045428019016981125,0.3174961805343628,0.0,0.0,0.0,0.0,0.0,0.0,0.0,0.0,0.0
1606828569012513737,2405190,1606828568998093712,imu_link,-0.07295210659503937,-0.02270948514342308,0.16566456854343414,0.9832179546356201,0.0,0.0,0.0,0.0,0.0,0.0,0.0,0.0,0.0,19.217267990112305,-1.173819661140442,-8.685556411743164,0.0,0.0,0.0,0.0,0.0,0.0,0.0,0.0,0.0,0.02743109129369259,-0.045428019016981125,0.3174961805343628,0.0,0.0,0.0,0.0,0.0,0.0,0.0,0.0,0.0
1606828569012530205,2405191,1606828568998208698,imu_link,-0.07295280694961548,-0.0227096825838089,0.1656658947467804,0.9832176566123962,0.0,0.0,0.0,0.0,0.0,0.0,0.0,0.0,0.0,19.217424392700195,-1.1738169193267822,-8.68564224243164,0.0,0.0,0.0,0.0,0.0,0.0,0.0,0.0,0.0,0.017789365723729134,-0.055023275315761566,0.30750325322151184,0.0,0.0,0.0,0.0,0.0,0.0,0.0,0.0,0.0
1606828569012549633,2405192,1606828568998353572,imu_link,-0.07295280694961548,-0.0227096825838089,0.1656658947467804,0.9832176566123962,0.0,0.0,0.0,0.0,0.0,0.0,0.0,0.0,0.0,19.217424392700195,-1.1738169193267822,-8.68564224243164,0.0,0.0,0.0,0.0,0.0,0.0,0.0,0.0,0.0,0.017789365723729134,-0.055023275315761566,0.30750325322151184,0.0,0.0,0.0,0.0,0.0,0.0,0.0,0.0,0.0
1606828569012564673,2405193,1606828568998428381,imu_link,-0.07295111566781998,-0.022707698866724968,0.16567522287368774,0.9832162857055664,0.0,0.0,0.0,0.0,0.0,0.0,0.0,0.0,0.0,19.218482971191406,-1.173543930053711,-8.68542194366455,0.0,0.0,0.0,0.0,0.0,0.0,0.0,0.0,0.0,0.009306346997618675,-0.05618603155016899,0.3131406605243683,0.0,0.0,0.0,0.0,0.0,0.0,0.0,0.0,0.0
1606828569012573289,2405194,1606828568998491162,imu_link,-0.07295111566781998,-0.022707698866724968,0.16567522287368774,0.9832162857055664,0.0,0.0,0.0,0.0,0.0,0.0,0.0,0.0,0.0,19.218482971191406,-1.173543930053711,-8.68542194366455,0.0,0.0,0.0,0.0,0.0,0.0,0.0,0.0,0.0,0.009306346997618675,-0.05618603155016899,0.3131406605243683,0.0,0.0,0.0,0.0,0.0,0.0,0.0,0.0,0.0
1606828569012591299,2405195,1606828568998558365,imu_link,-0.07295059412717819,-0.022705983370542526,0.16567496955394745,0.983216404914856,0.0,0.0,0.0,0.0,0.0,0.0,0.0,0.0,0.0,19.21843719482422,-1.1733628511428833,-8.68532943725586,0.0,0.0,0.0,0.0,0.0,0.0,0.0,0.0,0.0,0.01030672900378704,-0.05507757514715195,0.30021336674690247,0.0,0.0,0.0,0.0,0.0,0.0,0.0,0.0,0.0
1606828569016040087,2405196,1606828568998633991,imu_link,-0.07295059412717819,-0.022705983370542526,0.16567496955394745,0.983216404914856,0.0,0.0,0.0,0.0,0.0,0.0,0.0,0.0,0.0,19.21843719482422,-1.1733628511428833,-8.68532943725586,0.0,0.0,0.0,0.0,0.0,0.0,0.0,0.0,0.0,0.01030672900378704,-0.05507757514715195,0.30021336674690247,0.0,0.0,0.0,0.0,0.0,0.0,0.0,0.0,0.0
1606828569016054099,2405197,1606828568998700942,imu_link,-0.07294917851686478,-0.022705962881445885,0.16568128764629364,0.9832154512405396,0.0,0.0,0.0,0.0,0.0,0.0,0.0,0.0,0.0,19.219167709350586,-1.1733319759368896,-8.685176849365234,0.0,0.0,0.0,0.0,0.0,0.0,0.0,0.0,0.0,0.02758491225540638,-0.058190375566482544,0.2908855378627777,0.0,0.0,0.0,0.0,0.0,0.0,0.0,0.0,0.0
1606828569016069773,2405198,1606828568998763879,imu_link,-0.07294917851686478,-0.022705962881445885,0.16568128764629364,0.9832154512405396,0.0,0.0,0.0,0.0,0.0,0.0,0.0,0.0,0.0,19.219167709350586,-1.1733319759368896,-8.685176849365234,0.0,0.0,0.0,0.0,0.0,0.0,0.0,0.0,0.0,0.02758491225540638,-0.058190375566482544,0.2908855378627777,0.0,0.0,0.0,0.0,0.0,0.0,0.0,0.0,0.0
1606828569016088099,2405199,1606828568998834169,imu_link,-0.07295164465904236,-0.02270563878118992,0.16568036377429962,0.9832154512405396,0.0,0.0,0.0,0.0,0.0,0.0,0.0,0.0,0.0,19.219058990478516,-1.1732563972473145,-8.685449600219727,0.0,0.0,0.0,0.0,0.0,0.0,0.0,0.0,0.0,0.0017372481524944305,-0.03774530440568924,0.31369733810424805,0.0,0.0,0.0,0.0,0.0,0.0,0.0,0.0,0.0
1606828569016103368,2405200,1606828568998897868,imu_link,-0.07295164465904236,-0.02270563878118992,0.16568036377429962,0.9832154512405396,0.0,0.0,0.0,0.0,0.0,0.0,0.0,0.0,0.0,19.219058990478516,-1.1732563972473145,-8.685449600219727,0.0,0.0,0.0,0.0,0.0,0.0,0.0,0.0,0.0,0.0017372481524944305,-0.03774530440568924,0.31369733810424805,0.0,0.0,0.0,0.0,0.0,0.0,0.0,0.0,0.0
1606828569020701961,2405201,1606828569010926801,imu_link,-0.0729532390832901,-0.022704796865582466,0.16568033397197723,0.98321533203125,0.0,0.0,0.0,0.0,0.0,0.0,0.0,0.0,0.0,19.21904945373535,-1.1731314659118652,-8.685611724853516,0.0,0.0,0.0,0.0,0.0,0.0,0.0,0.0,0.0,-0.011731032282114029,-0.020122036337852478,0.3416479825973511,0.0,0.0,0.0,0.0,0.0,0.0,0.0,0.0,0.0
1606828569020736645,2405202,1606828569011036366,imu_link,-0.0729532390832901,-0.022704796865582466,0.16568033397197723,0.98321533203125,0.0,0.0,0.0,0.0,0.0,0.0,0.0,0.0,0.0,19.21904945373535,-1.1731314659118652,-8.685611724853516,0.0,0.0,0.0,0.0,0.0,0.0,0.0,0.0,0.0,-0.011731032282114029,-0.020122036337852478,0.3416479825973511,0.0,0.0,0.0,0.0,0.0,0.0,0.0,0.0,0.0
1606828569020751382,2405203,1606828569011134100,imu_link,-0.07295297831296921,-0.022703755646944046,0.16568075120449066,0.98321533203125,0.0,0.0,0.0,0.0,0.0,0.0,0.0,0.0,0.0,19.219087600708008,-1.1730154752731323,-8.685563087463379,0.0,0.0,0.0,0.0,0.0,0.0,0.0,0.0,0.0,0.003343778196722269,-0.027967480942606926,0.331668883562088,0.0,0.0,0.0,0.0,0.0,0.0,0.0,0.0,0.0
1606828569020767888,2405204,1606828569011196652,imu_link,-0.07295297831296921,-0.022703755646944046,0.16568075120449066,0.98321533203125,0.0,0.0,0.0,0.0,0.0,0.0,0.0,0.0,0.0,19.219087600708008,-1.1730154752731323,-8.685563087463379,0.0,0.0,0.0,0.0,0.0,0.0,0.0,0.0,0.0,0.003343778196722269,-0.027967480942606926,0.331668883562088,0.0,0.0,0.0,0.0,0.0,0.0,0.0,0.0,0.0
1606828569020783531,2405205,1606828569011345785,imu_link,-0.07295536994934082,-0.022703906521201134,0.16568101942539215,0.9832150936126709,0.0,0.0,0.0,0.0,0.0,0.0,0.0,0.0,0.0,19.21912384033203,-1.17298424243927,-8.685837745666504,0.0,0.0,0.0,0.0,0.0,0.0,0.0,0.0,0.0,-0.00797562301158905,-0.039486341178417206,0.32134056091308594,0.0,0.0,0.0,0.0,0.0,0.0,0.0,0.0,0.0
1606828569021883591,2405206,1606828569011443771,imu_link,-0.07295536994934082,-0.022703906521201134,0.16568101942539215,0.9832150936126709,0.0,0.0,0.0,0.0,0.0,0.0,0.0,0.0,0.0,19.21912384033203,-1.17298424243927,-8.685837745666504,0.0,0.0,0.0,0.0,0.0,0.0,0.0,0.0,0.0,-0.00797562301158905,-0.039486341178417206,0.32134056091308594,0.0,0.0,0.0,0.0,0.0,0.0,0.0,0.0,0.0
1606828569021909577,2405207,1606828569011512922,imu_link,-0.07295475900173187,-0.02270442619919777,0.16567859053611755,0.9832155108451843,0.0,0.0,0.0,0.0,0.0,0.0,0.0,0.0,0.0,19.218849182128906,-1.173075795173645,-8.685775756835938,0.0,0.0,0.0,0.0,0.0,0.0,0.0,0.0,0.0,-0.0024113673716783524,-0.04156341403722763,0.33788996934890747,0.0,0.0,0.0,0.0,0.0,0.0,0.0,0.0,0.0
1606828569021937844,2405208,1606828569011606984,imu_link,-0.07295475900173187,-0.02270442619919777,0.16567859053611755,0.9832155108451843,0.0,0.0,0.0,0.0,0.0,0.0,0.0,0.0,0.0,19.218849182128906,-1.173075795173645,-8.685775756835938,0.0,0.0,0.0,0.0,0.0,0.0,0.0,0.0,0.0,-0.0024113673716783524,-0.04156341403722763,0.33788996934890747,0.0,0.0,0.0,0.0,0.0,0.0,0.0,0.0,0.0
1606828569021973492,2405209,1606828569011735620,imu_link,-0.07295449078083038,-0.022705653682351112,0.16566933691501617,0.9832170605659485,0.0,0.0,0.0,0.0,0.0,0.0,0.0,0.0,0.0,19.217782974243164,-1.1733005046844482,-8.685757637023926,0.0,0.0,0.0,0.0,0.0,0.0,0.0,0.0,0.0,0.005875161848962307,-0.0404864065349102,0.32926979660987854,0.0,0.0,0.0,0.0,0.0,0.0,0.0,0.0,0.0
1606828569021990864,2405210,1606828569011806047,imu_link,-0.07295449078083038,-0.022705653682351112,0.16566933691501617,0.9832170605659485,0.0,0.0,0.0,0.0,0.0,0.0,0.0,0.0,0.0,19.217782974243164,-1.1733005046844482,-8.685757637023926,0.0,0.0,0.0,0.0,0.0,0.0,0.0,0.0,0.0,0.005875161848962307,-0.0404864065349102,0.32926979660987854,0.0,0.0,0.0,0.0,0.0,0.0,0.0,0.0,0.0
1606828569022050267,2405211,1606828569011871610,imu_link,-0.07295375317335129,-0.02270846627652645,0.16566911339759827,0.9832171201705933,0.0,0.0,0.0,0.0,0.0,0.0,0.0,0.0,0.0,19.217782974243164,-1.1736334562301636,-8.6857271194458,0.0,0.0,0.0,0.0,0.0,0.0,0.0,0.0,0.0,0.0068292454816401005,-0.06940621137619019,0.30604755878448486,0.0,0.0,0.0,0.0,0.0,0.0,0.0,0.0,0.0
1606828569033403859,2405212,1606828569024287360,imu_link,-0.07295375317335129,-0.02270846627652645,0.16566911339759827,0.9832171201705933,0.0,0.0,0.0,0.0,0.0,0.0,0.0,0.0,0.0,19.217782974243164,-1.1736334562301636,-8.6857271194458,0.0,0.0,0.0,0.0,0.0,0.0,0.0,0.0,0.0,0.0068292454816401005,-0.06940621137619019,0.30604755878448486,0.0,0.0,0.0,0.0,0.0,0.0,0.0,0.0,0.0
1606828569034158330,2405213,1606828569024373993,imu_link,-0.07294981926679611,-0.022707834839820862,0.1656590700149536,0.9832191467285156,0.0,0.0,0.0,0.0,0.0,0.0,0.0,0.0,0.0,19.216609954833984,-1.1737264394760132,-8.685259819030762,0.0,0.0,0.0,0.0,0.0,0.0,0.0,0.0,0.0,0.001890597864985466,-0.06200268119573593,0.30700987577438354,0.0,0.0,0.0,0.0,0.0,0.0,0.0,0.0,0.0
1606828569034172707,2405214,1606828569024436087,imu_link,-0.07294981926679611,-0.022707834839820862,0.1656590700149536,0.9832191467285156,0.0,0.0,0.0,0.0,0.0,0.0,0.0,0.0,0.0,19.216609954833984,-1.1737264394760132,-8.685259819030762,0.0,0.0,0.0,0.0,0.0,0.0,0.0,0.0,0.0,0.001890597864985466,-0.06200268119573593,0.30700987577438354,0.0,0.0,0.0,0.0,0.0,0.0,0.0,0.0,0.0
1606828569034210328,2405215,1606828569024490335,imu_link,-0.0729513168334961,-0.022707218304276466,0.16566096246242523,0.9832187294960022,0.0,0.0,0.0,0.0,0.0,0.0,0.0,0.0,0.0,19.21682357788086,-1.1736115217208862,-8.685418128967285,0.0,0.0,0.0,0.0,0.0,0.0,0.0,0.0,0.0,0.00018923403695225716,-0.03282255679368973,0.30191025137901306,0.0,0.0,0.0,0.0,0.0,0.0,0.0,0.0,0.0
1606828569034221219,2405216,1606828569024541320,imu_link,-0.0729513168334961,-0.022707218304276466,0.16566096246242523,0.9832187294960022,0.0,0.0,0.0,0.0,0.0,0.0,0.0,0.0,0.0,19.21682357788086,-1.1736115217208862,-8.685418128967285,0.0,0.0,0.0,0.0,0.0,0.0,0.0,0.0,0.0,0.00018923403695225716,-0.03282255679368973,0.30191025137901306,0.0,0.0,0.0,0.0,0.0,0.0,0.0,0.0,0.0
1606828569034238571,2405217,1606828569024603196,imu_link,-0.07295404374599457,-0.022706065326929092,0.16565164923667908,0.983220100402832,0.0,0.0,0.0,0.0,0.0,0.0,0.0,0.0,0.0,19.215740203857422,-1.173511266708374,-8.685694694519043,0.0,0.0,0.0,0.0,0.0,0.0,0.0,0.0,0.0,0.000869168434292078,-0.046147093176841736,0.28794556856155396,0.0,0.0,0.0,0.0,0.0,0.0,0.0,0.0,0.0
1606828569034249739,2405218,1606828569024662673,imu_link,-0.07295404374599457,-0.022706065326929092,0.16565164923667908,0.983220100402832,0.0,0.0,0.0,0.0,0.0,0.0,0.0,0.0,0.0,19.215740203857422,-1.173511266708374,-8.685694694519043,0.0,0.0,0.0,0.0,0.0,0.0,0.0,0.0,0.0,0.000869168434292078,-0.046147093176841736,0.28794556856155396,0.0,0.0,0.0,0.0,0.0,0.0,0.0,0.0,0.0
1606828569034267699,2405219,1606828569024715903,imu_link,-0.07295528054237366,-0.022707508876919746,0.16565139591693878,0.9832200407981873,0.0,0.0,0.0,0.0,0.0,0.0,0.0,0.0,0.0,19.21572494506836,-1.1736525297164917,-8.685861587524414,0.0,0.0,0.0,0.0,0.0,0.0,0.0,0.0,0.0,-0.0013828985393047333,-0.055768728256225586,0.3164336085319519,0.0,0.0,0.0,0.0,0.0,0.0,0.0,0.0,0.0
1606828569034278344,2405220,1606828569024768250,imu_link,-0.07295528054237366,-0.022707508876919746,0.16565139591693878,0.9832200407981873,0.0,0.0,0.0,0.0,0.0,0.0,0.0,0.0,0.0,19.21572494506836,-1.1736525297164917,-8.685861587524414,0.0,0.0,0.0,0.0,0.0,0.0,0.0,0.0,0.0,-0.0013828985393047333,-0.055768728256225586,0.3164336085319519,0.0,0.0,0.0,0.0,0.0,0.0,0.0,0.0,0.0
1606828569035174298,2405221,1606828569024823023,imu_link,-0.0729549303650856,-0.022706227377057076,0.1656402200460434,0.9832219481468201,0.0,0.0,0.0,0.0,0.0,0.0,0.0,0.0,0.0,19.21441650390625,-1.1736129522323608,-8.685784339904785,0.0,0.0,0.0,0.0,0.0,0.0,0.0,0.0,0.0,0.0044978465884923935,-0.05785392224788666,0.31363967061042786,0.0,0.0,0.0,0.0,0.0,0.0,0.0,0.0,0.0
1606828569065700004,2405222,1606828569038277988,imu_link,-0.0729549303650856,-0.022706227377057076,0.1656402200460434,0.9832219481468201,0.0,0.0,0.0,0.0,0.0,0.0,0.0,0.0,0.0,19.21441650390625,-1.1736129522323608,-8.685784339904785,0.0,0.0,0.0,0.0,0.0,0.0,0.0,0.0,0.0,0.0044978465884923935,-0.05785392224788666,0.31363967061042786,0.0,0.0,0.0,0.0,0.0,0.0,0.0,0.0,0.0
1606828569065729684,2405223,1606828569038394225,imu_link,-0.07295655459165573,-0.022707128897309303,0.16564060747623444,0.9832217693328857,0.0,0.0,0.0,0.0,0.0,0.0,0.0,0.0,0.0,19.21446990966797,-1.173680067062378,-8.685986518859863,0.0,0.0,0.0,0.0,0.0,0.0,0.0,0.0,0.0,0.00833515077829361,-0.07136421650648117,0.3201960623264313,0.0,0.0,0.0,0.0,0.0,0.0,0.0,0.0,0.0
1606828569065752530,2405224,1606828569038535314,imu_link,-0.07295655459165573,-0.022707128897309303,0.16564060747623444,0.9832217693328857,0.0,0.0,0.0,0.0,0.0,0.0,0.0,0.0,0.0,19.21446990966797,-1.173680067062378,-8.685986518859863,0.0,0.0,0.0,0.0,0.0,0.0,0.0,0.0,0.0,0.00833515077829361,-0.07136421650648117,0.3201960623264313,0.0,0.0,0.0,0.0,0.0,0.0,0.0,0.0,0.0
1606828569065767865,2405225,1606828569038601800,imu_link,-0.0729537159204483,-0.02270662598311901,0.16563549637794495,0.9832228422164917,0.0,0.0,0.0,0.0,0.0,0.0,0.0,0.0,0.0,19.2138729095459,-1.1737228631973267,-8.685648918151855,0.0,0.0,0.0,0.0,0.0,0.0,0.0,0.0,0.0,-0.005143534857779741,-0.06029293313622475,0.339450865983963,0.0,0.0,0.0,0.0,0.0,0.0,0.0,0.0,0.0
1606828569065792462,2405226,1606828569038665791,imu_link,-0.0729537159204483,-0.02270662598311901,0.16563549637794495,0.9832228422164917,0.0,0.0,0.0,0.0,0.0,0.0,0.0,0.0,0.0,19.2138729095459,-1.1737228631973267,-8.685648918151855,0.0,0.0,0.0,0.0,0.0,0.0,0.0,0.0,0.0,-0.005143534857779741,-0.06029293313622475,0.339450865983963,0.0,0.0,0.0,0.0,0.0,0.0,0.0,0.0,0.0
1606828569065812607,2405227,1606828569038744521,imu_link,-0.07295283675193787,-0.022707412019371986,0.16563327610492706,0.9832232594490051,0.0,0.0,0.0,0.0,0.0,0.0,0.0,0.0,0.0,19.213619232177734,-1.1738477945327759,-8.685562133789062,0.0,0.0,0.0,0.0,0.0,0.0,0.0,0.0,0.0,-0.0005808142013847828,-0.05222109332680702,0.31712111830711365,0.0,0.0,0.0,0.0,0.0,0.0,0.0,0.0,0.0
1606828569065835129,2405228,1606828569038830299,imu_link,-0.07295283675193787,-0.022707412019371986,0.16563327610492706,0.9832232594490051,0.0,0.0,0.0,0.0,0.0,0.0,0.0,0.0,0.0,19.213619232177734,-1.1738477945327759,-8.685562133789062,0.0,0.0,0.0,0.0,0.0,0.0,0.0,0.0,0.0,-0.0005808142013847828,-0.05222109332680702,0.31712111830711365,0.0,0.0,0.0,0.0,0.0,0.0,0.0,0.0,0.0
1606828569065870639,2405229,1606828569038893236,imu_link,-0.07295358180999756,-0.022707954049110413,0.16562941670417786,0.9832237958908081,0.0,0.0,0.0,0.0,0.0,0.0,0.0,0.0,0.0,19.213178634643555,-1.1739283800125122,-8.685652732849121,0.0,0.0,0.0,0.0,0.0,0.0,0.0,0.0,0.0,0.018069779500365257,-0.05140422284603119,0.30489400029182434,0.0,0.0,0.0,0.0,0.0,0.0,0.0,0.0,0.0
1606828569065881836,2405230,1606828569038954550,imu_link,-0.07295358180999756,-0.022707954049110413,0.16562941670417786,0.9832237958908081,0.0,0.0,0.0,0.0,0.0,0.0,0.0,0.0,0.0,19.213178634643555,-1.1739283800125122,-8.685652732849121,0.0,0.0,0.0,0.0,0.0,0.0,0.0,0.0,0.0,0.018069779500365257,-0.05140422284603119,0.30489400029182434,0.0,0.0,0.0,0.0,0.0,0.0,0.0,0.0,0.0
1606828569065896725,2405231,1606828569039017026,imu_link,-0.07295580953359604,-0.022709209471940994,0.16562794148921967,0.9832238554954529,0.0,0.0,0.0,0.0,0.0,0.0,0.0,0.0,0.0,19.213022232055664,-1.1740401983261108,-8.685928344726562,0.0,0.0,0.0,0.0,0.0,0.0,0.0,0.0,0.0,0.023808283731341362,-0.056403759866952896,0.3083910644054413,0.0,0.0,0.0,0.0,0.0,0.0,0.0,0.0,0.0
1606828569065915282,2405232,1606828569039085817,imu_link,-0.07295580953359604,-0.022709209471940994,0.16562794148921967,0.9832238554954529,0.0,0.0,0.0,0.0,0.0,0.0,0.0,0.0,0.0,19.213022232055664,-1.1740401983261108,-8.685928344726562,0.0,0.0,0.0,0.0,0.0,0.0,0.0,0.0,0.0,0.023808283731341362,-0.056403759866952896,0.3083910644054413,0.0,0.0,0.0,0.0,0.0,0.0,0.0,0.0,0.0
1606828569065929681,2405233,1606828569051736754,imu_link,-0.07295577973127365,-0.022707434371113777,0.16563500463962555,0.9832227230072021,0.0,0.0,0.0,0.0,0.0,0.0,0.0,0.0,0.0,19.213825225830078,-1.1737786531448364,-8.685897827148438,0.0,0.0,0.0,0.0,0.0,0.0,0.0,0.0,0.0,0.023854877799749374,-0.05998408421874046,0.34031060338020325,0.0,0.0,0.0,0.0,0.0,0.0,0.0,0.0,0.0
1606828569065947810,2405234,1606828569051845296,imu_link,-0.07295577973127365,-0.022707434371113777,0.16563500463962555,0.9832227230072021,0.0,0.0,0.0,0.0,0.0,0.0,0.0,0.0,0.0,19.213825225830078,-1.1737786531448364,-8.685897827148438,0.0,0.0,0.0,0.0,0.0,0.0,0.0,0.0,0.0,0.023854877799749374,-0.05998408421874046,0.34031060338020325,0.0,0.0,0.0,0.0,0.0,0.0,0.0,0.0,0.0
1606828569065961500,2405235,1606828569051986995,imu_link,-0.07295556366443634,-0.022706320509314537,0.16563329100608826,0.983223021030426,0.0,0.0,0.0,0.0,0.0,0.0,0.0,0.0,0.0,19.2136173248291,-1.1736723184585571,-8.685851097106934,0.0,0.0,0.0,0.0,0.0,0.0,0.0,0.0,0.0,0.02023383229970932,-0.03229663148522377,0.35968106985092163,0.0,0.0,0.0,0.0,0.0,0.0,0.0,0.0,0.0
1606828569069197856,2405236,1606828569052064915,imu_link,-0.07295556366443634,-0.022706320509314537,0.16563329100608826,0.983223021030426,0.0,0.0,0.0,0.0,0.0,0.0,0.0,0.0,0.0,19.2136173248291,-1.1736723184585571,-8.685851097106934,0.0,0.0,0.0,0.0,0.0,0.0,0.0,0.0,0.0,0.02023383229970932,-0.03229663148522377,0.35968106985092163,0.0,0.0,0.0,0.0,0.0,0.0,0.0,0.0,0.0
1606828569069213746,2405237,1606828569052136633,imu_link,-0.07295690476894379,-0.02270490862429142,0.16563984751701355,0.9832218885421753,0.0,0.0,0.0,0.0,0.0,0.0,0.0,0.0,0.0,19.21436309814453,-1.1734298467636108,-8.685982704162598,0.0,0.0,0.0,0.0,0.0,0.0,0.0,0.0,0.0,0.008651940152049065,-0.02879018522799015,0.3296984136104584,0.0,0.0,0.0,0.0,0.0,0.0,0.0,0.0,0.0
1606828569069228933,2405238,1606828569052199013,imu_link,-0.07295690476894379,-0.02270490862429142,0.16563984751701355,0.9832218885421753,0.0,0.0,0.0,0.0,0.0,0.0,0.0,0.0,0.0,19.21436309814453,-1.1734298467636108,-8.685982704162598,0.0,0.0,0.0,0.0,0.0,0.0,0.0,0.0,0.0,0.008651940152049065,-0.02879018522799015,0.3296984136104584,0.0,0.0,0.0,0.0,0.0,0.0,0.0,0.0,0.0
1606828569069254882,2405239,1606828569052284458,imu_link,-0.07295732200145721,-0.0227060429751873,0.1656370908021927,0.9832223057746887,0.0,0.0,0.0,0.0,0.0,0.0,0.0,0.0,0.0,19.21405601501465,-1.1735739707946777,-8.686047554016113,0.0,0.0,0.0,0.0,0.0,0.0,0.0,0.0,0.0,0.019443312659859657,-0.048158690333366394,0.3436136245727539,0.0,0.0,0.0,0.0,0.0,0.0,0.0,0.0,0.0
1606828569069297934,2405240,1606828569052357563,imu_link,-0.07295732200145721,-0.0227060429751873,0.1656370908021927,0.9832223057746887,0.0,0.0,0.0,0.0,0.0,0.0,0.0,0.0,0.0,19.21405601501465,-1.1735739707946777,-8.686047554016113,0.0,0.0,0.0,0.0,0.0,0.0,0.0,0.0,0.0,0.019443312659859657,-0.048158690333366394,0.3436136245727539,0.0,0.0,0.0,0.0,0.0,0.0,0.0,0.0,0.0
1606828569069314799,2405241,1606828569052425287,imu_link,-0.07295677810907364,-0.022706033661961555,0.1656477153301239,0.9832205772399902,0.0,0.0,0.0,0.0,0.0,0.0,0.0,0.0,0.0,19.215286254882812,-1.1734898090362549,-8.685998916625977,0.0,0.0,0.0,0.0,0.0,0.0,0.0,0.0,0.0,0.03877444192767143,-0.04762697219848633,0.35459861159324646,0.0,0.0,0.0,0.0,0.0,0.0,0.0,0.0,0.0
1606828569069338419,2405242,1606828569052492811,imu_link,-0.07295677810907364,-0.022706033661961555,0.1656477153301239,0.9832205772399902,0.0,0.0,0.0,0.0,0.0,0.0,0.0,0.0,0.0,19.215286254882812,-1.1734898090362549,-8.685998916625977,0.0,0.0,0.0,0.0,0.0,0.0,0.0,0.0,0.0,0.03877444192767143,-0.04762697219848633,0.35459861159324646,0.0,0.0,0.0,0.0,0.0,0.0,0.0,0.0,0.0
1606828569069379403,2405243,1606828569052562267,imu_link,-0.07295703887939453,-0.02270636521279812,0.1656496524810791,0.9832202196121216,0.0,0.0,0.0,0.0,0.0,0.0,0.0,0.0,0.0,19.215513229370117,-1.173505187034607,-8.686037063598633,0.0,0.0,0.0,0.0,0.0,0.0,0.0,0.0,0.0,0.01262553222477436,-0.057977065443992615,0.33156147599220276,0.0,0.0,0.0,0.0,0.0,0.0,0.0,0.0,0.0
1606828569074852781,2405244,1606828569065572207,imu_link,-0.07295703887939453,-0.02270636521279812,0.1656496524810791,0.9832202196121216,0.0,0.0,0.0,0.0,0.0,0.0,0.0,0.0,0.0,19.215513229370117,-1.173505187034607,-8.686037063598633,0.0,0.0,0.0,0.0,0.0,0.0,0.0,0.0,0.0,0.01262553222477436,-0.057977065443992615,0.33156147599220276,0.0,0.0,0.0,0.0,0.0,0.0,0.0,0.0,0.0
1606828569076522715,2405245,1606828569065692557,imu_link,-0.0729542076587677,-0.022704793140292168,0.16565680503845215,0.9832192659378052,0.0,0.0,0.0,0.0,0.0,0.0,0.0,0.0,0.0,19.216323852539062,-1.1733194589614868,-8.685693740844727,0.0,0.0,0.0,0.0,0.0,0.0,0.0,0.0,0.0,0.004340224899351597,-0.07076802104711533,0.3223307728767395,0.0,0.0,0.0,0.0,0.0,0.0,0.0,0.0,0.0
1606828569076553752,2405246,1606828569065991285,imu_link,-0.0729542076587677,-0.022704793140292168,0.16565680503845215,0.9832192659378052,0.0,0.0,0.0,0.0,0.0,0.0,0.0,0.0,0.0,19.216323852539062,-1.1733194589614868,-8.685693740844727,0.0,0.0,0.0,0.0,0.0,0.0,0.0,0.0,0.0,0.004340224899351597,-0.07076802104711533,0.3223307728767395,0.0,0.0,0.0,0.0,0.0,0.0,0.0,0.0,0.0
1606828569076587780,2405247,1606828569066135029,imu_link,-0.07295482605695724,-0.02270548790693283,0.16565558314323425,0.98321932554245,0.0,0.0,0.0,0.0,0.0,0.0,0.0,0.0,0.0,19.2161922454834,-1.1733964681625366,-8.685776710510254,0.0,0.0,0.0,0.0,0.0,0.0,0.0,0.0,0.0,0.0005786153487861156,-0.061097025871276855,0.31809255480766296,0.0,0.0,0.0,0.0,0.0,0.0,0.0,0.0,0.0
1606828569076628787,2405248,1606828569066206029,imu_link,-0.07295482605695724,-0.02270548790693283,0.16565558314323425,0.98321932554245,0.0,0.0,0.0,0.0,0.0,0.0,0.0,0.0,0.0,19.2161922454834,-1.1733964681625366,-8.685776710510254,0.0,0.0,0.0,0.0,0.0,0.0,0.0,0.0,0.0,0.0005786153487861156,-0.061097025871276855,0.31809255480766296,0.0,0.0,0.0,0.0,0.0,0.0,0.0,0.0,0.0
1606828569076644313,2405249,1606828569066302496,imu_link,-0.07295508682727814,-0.02270399034023285,0.16566303372383118,0.9832180738449097,0.0,0.0,0.0,0.0,0.0,0.0,0.0,0.0,0.0,19.217041015625,-1.1731570959091187,-8.685786247253418,0.0,0.0,0.0,0.0,0.0,0.0,0.0,0.0,0.0,0.0037425379268825054,-0.038868363946676254,0.3480715751647949,0.0,0.0,0.0,0.0,0.0,0.0,0.0,0.0,0.0
1606828569076662570,2405250,1606828569066372858,imu_link,-0.07295508682727814,-0.02270399034023285,0.16566303372383118,0.9832180738449097,0.0,0.0,0.0,0.0,0.0,0.0,0.0,0.0,0.0,19.217041015625,-1.1731570959091187,-8.685786247253418,0.0,0.0,0.0,0.0,0.0,0.0,0.0,0.0,0.0,0.0037425379268825054,-0.038868363946676254,0.3480715751647949,0.0,0.0,0.0,0.0,0.0,0.0,0.0,0.0,0.0
1606828569076706875,2405251,1606828569066440794,imu_link,-0.07295665144920349,-0.022702764719724655,0.16566407680511475,0.9832178950309753,0.0,0.0,0.0,0.0,0.0,0.0,0.0,0.0,0.0,19.217151641845703,-1.1729800701141357,-8.68593978881836,0.0,0.0,0.0,0.0,0.0,0.0,0.0,0.0,0.0,0.025465887039899826,-0.023870114237070084,0.36061805486679077,0.0,0.0,0.0,0.0,0.0,0.0,0.0,0.0,0.0
1606828569076724846,2405252,1606828569066510051,imu_link,-0.07295665144920349,-0.022702764719724655,0.16566407680511475,0.9832178950309753,0.0,0.0,0.0,0.0,0.0,0.0,0.0,0.0,0.0,19.217151641845703,-1.1729800701141357,-8.68593978881836,0.0,0.0,0.0,0.0,0.0,0.0,0.0,0.0,0.0,0.025465887039899826,-0.023870114237070084,0.36061805486679077,0.0,0.0,0.0,0.0,0.0,0.0,0.0,0.0,0.0
1606828569077396020,2405253,1606828569066580061,imu_link,-0.07296069711446762,-0.02269984409213066,0.16567295789718628,0.9832161664962769,0.0,0.0,0.0,0.0,0.0,0.0,0.0,0.0,0.0,19.218156814575195,-1.1724953651428223,-8.686352729797363,0.0,0.0,0.0,0.0,0.0,0.0,0.0,0.0,0.0,0.021915221586823463,-0.03935464844107628,0.329568088054657,0.0,0.0,0.0,0.0,0.0,0.0,0.0,0.0,0.0
1606828569077419660,2405254,1606828569066659885,imu_link,-0.07296069711446762,-0.02269984409213066,0.16567295789718628,0.9832161664962769,0.0,0.0,0.0,0.0,0.0,0.0,0.0,0.0,0.0,19.218156814575195,-1.1724953651428223,-8.686352729797363,0.0,0.0,0.0,0.0,0.0,0.0,0.0,0.0,0.0,0.021915221586823463,-0.03935464844107628,0.329568088054657,0.0,0.0,0.0,0.0,0.0,0.0,0.0,0.0,0.0
1606828569087747491,2405255,1606828569078479407,imu_link,-0.07295987755060196,-0.022699635475873947,0.1656729280948639,0.9832162261009216,0.0,0.0,0.0,0.0,0.0,0.0,0.0,0.0,0.0,19.218151092529297,-1.1724879741668701,-8.686256408691406,0.0,0.0,0.0,0.0,0.0,0.0,0.0,0.0,0.0,0.011998319998383522,-0.04662943258881569,0.30803152918815613,0.0,0.0,0.0,0.0,0.0,0.0,0.0,0.0,0.0
1606828569089333088,2405256,1606828569078601929,imu_link,-0.07295987755060196,-0.022699635475873947,0.1656729280948639,0.9832162261009216,0.0,0.0,0.0,0.0,0.0,0.0,0.0,0.0,0.0,19.218151092529297,-1.1724879741668701,-8.686256408691406,0.0,0.0,0.0,0.0,0.0,0.0,0.0,0.0,0.0,0.011998319998383522,-0.04662943258881569,0.30803152918815613,0.0,0.0,0.0,0.0,0.0,0.0,0.0,0.0,0.0
1606828569089360507,2405257,1606828569078758968,imu_link,-0.07296036928892136,-0.022700011730194092,0.16566690802574158,0.9832172393798828,0.0,0.0,0.0,0.0,0.0,0.0,0.0,0.0,0.0,19.217456817626953,-1.1725739240646362,-8.686312675476074,0.0,0.0,0.0,0.0,0.0,0.0,0.0,0.0,0.0,-0.0021563987247645855,-0.043202340602874756,0.3126683831214905,0.0,0.0,0.0,0.0,0.0,0.0,0.0,0.0,0.0
1606828569089373706,2405258,1606828569078830541,imu_link,-0.07296036928892136,-0.022700011730194092,0.16566690802574158,0.9832172393798828,0.0,0.0,0.0,0.0,0.0,0.0,0.0,0.0,0.0,19.217456817626953,-1.1725739240646362,-8.686312675476074,0.0,0.0,0.0,0.0,0.0,0.0,0.0,0.0,0.0,-0.0021563987247645855,-0.043202340602874756,0.3126683831214905,0.0,0.0,0.0,0.0,0.0,0.0,0.0,0.0,0.0
1606828569089395470,2405259,1606828569078907266,imu_link,-0.07296020537614822,-0.022698434069752693,0.16566744446754456,0.983217179775238,0.0,0.0,0.0,0.0,0.0,0.0,0.0,0.0,0.0,19.217506408691406,-1.1723945140838623,-8.686263084411621,0.0,0.0,0.0,0.0,0.0,0.0,0.0,0.0,0.0,-0.009065281599760056,-0.03958294913172722,0.3250497877597809,0.0,0.0,0.0,0.0,0.0,0.0,0.0,0.0,0.0
1606828569089405529,2405260,1606828569079009818,imu_link,-0.07296020537614822,-0.022698434069752693,0.16566744446754456,0.983217179775238,0.0,0.0,0.0,0.0,0.0,0.0,0.0,0.0,0.0,19.217506408691406,-1.1723945140838623,-8.686263084411621,0.0,0.0,0.0,0.0,0.0,0.0,0.0,0.0,0.0,-0.009065281599760056,-0.03958294913172722,0.3250497877597809,0.0,0.0,0.0,0.0,0.0,0.0,0.0,0.0,0.0
1606828569089414378,2405261,1606828569079085949,imu_link,-0.07296301424503326,-0.022699786350131035,0.16566181182861328,0.9832178950309753,0.0,0.0,0.0,0.0,0.0,0.0,0.0,0.0,0.0,19.216867446899414,-1.172542691230774,-8.686600685119629,0.0,0.0,0.0,0.0,0.0,0.0,0.0,0.0,0.0,-0.0020173233933746815,-0.038920704275369644,0.310316801071167,0.0,0.0,0.0,0.0,0.0,0.0,0.0,0.0,0.0
1606828569089421970,2405262,1606828569079153750,imu_link,-0.07296301424503326,-0.022699786350131035,0.16566181182861328,0.9832178950309753,0.0,0.0,0.0,0.0,0.0,0.0,0.0,0.0,0.0,19.216867446899414,-1.172542691230774,-8.686600685119629,0.0,0.0,0.0,0.0,0.0,0.0,0.0,0.0,0.0,-0.0020173233933746815,-0.038920704275369644,0.310316801071167,0.0,0.0,0.0,0.0,0.0,0.0,0.0,0.0,0.0
1606828569089432309,2405263,1606828569079222927,imu_link,-0.07296154648065567,-0.02269912324845791,0.16566228866577148,0.9832179546356201,0.0,0.0,0.0,0.0,0.0,0.0,0.0,0.0,0.0,19.216915130615234,-1.1724920272827148,-8.686422348022461,0.0,0.0,0.0,0.0,0.0,0.0,0.0,0.0,0.0,0.005555897951126099,-0.044517189264297485,0.29788872599601746,0.0,0.0,0.0,0.0,0.0,0.0,0.0,0.0,0.0
1606828569093546025,2405264,1606828569079396848,imu_link,-0.07296154648065567,-0.02269912324845791,0.16566228866577148,0.9832179546356201,0.0,0.0,0.0,0.0,0.0,0.0,0.0,0.0,0.0,19.216915130615234,-1.1724920272827148,-8.686422348022461,0.0,0.0,0.0,0.0,0.0,0.0,0.0,0.0,0.0,0.005555897951126099,-0.044517189264297485,0.29788872599601746,0.0,0.0,0.0,0.0,0.0,0.0,0.0,0.0,0.0
1606828569101237629,2405265,1606828569091972068,imu_link,-0.07296319305896759,-0.02269846200942993,0.1656496524810791,0.9832199215888977,0.0,0.0,0.0,0.0,0.0,0.0,0.0,0.0,0.0,19.21544647216797,-1.1724971532821655,-8.6865816116333,0.0,0.0,0.0,0.0,0.0,0.0,0.0,0.0,0.0,0.0008901418186724186,-0.038747143000364304,0.3082132935523987,0.0,0.0,0.0,0.0,0.0,0.0,0.0,0.0,0.0
1606828569103157408,2405266,1606828569092098868,imu_link,-0.07296319305896759,-0.02269846200942993,0.1656496524810791,0.9832199215888977,0.0,0.0,0.0,0.0,0.0,0.0,0.0,0.0,0.0,19.21544647216797,-1.1724971532821655,-8.6865816116333,0.0,0.0,0.0,0.0,0.0,0.0,0.0,0.0,0.0,0.0008901418186724186,-0.038747143000364304,0.3082132935523987,0.0,0.0,0.0,0.0,0.0,0.0,0.0,0.0,0.0
1606828569103176646,2405267,1606828569092272745,imu_link,-0.0729634165763855,-0.022700322791934013,0.1656494140625,0.9832198619842529,0.0,0.0,0.0,0.0,0.0,0.0,0.0,0.0,0.0,19.215438842773438,-1.1727042198181152,-8.68664264678955,0.0,0.0,0.0,0.0,0.0,0.0,0.0,0.0,0.0,0.010784830898046494,-0.04854268208146095,0.31392642855644226,0.0,0.0,0.0,0.0,0.0,0.0,0.0,0.0,0.0
1606828569103193365,2405268,1606828569092382656,imu_link,-0.0729634165763855,-0.022700322791934013,0.1656494140625,0.9832198619842529,0.0,0.0,0.0,0.0,0.0,0.0,0.0,0.0,0.0,19.215438842773438,-1.1727042198181152,-8.68664264678955,0.0,0.0,0.0,0.0,0.0,0.0,0.0,0.0,0.0,0.010784830898046494,-0.04854268208146095,0.31392642855644226,0.0,0.0,0.0,0.0,0.0,0.0,0.0,0.0,0.0
1606828569103208583,2405269,1606828569092473168,imu_link,-0.07296371459960938,-0.022700149565935135,0.1656382530927658,0.9832217693328857,0.0,0.0,0.0,0.0,0.0,0.0,0.0,0.0,0.0,19.214141845703125,-1.1727772951126099,-8.686659812927246,0.0,0.0,0.0,0.0,0.0,0.0,0.0,0.0,0.0,0.01724414899945259,-0.05847523361444473,0.3148978352546692,0.0,0.0,0.0,0.0,0.0,0.0,0.0,0.0,0.0
1606828569103231877,2405270,1606828569092543174,imu_link,-0.07296371459960938,-0.022700149565935135,0.1656382530927658,0.9832217693328857,0.0,0.0,0.0,0.0,0.0,0.0,0.0,0.0,0.0,19.214141845703125,-1.1727772951126099,-8.686659812927246,0.0,0.0,0.0,0.0,0.0,0.0,0.0,0.0,0.0,0.01724414899945259,-0.05847523361444473,0.3148978352546692,0.0,0.0,0.0,0.0,0.0,0.0,0.0,0.0,0.0
1606828569103250747,2405271,1606828569092638883,imu_link,-0.07296445965766907,-0.022701125591993332,0.16563905775547028,0.9832215309143066,0.0,0.0,0.0,0.0,0.0,0.0,0.0,0.0,0.0,19.214244842529297,-1.172865867614746,-8.68676471710205,0.0,0.0,0.0,0.0,0.0,0.0,0.0,0.0,0.0,-0.0013604089617729187,-0.06119538098573685,0.3179504871368408,0.0,0.0,0.0,0.0,0.0,0.0,0.0,0.0,0.0
1606828569103275596,2405272,1606828569092708319,imu_link,-0.07296445965766907,-0.022701125591993332,0.16563905775547028,0.9832215309143066,0.0,0.0,0.0,0.0,0.0,0.0,0.0,0.0,0.0,19.214244842529297,-1.172865867614746,-8.68676471710205,0.0,0.0,0.0,0.0,0.0,0.0,0.0,0.0,0.0,-0.0013604089617729187,-0.06119538098573685,0.3179504871368408,0.0,0.0,0.0,0.0,0.0,0.0,0.0,0.0,0.0
1606828569103285614,2405273,1606828569092772298,imu_link,-0.07296156138181686,-0.022702833637595177,0.1656314879655838,0.9832229614257812,0.0,0.0,0.0,0.0,0.0,0.0,0.0,0.0,0.0,19.213380813598633,-1.173180341720581,-8.6864595413208,0.0,0.0,0.0,0.0,0.0,0.0,0.0,0.0,0.0,0.0019025136716663837,-0.04921150580048561,0.3051972985267639,0.0,0.0,0.0,0.0,0.0,0.0,0.0,0.0,0.0
1606828569104904424,2405274,1606828569092885533,imu_link,-0.07296156138181686,-0.022702833637595177,0.1656314879655838,0.9832229614257812,0.0,0.0,0.0,0.0,0.0,0.0,0.0,0.0,0.0,19.213380813598633,-1.173180341720581,-8.6864595413208,0.0,0.0,0.0,0.0,0.0,0.0,0.0,0.0,0.0,0.0019025136716663837,-0.04921150580048561,0.3051972985267639,0.0,0.0,0.0,0.0,0.0,0.0,0.0,0.0,0.0
1606828569104923615,2405275,1606828569092956372,imu_link,-0.07296248525381088,-0.022703325375914574,0.16563168168067932,0.9832229018211365,0.0,0.0,0.0,0.0,0.0,0.0,0.0,0.0,0.0,19.213409423828125,-1.173216462135315,-8.68657398223877,0.0,0.0,0.0,0.0,0.0,0.0,0.0,0.0,0.0,0.0019868072122335434,-0.04291505739092827,0.2945955991744995,0.0,0.0,0.0,0.0,0.0,0.0,0.0,0.0,0.0
1606828569115365973,2405276,1606828569105602357,imu_link,-0.07296248525381088,-0.022703325375914574,0.16563168168067932,0.9832229018211365,0.0,0.0,0.0,0.0,0.0,0.0,0.0,0.0,0.0,19.213409423828125,-1.173216462135315,-8.68657398223877,0.0,0.0,0.0,0.0,0.0,0.0,0.0,0.0,0.0,0.0019868072122335434,-0.04291505739092827,0.2945955991744995,0.0,0.0,0.0,0.0,0.0,0.0,0.0,0.0,0.0
1606828569115397473,2405277,1606828569105714512,imu_link,-0.07296175509691238,-0.02270314283668995,0.1656278520822525,0.983223557472229,0.0,0.0,0.0,0.0,0.0,0.0,0.0,0.0,0.0,19.212961196899414,-1.173243522644043,-8.686483383178711,0.0,0.0,0.0,0.0,0.0,0.0,0.0,0.0,0.0,-0.006157160736620426,-0.05771005153656006,0.327120304107666,0.0,0.0,0.0,0.0,0.0,0.0,0.0,0.0,0.0
1606828569115416760,2405278,1606828569105925703,imu_link,-0.07296175509691238,-0.02270314283668995,0.1656278520822525,0.983223557472229,0.0,0.0,0.0,0.0,0.0,0.0,0.0,0.0,0.0,19.212961196899414,-1.173243522644043,-8.686483383178711,0.0,0.0,0.0,0.0,0.0,0.0,0.0,0.0,0.0,-0.006157160736620426,-0.05771005153656006,0.327120304107666,0.0,0.0,0.0,0.0,0.0,0.0,0.0,0.0,0.0
1606828569115433098,2405279,1606828569106039261,imu_link,-0.07296154648065567,-0.02270296774804592,0.16562895476818085,0.9832233786582947,0.0,0.0,0.0,0.0,0.0,0.0,0.0,0.0,0.0,19.213090896606445,-1.173218011856079,-8.686458587646484,0.0,0.0,0.0,0.0,0.0,0.0,0.0,0.0,0.0,-0.0055625345557928085,-0.06160441040992737,0.3415168821811676,0.0,0.0,0.0,0.0,0.0,0.0,0.0,0.0,0.0
1606828569115452933,2405280,1606828569106106801,imu_link,-0.07296154648065567,-0.02270296774804592,0.16562895476818085,0.9832233786582947,0.0,0.0,0.0,0.0,0.0,0.0,0.0,0.0,0.0,19.213090896606445,-1.173218011856079,-8.686458587646484,0.0,0.0,0.0,0.0,0.0,0.0,0.0,0.0,0.0,-0.0055625345557928085,-0.06160441040992737,0.3415168821811676,0.0,0.0,0.0,0.0,0.0,0.0,0.0,0.0,0.0
1606828569117231775,2405281,1606828569106173447,imu_link,-0.07296163588762283,-0.022703006863594055,0.16563640534877777,0.9832221269607544,0.0,0.0,0.0,0.0,0.0,0.0,0.0,0.0,0.0,19.21395492553711,-1.1731550693511963,-8.686477661132812,0.0,0.0,0.0,0.0,0.0,0.0,0.0,0.0,0.0,0.018644601106643677,-0.056989625096321106,0.32238879799842834,0.0,0.0,0.0,0.0,0.0,0.0,0.0,0.0,0.0
1606828569117249322,2405282,1606828569106260712,imu_link,-0.07296163588762283,-0.022703006863594055,0.16563640534877777,0.9832221269607544,0.0,0.0,0.0,0.0,0.0,0.0,0.0,0.0,0.0,19.21395492553711,-1.1731550693511963,-8.686477661132812,0.0,0.0,0.0,0.0,0.0,0.0,0.0,0.0,0.0,0.018644601106643677,-0.056989625096321106,0.32238879799842834,0.0,0.0,0.0,0.0,0.0,0.0,0.0,0.0,0.0
1606828569117264413,2405283,1606828569106367792,imu_link,-0.07295924425125122,-0.02270250953733921,0.16563557088375092,0.983222484588623,0.0,0.0,0.0,0.0,0.0,0.0,0.0,0.0,0.0,19.21384620666504,-1.1731523275375366,-8.686196327209473,0.0,0.0,0.0,0.0,0.0,0.0,0.0,0.0,0.0,0.030967218801379204,-0.06612855195999146,0.3411526381969452,0.0,0.0,0.0,0.0,0.0,0.0,0.0,0.0,0.0
1606828569117282481,2405284,1606828569106497106,imu_link,-0.07295924425125122,-0.02270250953733921,0.16563557088375092,0.983222484588623,0.0,0.0,0.0,0.0,0.0,0.0,0.0,0.0,0.0,19.21384620666504,-1.1731523275375366,-8.686196327209473,0.0,0.0,0.0,0.0,0.0,0.0,0.0,0.0,0.0,0.030967218801379204,-0.06612855195999146,0.3411526381969452,0.0,0.0,0.0,0.0,0.0,0.0,0.0,0.0,0.0
1606828569117308498,2405285,1606828569106599025,imu_link,-0.07295836508274078,-0.022700384259223938,0.1656426191329956,0.9832214117050171,0.0,0.0,0.0,0.0,0.0,0.0,0.0,0.0,0.0,19.214645385742188,-1.1728678941726685,-8.686063766479492,0.0,0.0,0.0,0.0,0.0,0.0,0.0,0.0,0.0,0.009027255699038506,-0.05916609987616539,0.3552449941635132,0.0,0.0,0.0,0.0,0.0,0.0,0.0,0.0,0.0
1606828569117330292,2405286,1606828569106672042,imu_link,-0.07295836508274078,-0.022700384259223938,0.1656426191329956,0.9832214117050171,0.0,0.0,0.0,0.0,0.0,0.0,0.0,0.0,0.0,19.214645385742188,-1.1728678941726685,-8.686063766479492,0.0,0.0,0.0,0.0,0.0,0.0,0.0,0.0,0.0,0.009027255699038506,-0.05916609987616539,0.3552449941635132,0.0,0.0,0.0,0.0,0.0,0.0,0.0,0.0,0.0
1606828569128446257,2405287,1606828569119210209,imu_link,-0.07295756042003632,-0.022698914632201195,0.16564345359802246,0.9832213521003723,0.0,0.0,0.0,0.0,0.0,0.0,0.0,0.0,0.0,19.214725494384766,-1.1727104187011719,-8.685945510864258,0.0,0.0,0.0,0.0,0.0,0.0,0.0,0.0,0.0,0.016845181584358215,-0.036363229155540466,0.33195945620536804,0.0,0.0,0.0,0.0,0.0,0.0,0.0,0.0,0.0
1606828569135050719,2405288,1606828569119404873,imu_link,-0.07295756042003632,-0.022698914632201195,0.16564345359802246,0.9832213521003723,0.0,0.0,0.0,0.0,0.0,0.0,0.0,0.0,0.0,19.214725494384766,-1.1727104187011719,-8.685945510864258,0.0,0.0,0.0,0.0,0.0,0.0,0.0,0.0,0.0,0.016845181584358215,-0.036363229155540466,0.33195945620536804,0.0,0.0,0.0,0.0,0.0,0.0,0.0,0.0,0.0
1606828569135080686,2405289,1606828569119513203,imu_link,-0.07296028733253479,-0.022698689252138138,0.16565172374248505,0.9832198023796082,0.0,0.0,0.0,0.0,0.0,0.0,0.0,0.0,0.0,19.215686798095703,-1.1725600957870483,-8.686259269714355,0.0,0.0,0.0,0.0,0.0,0.0,0.0,0.0,0.0,0.03316531702876091,-0.033093176782131195,0.32245251536369324,0.0,0.0,0.0,0.0,0.0,0.0,0.0,0.0,0.0
1606828569135105296,2405290,1606828569119606003,imu_link,-0.07296028733253479,-0.022698689252138138,0.16565172374248505,0.9832198023796082,0.0,0.0,0.0,0.0,0.0,0.0,0.0,0.0,0.0,19.215686798095703,-1.1725600957870483,-8.686259269714355,0.0,0.0,0.0,0.0,0.0,0.0,0.0,0.0,0.0,0.03316531702876091,-0.033093176782131195,0.32245251536369324,0.0,0.0,0.0,0.0,0.0,0.0,0.0,0.0,0.0
1606828569135152112,2405291,1606828569119692302,imu_link,-0.07296028733253479,-0.022698689252138138,0.16565172374248505,0.9832198023796082,0.0,0.0,0.0,0.0,0.0,0.0,0.0,0.0,0.0,19.215686798095703,-1.1725600957870483,-8.686259269714355,0.0,0.0,0.0,0.0,0.0,0.0,0.0,0.0,0.0,0.029206661507487297,-0.04836554452776909,0.32346272468566895,0.0,0.0,0.0,0.0,0.0,0.0,0.0,0.0,0.0
1606828569135172750,2405292,1606828569119786459,imu_link,-0.07296028733253479,-0.022698689252138138,0.16565172374248505,0.9832198023796082,0.0,0.0,0.0,0.0,0.0,0.0,0.0,0.0,0.0,19.215686798095703,-1.1725600957870483,-8.686259269714355,0.0,0.0,0.0,0.0,0.0,0.0,0.0,0.0,0.0,0.029206661507487297,-0.04836554452776909,0.32346272468566895,0.0,0.0,0.0,0.0,0.0,0.0,0.0,0.0,0.0
1606828569135199831,2405293,1606828569119968369,imu_link,-0.07296156138181686,-0.022692695260047913,0.1656596064567566,0.9832184910774231,0.0,0.0,0.0,0.0,0.0,0.0,0.0,0.0,0.0,19.2165470123291,-1.1717910766601562,-8.686296463012695,0.0,0.0,0.0,0.0,0.0,0.0,0.0,0.0,0.0,0.014887942001223564,-0.05609702318906784,0.3166012763977051,0.0,0.0,0.0,0.0,0.0,0.0,0.0,0.0,0.0
1606828569135207238,2405294,1606828569120058592,imu_link,-0.07296156138181686,-0.022692695260047913,0.1656596064567566,0.9832184910774231,0.0,0.0,0.0,0.0,0.0,0.0,0.0,0.0,0.0,19.2165470123291,-1.1717910766601562,-8.686296463012695,0.0,0.0,0.0,0.0,0.0,0.0,0.0,0.0,0.0,0.014887942001223564,-0.05609702318906784,0.3166012763977051,0.0,0.0,0.0,0.0,0.0,0.0,0.0,0.0,0.0
1606828569135224641,2405295,1606828569120139028,imu_link,-0.07296183705329895,-0.022692503407597542,0.16566142439842224,0.9832181930541992,0.0,0.0,0.0,0.0,0.0,0.0,0.0,0.0,0.0,19.216754913330078,-1.1717482805252075,-8.686327934265137,0.0,0.0,0.0,0.0,0.0,0.0,0.0,0.0,0.0,0.009200366213917732,-0.04932677373290062,0.32054874300956726,0.0,0.0,0.0,0.0,0.0,0.0,0.0,0.0,0.0
1606828569135256174,2405296,1606828569120226806,imu_link,-0.07296183705329895,-0.022692503407597542,0.16566142439842224,0.9832181930541992,0.0,0.0,0.0,0.0,0.0,0.0,0.0,0.0,0.0,19.216754913330078,-1.1717482805252075,-8.686327934265137,0.0,0.0,0.0,0.0,0.0,0.0,0.0,0.0,0.0,0.009200366213917732,-0.04932677373290062,0.32054874300956726,0.0,0.0,0.0,0.0,0.0,0.0,0.0,0.0,0.0
1606828569135264474,2405297,1606828569120312313,imu_link,-0.07296209037303925,-0.02269163355231285,0.16566452383995056,0.983217716217041,0.0,0.0,0.0,0.0,0.0,0.0,0.0,0.0,0.0,19.217105865478516,-1.1716182231903076,-8.68634033203125,0.0,0.0,0.0,0.0,0.0,0.0,0.0,0.0,0.0,0.021559152752161026,-0.052100468426942825,0.3142041563987732,0.0,0.0,0.0,0.0,0.0,0.0,0.0,0.0,0.0
1606828569142776223,2405298,1606828569132944324,imu_link,-0.07296209037303925,-0.02269163355231285,0.16566452383995056,0.983217716217041,0.0,0.0,0.0,0.0,0.0,0.0,0.0,0.0,0.0,19.217105865478516,-1.1716182231903076,-8.68634033203125,0.0,0.0,0.0,0.0,0.0,0.0,0.0,0.0,0.0,0.021559152752161026,-0.052100468426942825,0.3142041563987732,0.0,0.0,0.0,0.0,0.0,0.0,0.0,0.0,0.0
1606828569142793767,2405299,1606828569133076454,imu_link,-0.07296297699213028,-0.022689158096909523,0.1656634360551834,0.9832178354263306,0.0,0.0,0.0,0.0,0.0,0.0,0.0,0.0,0.0,19.216960906982422,-1.1713318824768066,-8.686393737792969,0.0,0.0,0.0,0.0,0.0,0.0,0.0,0.0,0.0,0.018116410821676254,-0.047741807997226715,0.3053584694862366,0.0,0.0,0.0,0.0,0.0,0.0,0.0,0.0,0.0
1606828569142828396,2405300,1606828569133239615,imu_link,-0.07296297699213028,-0.022689158096909523,0.1656634360551834,0.9832178354263306,0.0,0.0,0.0,0.0,0.0,0.0,0.0,0.0,0.0,19.216960906982422,-1.1713318824768066,-8.686393737792969,0.0,0.0,0.0,0.0,0.0,0.0,0.0,0.0,0.0,0.018116410821676254,-0.047741807997226715,0.3053584694862366,0.0,0.0,0.0,0.0,0.0,0.0,0.0,0.0,0.0
1606828569142838728,2405301,1606828569133325789,imu_link,-0.07296150922775269,-0.022687332704663277,0.16566504538059235,0.983217716217041,0.0,0.0,0.0,0.0,0.0,0.0,0.0,0.0,0.0,19.217124938964844,-1.171140193939209,-8.686193466186523,0.0,0.0,0.0,0.0,0.0,0.0,0.0,0.0,0.0,0.0064473822712898254,-0.05267507582902908,0.3210185766220093,0.0,0.0,0.0,0.0,0.0,0.0,0.0,0.0,0.0
1606828569143263497,2405302,1606828569133492980,imu_link,-0.07296150922775269,-0.022687332704663277,0.16566504538059235,0.983217716217041,0.0,0.0,0.0,0.0,0.0,0.0,0.0,0.0,0.0,19.217124938964844,-1.171140193939209,-8.686193466186523,0.0,0.0,0.0,0.0,0.0,0.0,0.0,0.0,0.0,0.0064473822712898254,-0.05267507582902908,0.3210185766220093,0.0,0.0,0.0,0.0,0.0,0.0,0.0,0.0,0.0
1606828569143282203,2405303,1606828569133628282,imu_link,-0.07296175509691238,-0.022688623517751694,0.16566447913646698,0.9832177758216858,0.0,0.0,0.0,0.0,0.0,0.0,0.0,0.0,0.0,19.217073440551758,-1.17128586769104,-8.686246871948242,0.0,0.0,0.0,0.0,0.0,0.0,0.0,0.0,0.0,0.013815670274198055,-0.053332407027482986,0.32723376154899597,0.0,0.0,0.0,0.0,0.0,0.0,0.0,0.0,0.0
1606828569143305924,2405304,1606828569133712667,imu_link,-0.07296175509691238,-0.022688623517751694,0.16566447913646698,0.9832177758216858,0.0,0.0,0.0,0.0,0.0,0.0,0.0,0.0,0.0,19.217073440551758,-1.17128586769104,-8.686246871948242,0.0,0.0,0.0,0.0,0.0,0.0,0.0,0.0,0.0,0.013815670274198055,-0.053332407027482986,0.32723376154899597,0.0,0.0,0.0,0.0,0.0,0.0,0.0,0.0,0.0
1606828569143314650,2405305,1606828569133794616,imu_link,-0.07296202331781387,-0.022685935720801353,0.16565430164337158,0.983219563961029,0.0,0.0,0.0,0.0,0.0,0.0,0.0,0.0,0.0,19.21586799621582,-1.171067714691162,-8.686212539672852,0.0,0.0,0.0,0.0,0.0,0.0,0.0,0.0,0.0,0.024052603170275688,-0.03638866916298866,0.3129625916481018,0.0,0.0,0.0,0.0,0.0,0.0,0.0,0.0,0.0
1606828569160816454,2405306,1606828569133875999,imu_link,-0.07296202331781387,-0.022685935720801353,0.16565430164337158,0.983219563961029,0.0,0.0,0.0,0.0,0.0,0.0,0.0,0.0,0.0,19.21586799621582,-1.171067714691162,-8.686212539672852,0.0,0.0,0.0,0.0,0.0,0.0,0.0,0.0,0.0,0.024052603170275688,-0.03638866916298866,0.3129625916481018,0.0,0.0,0.0,0.0,0.0,0.0,0.0,0.0,0.0
1606828569160840610,2405307,1606828569133952676,imu_link,-0.07296004146337509,-0.022684337571263313,0.16565603017807007,0.9832194447517395,0.0,0.0,0.0,0.0,0.0,0.0,0.0,0.0,0.0,19.216053009033203,-1.1709105968475342,-8.685958862304688,0.0,0.0,0.0,0.0,0.0,0.0,0.0,0.0,0.0,0.004764326382428408,-0.02972058765590191,0.29033857583999634,0.0,0.0,0.0,0.0,0.0,0.0,0.0,0.0,0.0
1606828569160867707,2405308,1606828569134028531,imu_link,-0.07296004146337509,-0.022684337571263313,0.16565603017807007,0.9832194447517395,0.0,0.0,0.0,0.0,0.0,0.0,0.0,0.0,0.0,19.216053009033203,-1.1709105968475342,-8.685958862304688,0.0,0.0,0.0,0.0,0.0,0.0,0.0,0.0,0.0,0.004764326382428408,-0.02972058765590191,0.29033857583999634,0.0,0.0,0.0,0.0,0.0,0.0,0.0,0.0,0.0
1606828569160884927,2405309,1606828569145951499,imu_link,-0.07296375185251236,-0.02268463931977749,0.16564424335956573,0.9832210540771484,0.0,0.0,0.0,0.0,0.0,0.0,0.0,0.0,0.0,19.21469497680664,-1.1709768772125244,-8.686370849609375,0.0,0.0,0.0,0.0,0.0,0.0,0.0,0.0,0.0,-0.005105353891849518,-0.04153371974825859,0.3097958266735077,0.0,0.0,0.0,0.0,0.0,0.0,0.0,0.0,0.0
1606828569160894498,2405310,1606828569146076071,imu_link,-0.07296375185251236,-0.02268463931977749,0.16564424335956573,0.9832210540771484,0.0,0.0,0.0,0.0,0.0,0.0,0.0,0.0,0.0,19.21469497680664,-1.1709768772125244,-8.686370849609375,0.0,0.0,0.0,0.0,0.0,0.0,0.0,0.0,0.0,-0.005105353891849518,-0.04153371974825859,0.3097958266735077,0.0,0.0,0.0,0.0,0.0,0.0,0.0,0.0,0.0
1606828569193952292,2405311,1606828569146243947,imu_link,-0.07296283543109894,-0.022684061899781227,0.16564436256885529,0.9832211136817932,0.0,0.0,0.0,0.0,0.0,0.0,0.0,0.0,0.0,19.214702606201172,-1.1709283590316772,-8.686256408691406,0.0,0.0,0.0,0.0,0.0,0.0,0.0,0.0,0.0,0.014379356987774372,-0.051837801933288574,0.3412153124809265,0.0,0.0,0.0,0.0,0.0,0.0,0.0,0.0,0.0
1606828569193996831,2405312,1606828569146335318,imu_link,-0.07296283543109894,-0.022684061899781227,0.16564436256885529,0.9832211136817932,0.0,0.0,0.0,0.0,0.0,0.0,0.0,0.0,0.0,19.214702606201172,-1.1709283590316772,-8.686256408691406,0.0,0.0,0.0,0.0,0.0,0.0,0.0,0.0,0.0,0.014379356987774372,-0.051837801933288574,0.3412153124809265,0.0,0.0,0.0,0.0,0.0,0.0,0.0,0.0,0.0
1606828569194014415,2405313,1606828569146408973,imu_link,-0.07296190410852432,-0.022682737559080124,0.16563311219215393,0.9832231402397156,0.0,0.0,0.0,0.0,0.0,0.0,0.0,0.0,0.0,19.213388442993164,-1.170896053314209,-8.686113357543945,0.0,0.0,0.0,0.0,0.0,0.0,0.0,0.0,0.0,0.009191409684717655,-0.05017893761396408,0.33915889263153076,0.0,0.0,0.0,0.0,0.0,0.0,0.0,0.0,0.0
1606828569194029125,2405314,1606828569146523521,imu_link,-0.07296190410852432,-0.022682737559080124,0.16563311219215393,0.9832231402397156,0.0,0.0,0.0,0.0,0.0,0.0,0.0,0.0,0.0,19.213388442993164,-1.170896053314209,-8.686113357543945,0.0,0.0,0.0,0.0,0.0,0.0,0.0,0.0,0.0,0.009191409684717655,-0.05017893761396408,0.33915889263153076,0.0,0.0,0.0,0.0,0.0,0.0,0.0,0.0,0.0
1606828569194057044,2405315,1606828569146600313,imu_link,-0.07296109944581985,-0.02268269844353199,0.1656307578086853,0.9832236170768738,0.0,0.0,0.0,0.0,0.0,0.0,0.0,0.0,0.0,19.213111877441406,-1.1709280014038086,-8.686017036437988,0.0,0.0,0.0,0.0,0.0,0.0,0.0,0.0,0.0,-0.00020365696400403976,-0.04782141000032425,0.30450743436813354,0.0,0.0,0.0,0.0,0.0,0.0,0.0,0.0,0.0
1606828569194072577,2405316,1606828569146675415,imu_link,-0.07296109944581985,-0.02268269844353199,0.1656307578086853,0.9832236170768738,0.0,0.0,0.0,0.0,0.0,0.0,0.0,0.0,0.0,19.213111877441406,-1.1709280014038086,-8.686017036437988,0.0,0.0,0.0,0.0,0.0,0.0,0.0,0.0,0.0,-0.00020365696400403976,-0.04782141000032425,0.30450743436813354,0.0,0.0,0.0,0.0,0.0,0.0,0.0,0.0,0.0
1606828569194103442,2405317,1606828569146745456,imu_link,-0.07296042889356613,-0.02268325909972191,0.16561678051948547,0.9832260012626648,0.0,0.0,0.0,0.0,0.0,0.0,0.0,0.0,0.0,19.211498260498047,-1.1711269617080688,-8.685935020446777,0.0,0.0,0.0,0.0,0.0,0.0,0.0,0.0,0.0,-0.002881263382732868,-0.0404304601252079,0.2985803782939911,0.0,0.0,0.0,0.0,0.0,0.0,0.0,0.0,0.0
1606828569194168765,2405318,1606828569146812700,imu_link,-0.07296042889356613,-0.02268325909972191,0.16561678051948547,0.9832260012626648,0.0,0.0,0.0,0.0,0.0,0.0,0.0,0.0,0.0,19.211498260498047,-1.1711269617080688,-8.685935020446777,0.0,0.0,0.0,0.0,0.0,0.0,0.0,0.0,0.0,-0.002881263382732868,-0.0404304601252079,0.2985803782939911,0.0,0.0,0.0,0.0,0.0,0.0,0.0,0.0,0.0
1606828569194194412,2405319,1606828569159317254,imu_link,-0.07295919954776764,-0.022684084251523018,0.16561488807201385,0.9832264184951782,0.0,0.0,0.0,0.0,0.0,0.0,0.0,0.0,0.0,19.21128273010254,-1.1712599992752075,-8.685809135437012,0.0,0.0,0.0,0.0,0.0,0.0,0.0,0.0,0.0,0.005503765307366848,-0.04533880203962326,0.3275027275085449,0.0,0.0,0.0,0.0,0.0,0.0,0.0,0.0,0.0
1606828569194208234,2405320,1606828569159473369,imu_link,-0.07295919954776764,-0.022684084251523018,0.16561488807201385,0.9832264184951782,0.0,0.0,0.0,0.0,0.0,0.0,0.0,0.0,0.0,19.21128273010254,-1.1712599992752075,-8.685809135437012,0.0,0.0,0.0,0.0,0.0,0.0,0.0,0.0,0.0,0.005503765307366848,-0.04533880203962326,0.3275027275085449,0.0,0.0,0.0,0.0,0.0,0.0,0.0,0.0,0.0
1606828569194218627,2405321,1606828569159604477,imu_link,-0.07296101748943329,-0.022683799266815186,0.16560997068881989,0.9832271337509155,0.0,0.0,0.0,0.0,0.0,0.0,0.0,0.0,0.0,19.210708618164062,-1.171236276626587,-8.686003684997559,0.0,0.0,0.0,0.0,0.0,0.0,0.0,0.0,0.0,0.00815221294760704,-0.05292873457074165,0.33395007252693176,0.0,0.0,0.0,0.0,0.0,0.0,0.0,0.0,0.0
1606828569194262007,2405322,1606828569159684301,imu_link,-0.07296101748943329,-0.022683799266815186,0.16560997068881989,0.9832271337509155,0.0,0.0,0.0,0.0,0.0,0.0,0.0,0.0,0.0,19.210708618164062,-1.171236276626587,-8.686003684997559,0.0,0.0,0.0,0.0,0.0,0.0,0.0,0.0,0.0,0.00815221294760704,-0.05292873457074165,0.33395007252693176,0.0,0.0,0.0,0.0,0.0,0.0,0.0,0.0,0.0
1606828569194300251,2405323,1606828569159767533,imu_link,-0.0729612335562706,-0.022684091702103615,0.1656099259853363,0.9832270741462708,0.0,0.0,0.0,0.0,0.0,0.0,0.0,0.0,0.0,19.210708618164062,-1.1712654829025269,-8.68603515625,0.0,0.0,0.0,0.0,0.0,0.0,0.0,0.0,0.0,-0.0019778604619205,-0.05438632145524025,0.3410649001598358,0.0,0.0,0.0,0.0,0.0,0.0,0.0,0.0,0.0
