%time,field.header.seq,field.header.stamp,field.header.frame_id,field.orientation.x,field.orientation.y,field.orientation.z,field.orientation.w,field.orientation_covariance0,field.orientation_covariance1,field.orientation_covariance2,field.orientation_covariance3,field.orientation_covariance4,field.orientation_covariance5,field.orientation_covariance6,field.orientation_covariance7,field.orientation_covariance8,field.angular_velocity.x,field.angular_velocity.y,field.angular_velocity.z,field.angular_velocity_covariance0,field.angular_velocity_covariance1,field.angular_velocity_covariance2,field.angular_velocity_covariance3,field.angular_velocity_covariance4,field.angular_velocity_covariance5,field.angular_velocity_covariance6,field.angular_velocity_covariance7,field.angular_velocity_covariance8,field.linear_acceleration.x,field.linear_acceleration.y,field.linear_acceleration.z,field.linear_acceleration_covariance0,field.linear_acceleration_covariance1,field.linear_acceleration_covariance2,field.linear_acceleration_covariance3,field.linear_acceleration_covariance4,field.linear_acceleration_covariance5,field.linear_acceleration_covariance6,field.linear_acceleration_covariance7,field.linear_acceleration_covariance8
1606827728203699577,1732553,1606827728195368133,imu_link,0.0018132172990590334,0.002313698409125209,0.20540283620357513,0.9786731600761414,0.0,0.0,0.0,0.0,0.0,0.0,0.0,0.0,0.0,23.706754684448242,0.21679796278476715,0.2578093111515045,0.0,0.0,0.0,0.0,0.0,0.0,0.0,0.0,0.0,-0.02325422689318657,-0.00584038533270359,0.3694019615650177,0.0,0.0,0.0,0.0,0.0,0.0,0.0,0.0,0.0
1606827728203727848,1732554,1606827728195454586,imu_link,0.0018132172990590334,0.002313698409125209,0.20540283620357513,0.9786731600761414,0.0,0.0,0.0,0.0,0.0,0.0,0.0,0.0,0.0,23.706754684448242,0.21679796278476715,0.2578093111515045,0.0,0.0,0.0,0.0,0.0,0.0,0.0,0.0,0.0,-0.02325422689318657,-0.00584038533270359,0.3694019615650177,0.0,0.0,0.0,0.0,0.0,0.0,0.0,0.0,0.0
1606827728203740546,1732555,1606827728195562507,imu_link,0.0018136308062821627,0.0023140734992921352,0.20540353655815125,0.978672981262207,0.0,0.0,0.0,0.0,0.0,0.0,0.0,0.0,0.0,23.70683479309082,0.2168300896883011,0.25786468386650085,0.0,0.0,0.0,0.0,0.0,0.0,0.0,0.0,0.0,0.010582664981484413,-0.008622141554951668,0.35439789295196533,0.0,0.0,0.0,0.0,0.0,0.0,0.0,0.0,0.0
1606827728203761016,1732556,1606827728195612150,imu_link,0.0018136308062821627,0.0023140734992921352,0.20540353655815125,0.978672981262207,0.0,0.0,0.0,0.0,0.0,0.0,0.0,0.0,0.0,23.70683479309082,0.2168300896883011,0.25786468386650085,0.0,0.0,0.0,0.0,0.0,0.0,0.0,0.0,0.0,0.010582664981484413,-0.008622141554951668,0.35439789295196533,0.0,0.0,0.0,0.0,0.0,0.0,0.0,0.0,0.0
1606827728203774412,1732557,1606827728195661278,imu_link,0.0018173563294112682,0.0023171098437160254,0.2054000198841095,0.9786736965179443,0.0,0.0,0.0,0.0,0.0,0.0,0.0,0.0,0.0,23.70642852783203,0.2170838564634323,0.25835320353507996,0.0,0.0,0.0,0.0,0.0,0.0,0.0,0.0,0.0,0.015668809413909912,-0.009998164139688015,0.35798361897468567,0.0,0.0,0.0,0.0,0.0,0.0,0.0,0.0,0.0
1606827728204956720,1732558,1606827728195718390,imu_link,0.0018173563294112682,0.0023171098437160254,0.2054000198841095,0.9786736965179443,0.0,0.0,0.0,0.0,0.0,0.0,0.0,0.0,0.0,23.70642852783203,0.2170838564634323,0.25835320353507996,0.0,0.0,0.0,0.0,0.0,0.0,0.0,0.0,0.0,0.015668809413909912,-0.009998164139688015,0.35798361897468567,0.0,0.0,0.0,0.0,0.0,0.0,0.0,0.0,0.0
1606827728204979868,1732559,1606827728195784797,imu_link,0.001817990210838616,0.0023195287212729454,0.20540094375610352,0.9786734580993652,0.0,0.0,0.0,0.0,0.0,0.0,0.0,0.0,0.0,23.706533432006836,0.21733994781970978,0.2584814131259918,0.0,0.0,0.0,0.0,0.0,0.0,0.0,0.0,0.0,0.0014542997814714909,0.022280769422650337,0.33485648036003113,0.0,0.0,0.0,0.0,0.0,0.0,0.0,0.0,0.0
1606827728205006817,1732560,1606827728195834689,imu_link,0.001817990210838616,0.0023195287212729454,0.20540094375610352,0.9786734580993652,0.0,0.0,0.0,0.0,0.0,0.0,0.0,0.0,0.0,23.706533432006836,0.21733994781970978,0.2584814131259918,0.0,0.0,0.0,0.0,0.0,0.0,0.0,0.0,0.0,0.0014542997814714909,0.022280769422650337,0.33485648036003113,0.0,0.0,0.0,0.0,0.0,0.0,0.0,0.0,0.0
1606827728205031638,1732561,1606827728195881655,imu_link,0.001813421375118196,0.0023195066023617983,0.20539826154708862,0.978674054145813,0.0,0.0,0.0,0.0,0.0,0.0,0.0,0.0,0.0,23.706218719482422,0.2174457162618637,0.25796791911125183,0.0,0.0,0.0,0.0,0.0,0.0,0.0,0.0,0.0,-0.0018936395645141602,0.03506896272301674,0.3341827094554901,0.0,0.0,0.0,0.0,0.0,0.0,0.0,0.0,0.0
1606827728205043716,1732562,1606827728195933575,imu_link,0.001813421375118196,0.0023195066023617983,0.20539826154708862,0.978674054145813,0.0,0.0,0.0,0.0,0.0,0.0,0.0,0.0,0.0,23.706218719482422,0.2174457162618637,0.25796791911125183,0.0,0.0,0.0,0.0,0.0,0.0,0.0,0.0,0.0,-0.0018936395645141602,0.03506896272301674,0.3341827094554901,0.0,0.0,0.0,0.0,0.0,0.0,0.0,0.0,0.0
1606827728205057205,1732563,1606827728195984899,imu_link,0.0018128750380128622,0.00232089520432055,0.20539751648902893,0.9786742329597473,0.0,0.0,0.0,0.0,0.0,0.0,0.0,0.0,0.0,23.706134796142578,0.21761450171470642,0.2579391598701477,0.0,0.0,0.0,0.0,0.0,0.0,0.0,0.0,0.0,-0.0017109836917370558,0.024799278005957603,0.3581205904483795,0.0,0.0,0.0,0.0,0.0,0.0,0.0,0.0,0.0
1606827728221871628,1732564,1606827728209322190,imu_link,0.0018128750380128622,0.00232089520432055,0.20539751648902893,0.9786742329597473,0.0,0.0,0.0,0.0,0.0,0.0,0.0,0.0,0.0,23.706134796142578,0.21761450171470642,0.2579391598701477,0.0,0.0,0.0,0.0,0.0,0.0,0.0,0.0,0.0,-0.0017109836917370558,0.024799278005957603,0.3581205904483795,0.0,0.0,0.0,0.0,0.0,0.0,0.0,0.0,0.0
1606827728221899625,1732565,1606827728209424608,imu_link,0.0018090881640091538,0.002318214625120163,0.20539359748363495,0.9786750674247742,0.0,0.0,0.0,0.0,0.0,0.0,0.0,0.0,0.0,23.705673217773438,0.21740403771400452,0.25745052099227905,0.0,0.0,0.0,0.0,0.0,0.0,0.0,0.0,0.0,-0.004918682388961315,-0.0018239107448607683,0.36090144515037537,0.0,0.0,0.0,0.0,0.0,0.0,0.0,0.0,0.0
1606827728221912167,1732566,1606827728209556425,imu_link,0.0018090881640091538,0.002318214625120163,0.20539359748363495,0.9786750674247742,0.0,0.0,0.0,0.0,0.0,0.0,0.0,0.0,0.0,23.705673217773438,0.21740403771400452,0.25745052099227905,0.0,0.0,0.0,0.0,0.0,0.0,0.0,0.0,0.0,-0.004918682388961315,-0.0018239107448607683,0.36090144515037537,0.0,0.0,0.0,0.0,0.0,0.0,0.0,0.0,0.0
1606827728221921670,1732567,1606827728209639442,imu_link,0.0018085441552102566,0.0023186698090285063,0.20539513230323792,0.9786747694015503,0.0,0.0,0.0,0.0,0.0,0.0,0.0,0.0,0.0,23.70585060119629,0.21746748685836792,0.2574005424976349,0.0,0.0,0.0,0.0,0.0,0.0,0.0,0.0,0.0,-0.007553755305707455,-0.0186945591121912,0.3386375308036804,0.0,0.0,0.0,0.0,0.0,0.0,0.0,0.0,0.0
1606827728221931874,1732568,1606827728209697069,imu_link,0.0018085441552102566,0.0023186698090285063,0.20539513230323792,0.9786747694015503,0.0,0.0,0.0,0.0,0.0,0.0,0.0,0.0,0.0,23.70585060119629,0.21746748685836792,0.2574005424976349,0.0,0.0,0.0,0.0,0.0,0.0,0.0,0.0,0.0,-0.007553755305707455,-0.0186945591121912,0.3386375308036804,0.0,0.0,0.0,0.0,0.0,0.0,0.0,0.0,0.0
1606827728222354650,1732569,1606827728209762435,imu_link,0.0018123522168025374,0.002318287268280983,0.20539933443069458,0.9786738753318787,0.0,0.0,0.0,0.0,0.0,0.0,0.0,0.0,0.0,23.706344604492188,0.2173338532447815,0.2578195333480835,0.0,0.0,0.0,0.0,0.0,0.0,0.0,0.0,0.0,0.01056654378771782,0.00010487553663551807,0.3267216682434082,0.0,0.0,0.0,0.0,0.0,0.0,0.0,0.0,0.0
1606827728222369832,1732570,1606827728209832003,imu_link,0.0018123522168025374,0.002318287268280983,0.20539933443069458,0.9786738753318787,0.0,0.0,0.0,0.0,0.0,0.0,0.0,0.0,0.0,23.706344604492188,0.2173338532447815,0.2578195333480835,0.0,0.0,0.0,0.0,0.0,0.0,0.0,0.0,0.0,0.01056654378771782,0.00010487553663551807,0.3267216682434082,0.0,0.0,0.0,0.0,0.0,0.0,0.0,0.0,0.0
1606827728222378090,1732571,1606827728209896613,imu_link,0.001814268296584487,0.00231817364692688,0.2054004669189453,0.9786736369132996,0.0,0.0,0.0,0.0,0.0,0.0,0.0,0.0,0.0,23.70647621154785,0.2172757089138031,0.2580319941043854,0.0,0.0,0.0,0.0,0.0,0.0,0.0,0.0,0.0,0.006347605958580971,0.002719906158745289,0.3230202794075012,0.0,0.0,0.0,0.0,0.0,0.0,0.0,0.0,0.0
1606827728222413600,1732572,1606827728209957598,imu_link,0.001814268296584487,0.00231817364692688,0.2054004669189453,0.9786736369132996,0.0,0.0,0.0,0.0,0.0,0.0,0.0,0.0,0.0,23.70647621154785,0.2172757089138031,0.2580319941043854,0.0,0.0,0.0,0.0,0.0,0.0,0.0,0.0,0.0,0.006347605958580971,0.002719906158745289,0.3230202794075012,0.0,0.0,0.0,0.0,0.0,0.0,0.0,0.0,0.0
1606827728230592268,1732573,1606827728210019822,imu_link,0.001813938724808395,0.0023203748278319836,0.20540361106395721,0.978672981262207,0.0,0.0,0.0,0.0,0.0,0.0,0.0,0.0,0.0,23.706846237182617,0.21752949059009552,0.25804758071899414,0.0,0.0,0.0,0.0,0.0,0.0,0.0,0.0,0.0,-0.012020554393529892,-0.00014214427210390568,0.32216235995292664,0.0,0.0,0.0,0.0,0.0,0.0,0.0,0.0,0.0
1606827728230616668,1732574,1606827728210076574,imu_link,0.001813938724808395,0.0023203748278319836,0.20540361106395721,0.978672981262207,0.0,0.0,0.0,0.0,0.0,0.0,0.0,0.0,0.0,23.706846237182617,0.21752949059009552,0.25804758071899414,0.0,0.0,0.0,0.0,0.0,0.0,0.0,0.0,0.0,-0.012020554393529892,-0.00014214427210390568,0.32216235995292664,0.0,0.0,0.0,0.0,0.0,0.0,0.0,0.0,0.0
1606827728230627572,1732575,1606827728222649120,imu_link,0.0018138410523533821,0.0023217187263071537,0.2054026573896408,0.9786731600761414,0.0,0.0,0.0,0.0,0.0,0.0,0.0,0.0,0.0,23.706735610961914,0.21768276393413544,0.2580680251121521,0.0,0.0,0.0,0.0,0.0,0.0,0.0,0.0,0.0,-0.013016554526984692,0.006664516404271126,0.32641950249671936,0.0,0.0,0.0,0.0,0.0,0.0,0.0,0.0,0.0
1606827728230660528,1732576,1606827728222750543,imu_link,0.0018138410523533821,0.0023217187263071537,0.2054026573896408,0.9786731600761414,0.0,0.0,0.0,0.0,0.0,0.0,0.0,0.0,0.0,23.706735610961914,0.21768276393413544,0.2580680251121521,0.0,0.0,0.0,0.0,0.0,0.0,0.0,0.0,0.0,-0.013016554526984692,0.006664516404271126,0.32641950249671936,0.0,0.0,0.0,0.0,0.0,0.0,0.0,0.0,0.0
1606827728230681735,1732577,1606827728222882178,imu_link,0.0018147401278838515,0.0023171277716755867,0.20540784299373627,0.9786720871925354,0.0,0.0,0.0,0.0,0.0,0.0,0.0,0.0,0.0,23.707340240478516,0.21714536845684052,0.258061945438385,0.0,0.0,0.0,0.0,0.0,0.0,0.0,0.0,0.0,0.0021063080057501793,0.006226460449397564,0.3285007178783417,0.0,0.0,0.0,0.0,0.0,0.0,0.0,0.0,0.0
1606827728232264038,1732578,1606827728222952737,imu_link,0.0018147401278838515,0.0023171277716755867,0.20540784299373627,0.9786720871925354,0.0,0.0,0.0,0.0,0.0,0.0,0.0,0.0,0.0,23.707340240478516,0.21714536845684052,0.258061945438385,0.0,0.0,0.0,0.0,0.0,0.0,0.0,0.0,0.0,0.0021063080057501793,0.006226460449397564,0.3285007178783417,0.0,0.0,0.0,0.0,0.0,0.0,0.0,0.0,0.0
1606827728232287998,1732579,1606827728223009804,imu_link,0.0018166238442063332,0.002316268626600504,0.20540709793567657,0.978672206401825,0.0,0.0,0.0,0.0,0.0,0.0,0.0,0.0,0.0,23.70725440979004,0.21700488030910492,0.2582527697086334,0.0,0.0,0.0,0.0,0.0,0.0,0.0,0.0,0.0,0.007931673899292946,0.007820835337042809,0.33202606439590454,0.0,0.0,0.0,0.0,0.0,0.0,0.0,0.0,0.0
1606827728232298824,1732580,1606827728223082280,imu_link,0.0018166238442063332,0.002316268626600504,0.20540709793567657,0.978672206401825,0.0,0.0,0.0,0.0,0.0,0.0,0.0,0.0,0.0,23.70725440979004,0.21700488030910492,0.2582527697086334,0.0,0.0,0.0,0.0,0.0,0.0,0.0,0.0,0.0,0.007931673899292946,0.007820835337042809,0.33202606439590454,0.0,0.0,0.0,0.0,0.0,0.0,0.0,0.0,0.0
1606827728232357408,1732581,1606827728223142003,imu_link,0.001815273193642497,0.0023186400067061186,0.20541401207447052,0.9786707758903503,0.0,0.0,0.0,0.0,0.0,0.0,0.0,0.0,0.0,23.70806121826172,0.21730077266693115,0.25815868377685547,0.0,0.0,0.0,0.0,0.0,0.0,0.0,0.0,0.0,-0.008276112377643585,-0.0029082237742841244,0.29726243019104004,0.0,0.0,0.0,0.0,0.0,0.0,0.0,0.0,0.0
1606827728238136361,1732582,1606827728223205688,imu_link,0.001815273193642497,0.0023186400067061186,0.20541401207447052,0.9786707758903503,0.0,0.0,0.0,0.0,0.0,0.0,0.0,0.0,0.0,23.70806121826172,0.21730077266693115,0.25815868377685547,0.0,0.0,0.0,0.0,0.0,0.0,0.0,0.0,0.0,-0.008276112377643585,-0.0029082237742841244,0.29726243019104004,0.0,0.0,0.0,0.0,0.0,0.0,0.0,0.0,0.0
1606827728238152627,1732583,1606827728223259609,imu_link,0.0018146734219044447,0.0023198314011096954,0.20541614294052124,0.9786702990531921,0.0,0.0,0.0,0.0,0.0,0.0,0.0,0.0,0.0,23.708314895629883,0.2174479365348816,0.25811997056007385,0.0,0.0,0.0,0.0,0.0,0.0,0.0,0.0,0.0,-0.00734735606238246,-0.004659182392060757,0.3039916157722473,0.0,0.0,0.0,0.0,0.0,0.0,0.0,0.0,0.0
1606827728238170935,1732584,1606827728223336944,imu_link,0.0018146734219044447,0.0023198314011096954,0.20541614294052124,0.9786702990531921,0.0,0.0,0.0,0.0,0.0,0.0,0.0,0.0,0.0,23.708314895629883,0.2174479365348816,0.25811997056007385,0.0,0.0,0.0,0.0,0.0,0.0,0.0,0.0,0.0,-0.00734735606238246,-0.004659182392060757,0.3039916157722473,0.0,0.0,0.0,0.0,0.0,0.0,0.0,0.0,0.0
1606827728238176835,1732585,1606827728223399128,imu_link,0.0018146020593121648,0.0023181848227977753,0.20541641116142273,0.9786702394485474,0.0,0.0,0.0,0.0,0.0,0.0,0.0,0.0,0.0,23.708345413208008,0.21726490557193756,0.25807327032089233,0.0,0.0,0.0,0.0,0.0,0.0,0.0,0.0,0.0,0.010648483410477638,0.010787268169224262,0.3354220390319824,0.0,0.0,0.0,0.0,0.0,0.0,0.0,0.0,0.0
1606827728243265803,1732586,1606827728235553392,imu_link,0.0018146020593121648,0.0023181848227977753,0.20541641116142273,0.9786702394485474,0.0,0.0,0.0,0.0,0.0,0.0,0.0,0.0,0.0,23.708345413208008,0.21726490557193756,0.25807327032089233,0.0,0.0,0.0,0.0,0.0,0.0,0.0,0.0,0.0,0.010648483410477638,0.010787268169224262,0.3354220390319824,0.0,0.0,0.0,0.0,0.0,0.0,0.0,0.0,0.0
1606827728248060928,1732587,1606827728235674936,imu_link,0.0018123311456292868,0.002317441627383232,0.20541805028915405,0.9786699414253235,0.0,0.0,0.0,0.0,0.0,0.0,0.0,0.0,0.0,23.708534240722656,0.21723459661006927,0.2578014135360718,0.0,0.0,0.0,0.0,0.0,0.0,0.0,0.0,0.0,0.0027171368710696697,0.00642344169318676,0.3069831132888794,0.0,0.0,0.0,0.0,0.0,0.0,0.0,0.0,0.0
1606827728248090745,1732588,1606827728235869237,imu_link,0.0018123311456292868,0.002317441627383232,0.20541805028915405,0.9786699414253235,0.0,0.0,0.0,0.0,0.0,0.0,0.0,0.0,0.0,23.708534240722656,0.21723459661006927,0.2578014135360718,0.0,0.0,0.0,0.0,0.0,0.0,0.0,0.0,0.0,0.0027171368710696697,0.00642344169318676,0.3069831132888794,0.0,0.0,0.0,0.0,0.0,0.0,0.0,0.0,0.0
1606827728248101445,1732589,1606827728235970591,imu_link,0.0018108797958120704,0.002319025807082653,0.20541884005069733,0.9786698222160339,0.0,0.0,0.0,0.0,0.0,0.0,0.0,0.0,0.0,23.708627700805664,0.2174461930990219,0.2576761245727539,0.0,0.0,0.0,0.0,0.0,0.0,0.0,0.0,0.0,0.0001645407173782587,-0.017032969743013382,0.3025069534778595,0.0,0.0,0.0,0.0,0.0,0.0,0.0,0.0,0.0
1606827728248114839,1732590,1606827728236055476,imu_link,0.0018108797958120704,0.002319025807082653,0.20541884005069733,0.9786698222160339,0.0,0.0,0.0,0.0,0.0,0.0,0.0,0.0,0.0,23.708627700805664,0.2174461930990219,0.2576761245727539,0.0,0.0,0.0,0.0,0.0,0.0,0.0,0.0,0.0,0.0001645407173782587,-0.017032969743013382,0.3025069534778595,0.0,0.0,0.0,0.0,0.0,0.0,0.0,0.0,0.0
1606827728248123704,1732591,1606827728236143943,imu_link,0.001810253830626607,0.002320161322131753,0.20541802048683167,0.9786699414253235,0.0,0.0,0.0,0.0,0.0,0.0,0.0,0.0,0.0,23.708532333374023,0.21758851408958435,0.25763246417045593,0.0,0.0,0.0,0.0,0.0,0.0,0.0,0.0,0.0,0.005395838059484959,-0.010443918406963348,0.32678383588790894,0.0,0.0,0.0,0.0,0.0,0.0,0.0,0.0,0.0
1606827728248147521,1732592,1606827728236218430,imu_link,0.001810253830626607,0.002320161322131753,0.20541802048683167,0.9786699414253235,0.0,0.0,0.0,0.0,0.0,0.0,0.0,0.0,0.0,23.708532333374023,0.21758851408958435,0.25763246417045593,0.0,0.0,0.0,0.0,0.0,0.0,0.0,0.0,0.0,0.005395838059484959,-0.010443918406963348,0.32678383588790894,0.0,0.0,0.0,0.0,0.0,0.0,0.0,0.0,0.0
1606827728248158730,1732593,1606827728236286980,imu_link,0.0018130848184227943,0.002321803942322731,0.2054116576910019,0.9786712527275085,0.0,0.0,0.0,0.0,0.0,0.0,0.0,0.0,0.0,23.70779037475586,0.21770773828029633,0.25798726081848145,0.0,0.0,0.0,0.0,0.0,0.0,0.0,0.0,0.0,-0.007166760973632336,0.012435147538781166,0.32252463698387146,0.0,0.0,0.0,0.0,0.0,0.0,0.0,0.0,0.0
1606827728248167245,1732594,1606827728236363106,imu_link,0.0018130848184227943,0.002321803942322731,0.2054116576910019,0.9786712527275085,0.0,0.0,0.0,0.0,0.0,0.0,0.0,0.0,0.0,23.70779037475586,0.21770773828029633,0.25798726081848145,0.0,0.0,0.0,0.0,0.0,0.0,0.0,0.0,0.0,-0.007166760973632336,0.012435147538781166,0.32252463698387146,0.0,0.0,0.0,0.0,0.0,0.0,0.0,0.0,0.0
1606827728249272214,1732595,1606827728236439496,imu_link,0.0018152188276872039,0.0023206330370157957,0.2054106593132019,0.9786714911460876,0.0,0.0,0.0,0.0,0.0,0.0,0.0,0.0,0.0,23.707670211791992,0.21752648055553436,0.25819873809814453,0.0,0.0,0.0,0.0,0.0,0.0,0.0,0.0,0.0,-0.017353994771838188,0.013486705720424652,0.3272487223148346,0.0,0.0,0.0,0.0,0.0,0.0,0.0,0.0,0.0
1606827728268793886,1732596,1606827728249359312,imu_link,0.0018152188276872039,0.0023206330370157957,0.2054106593132019,0.9786714911460876,0.0,0.0,0.0,0.0,0.0,0.0,0.0,0.0,0.0,23.707670211791992,0.21752648055553436,0.25819873809814453,0.0,0.0,0.0,0.0,0.0,0.0,0.0,0.0,0.0,-0.017353994771838188,0.013486705720424652,0.3272487223148346,0.0,0.0,0.0,0.0,0.0,0.0,0.0,0.0,0.0
1606827728268821057,1732597,1606827728249480962,imu_link,0.0018122957553714514,0.0023186341859400272,0.20540392398834229,0.9786729216575623,0.0,0.0,0.0,0.0,0.0,0.0,0.0,0.0,0.0,23.70688247680664,0.21737287938594818,0.2578223943710327,0.0,0.0,0.0,0.0,0.0,0.0,0.0,0.0,0.0,-0.020628545433282852,-0.0019494920270517468,0.3628652095794678,0.0,0.0,0.0,0.0,0.0,0.0,0.0,0.0,0.0
1606827728268839826,1732598,1606827728249614230,imu_link,0.0018122957553714514,0.0023186341859400272,0.20540392398834229,0.9786729216575623,0.0,0.0,0.0,0.0,0.0,0.0,0.0,0.0,0.0,23.70688247680664,0.21737287938594818,0.2578223943710327,0.0,0.0,0.0,0.0,0.0,0.0,0.0,0.0,0.0,-0.020628545433282852,-0.0019494920270517468,0.3628652095794678,0.0,0.0,0.0,0.0,0.0,0.0,0.0,0.0,0.0
1606827728268848342,1732599,1606827728249684449,imu_link,0.0018123926129192114,0.0023182989098131657,0.20540452003479004,0.9786728024482727,0.0,0.0,0.0,0.0,0.0,0.0,0.0,0.0,0.0,23.70694923400879,0.2173328548669815,0.25782549381256104,0.0,0.0,0.0,0.0,0.0,0.0,0.0,0.0,0.0,-0.007724795024842024,-0.0030811079777777195,0.35253265500068665,0.0,0.0,0.0,0.0,0.0,0.0,0.0,0.0,0.0
1606827728268857816,1732600,1606827728249773602,imu_link,0.0018123926129192114,0.0023182989098131657,0.20540452003479004,0.9786728024482727,0.0,0.0,0.0,0.0,0.0,0.0,0.0,0.0,0.0,23.70694923400879,0.2173328548669815,0.25782549381256104,0.0,0.0,0.0,0.0,0.0,0.0,0.0,0.0,0.0,-0.007724795024842024,-0.0030811079777777195,0.35253265500068665,0.0,0.0,0.0,0.0,0.0,0.0,0.0,0.0,0.0
1606827728268864185,1732601,1606827728249849764,imu_link,0.0018134535057470202,0.0023191829677671194,0.2053961604833603,0.9786745309829712,0.0,0.0,0.0,0.0,0.0,0.0,0.0,0.0,0.0,23.70597267150879,0.21740922331809998,0.2579634487628937,0.0,0.0,0.0,0.0,0.0,0.0,0.0,0.0,0.0,-0.004997439682483673,0.024315813556313515,0.32921919226646423,0.0,0.0,0.0,0.0,0.0,0.0,0.0,0.0,0.0
1606827728268931115,1732602,1606827728249939955,imu_link,0.0018134535057470202,0.0023191829677671194,0.2053961604833603,0.9786745309829712,0.0,0.0,0.0,0.0,0.0,0.0,0.0,0.0,0.0,23.70597267150879,0.21740922331809998,0.2579634487628937,0.0,0.0,0.0,0.0,0.0,0.0,0.0,0.0,0.0,-0.004997439682483673,0.024315813556313515,0.32921919226646423,0.0,0.0,0.0,0.0,0.0,0.0,0.0,0.0,0.0
1606827728268958530,1732603,1606827728250013533,imu_link,0.0018126179929822683,0.002318216720595956,0.20539504289627075,0.9786747694015503,0.0,0.0,0.0,0.0,0.0,0.0,0.0,0.0,0.0,23.705841064453125,0.21732082962989807,0.2578467130661011,0.0,0.0,0.0,0.0,0.0,0.0,0.0,0.0,0.0,0.0005015310598537326,0.023497842252254486,0.336930513381958,0.0,0.0,0.0,0.0,0.0,0.0,0.0,0.0,0.0
1606827728272795000,1732604,1606827728250077806,imu_link,0.0018126179929822683,0.002318216720595956,0.20539504289627075,0.9786747694015503,0.0,0.0,0.0,0.0,0.0,0.0,0.0,0.0,0.0,23.705841064453125,0.21732082962989807,0.2578467130661011,0.0,0.0,0.0,0.0,0.0,0.0,0.0,0.0,0.0,0.0005015310598537326,0.023497842252254486,0.336930513381958,0.0,0.0,0.0,0.0,0.0,0.0,0.0,0.0,0.0
1606827728272832847,1732605,1606827728250149014,imu_link,0.0018097180873155594,0.0023156958632171154,0.2053859978914261,0.9786766767501831,0.0,0.0,0.0,0.0,0.0,0.0,0.0,0.0,0.0,23.70478057861328,0.21710875630378723,0.2574601471424103,0.0,0.0,0.0,0.0,0.0,0.0,0.0,0.0,0.0,0.0005089696496725082,0.003280892036855221,0.3302465081214905,0.0,0.0,0.0,0.0,0.0,0.0,0.0,0.0,0.0
1606827728272853263,1732606,1606827728250216380,imu_link,0.0018097180873155594,0.0023156958632171154,0.2053859978914261,0.9786766767501831,0.0,0.0,0.0,0.0,0.0,0.0,0.0,0.0,0.0,23.70478057861328,0.21710875630378723,0.2574601471424103,0.0,0.0,0.0,0.0,0.0,0.0,0.0,0.0,0.0,0.0005089696496725082,0.003280892036855221,0.3302465081214905,0.0,0.0,0.0,0.0,0.0,0.0,0.0,0.0,0.0
1606827728272869514,1732607,1606827728262798811,imu_link,0.0018107990035787225,0.002314003650099039,0.20538611710071564,0.9786766767501831,0.0,0.0,0.0,0.0,0.0,0.0,0.0,0.0,0.0,23.704795837402344,0.2168935090303421,0.25754156708717346,0.0,0.0,0.0,0.0,0.0,0.0,0.0,0.0,0.0,-0.03133128210902214,-3.092200495302677e-05,0.3197866678237915,0.0,0.0,0.0,0.0,0.0,0.0,0.0,0.0,0.0
1606827728272950680,1732608,1606827728262916607,imu_link,0.0018107990035787225,0.002314003650099039,0.20538611710071564,0.9786766767501831,0.0,0.0,0.0,0.0,0.0,0.0,0.0,0.0,0.0,23.704795837402344,0.2168935090303421,0.25754156708717346,0.0,0.0,0.0,0.0,0.0,0.0,0.0,0.0,0.0,-0.03133128210902214,-3.092200495302677e-05,0.3197866678237915,0.0,0.0,0.0,0.0,0.0,0.0,0.0,0.0,0.0
1606827728272967354,1732609,1606827728263064175,imu_link,0.001811899826861918,0.002306593582034111,0.20538561046123505,0.9786767959594727,0.0,0.0,0.0,0.0,0.0,0.0,0.0,0.0,0.0,23.70473289489746,0.21603667736053467,0.25749051570892334,0.0,0.0,0.0,0.0,0.0,0.0,0.0,0.0,0.0,-0.021522894501686096,-0.0020445464178919792,0.3469427525997162,0.0,0.0,0.0,0.0,0.0,0.0,0.0,0.0,0.0
1606827728272992143,1732610,1606827728263139171,imu_link,0.001811899826861918,0.002306593582034111,0.20538561046123505,0.9786767959594727,0.0,0.0,0.0,0.0,0.0,0.0,0.0,0.0,0.0,23.70473289489746,0.21603667736053467,0.25749051570892334,0.0,0.0,0.0,0.0,0.0,0.0,0.0,0.0,0.0,-0.021522894501686096,-0.0020445464178919792,0.3469427525997162,0.0,0.0,0.0,0.0,0.0,0.0,0.0,0.0,0.0
1606827728273005727,1732611,1606827728263226336,imu_link,0.0018128898227587342,0.0023062073159962893,0.20538592338562012,0.9786767363548279,0.0,0.0,0.0,0.0,0.0,0.0,0.0,0.0,0.0,23.704769134521484,0.215969979763031,0.25759249925613403,0.0,0.0,0.0,0.0,0.0,0.0,0.0,0.0,0.0,0.0010449194815009832,-0.01585969142615795,0.3461734354496002,0.0,0.0,0.0,0.0,0.0,0.0,0.0,0.0,0.0
1606827728273022767,1732612,1606827728263321016,imu_link,0.0018128898227587342,0.0023062073159962893,0.20538592338562012,0.9786767363548279,0.0,0.0,0.0,0.0,0.0,0.0,0.0,0.0,0.0,23.704769134521484,0.215969979763031,0.25759249925613403,0.0,0.0,0.0,0.0,0.0,0.0,0.0,0.0,0.0,0.0010449194815009832,-0.01585969142615795,0.3461734354496002,0.0,0.0,0.0,0.0,0.0,0.0,0.0,0.0,0.0
1606827728277658268,1732613,1606827728263454997,imu_link,0.0018165216315537691,0.0023098464589565992,0.20538385212421417,0.9786771535873413,0.0,0.0,0.0,0.0,0.0,0.0,0.0,0.0,0.0,23.704530715942383,0.21629318594932556,0.2580850422382355,0.0,0.0,0.0,0.0,0.0,0.0,0.0,0.0,0.0,-0.00796092115342617,-0.0216812863945961,0.3120113015174866,0.0,0.0,0.0,0.0,0.0,0.0,0.0,0.0,0.0
1606827728277682160,1732614,1606827728263548372,imu_link,0.0018165216315537691,0.0023098464589565992,0.20538385212421417,0.9786771535873413,0.0,0.0,0.0,0.0,0.0,0.0,0.0,0.0,0.0,23.704530715942383,0.21629318594932556,0.2580850422382355,0.0,0.0,0.0,0.0,0.0,0.0,0.0,0.0,0.0,-0.00796092115342617,-0.0216812863945961,0.3120113015174866,0.0,0.0,0.0,0.0,0.0,0.0,0.0,0.0,0.0
1606827728277723649,1732615,1606827728263618690,imu_link,0.0018172545824199915,0.002310010837391019,0.20538465678691864,0.978676974773407,0.0,0.0,0.0,0.0,0.0,0.0,0.0,0.0,0.0,23.70462417602539,0.21629416942596436,0.2581712603569031,0.0,0.0,0.0,0.0,0.0,0.0,0.0,0.0,0.0,-0.004799387417733669,-0.012126832269132137,0.30772486329078674,0.0,0.0,0.0,0.0,0.0,0.0,0.0,0.0,0.0
1606827728277756138,1732616,1606827728263688077,imu_link,0.0018172545824199915,0.002310010837391019,0.20538465678691864,0.978676974773407,0.0,0.0,0.0,0.0,0.0,0.0,0.0,0.0,0.0,23.70462417602539,0.21629416942596436,0.2581712603569031,0.0,0.0,0.0,0.0,0.0,0.0,0.0,0.0,0.0,-0.004799387417733669,-0.012126832269132137,0.30772486329078674,0.0,0.0,0.0,0.0,0.0,0.0,0.0,0.0,0.0
1606827728277774997,1732617,1606827728263761135,imu_link,0.0018205831293016672,0.0023084909189492464,0.2053879201412201,0.9786762595176697,0.0,0.0,0.0,0.0,0.0,0.0,0.0,0.0,0.0,23.705005645751953,0.21604447066783905,0.2585095167160034,0.0,0.0,0.0,0.0,0.0,0.0,0.0,0.0,0.0,-0.00952908769249916,0.008329840376973152,0.31692570447921753,0.0,0.0,0.0,0.0,0.0,0.0,0.0,0.0,0.0
1606827728285084061,1732618,1606827728276620822,imu_link,0.0018205831293016672,0.0023084909189492464,0.2053879201412201,0.9786762595176697,0.0,0.0,0.0,0.0,0.0,0.0,0.0,0.0,0.0,23.705005645751953,0.21604447066783905,0.2585095167160034,0.0,0.0,0.0,0.0,0.0,0.0,0.0,0.0,0.0,-0.00952908769249916,0.008329840376973152,0.31692570447921753,0.0,0.0,0.0,0.0,0.0,0.0,0.0,0.0,0.0
1606827728285098292,1732619,1606827728276754616,imu_link,0.001821146928705275,0.0023073547054082155,0.2053861916065216,0.9786766171455383,0.0,0.0,0.0,0.0,0.0,0.0,0.0,0.0,0.0,23.704805374145508,0.21590423583984375,0.2585456073284149,0.0,0.0,0.0,0.0,0.0,0.0,0.0,0.0,0.0,-0.027208220213651657,0.017200279980897903,0.3348075747489929,0.0,0.0,0.0,0.0,0.0,0.0,0.0,0.0,0.0
1606827728285107269,1732620,1606827728276939849,imu_link,0.001821146928705275,0.0023073547054082155,0.2053861916065216,0.9786766171455383,0.0,0.0,0.0,0.0,0.0,0.0,0.0,0.0,0.0,23.704805374145508,0.21590423583984375,0.2585456073284149,0.0,0.0,0.0,0.0,0.0,0.0,0.0,0.0,0.0,-0.027208220213651657,0.017200279980897903,0.3348075747489929,0.0,0.0,0.0,0.0,0.0,0.0,0.0,0.0,0.0
1606827728285137040,1732621,1606827728277048740,imu_link,0.0018175527220591903,0.0023023919202387333,0.20539236068725586,0.978675365447998,0.0,0.0,0.0,0.0,0.0,0.0,0.0,0.0,0.0,23.705524444580078,0.21543064713478088,0.2580270767211914,0.0,0.0,0.0,0.0,0.0,0.0,0.0,0.0,0.0,-0.024797754362225533,0.016284586861729622,0.34409481287002563,0.0,0.0,0.0,0.0,0.0,0.0,0.0,0.0,0.0
1606827728285149894,1732622,1606827728277128639,imu_link,0.0018175527220591903,0.0023023919202387333,0.20539236068725586,0.978675365447998,0.0,0.0,0.0,0.0,0.0,0.0,0.0,0.0,0.0,23.705524444580078,0.21543064713478088,0.2580270767211914,0.0,0.0,0.0,0.0,0.0,0.0,0.0,0.0,0.0,-0.024797754362225533,0.016284586861729622,0.34409481287002563,0.0,0.0,0.0,0.0,0.0,0.0,0.0,0.0,0.0
1606827728288565245,1732623,1606827728277216537,imu_link,0.0018173146527260542,0.00230382545851171,0.2053934633731842,0.978675127029419,0.0,0.0,0.0,0.0,0.0,0.0,0.0,0.0,0.0,23.705656051635742,0.21559672057628632,0.2580343782901764,0.0,0.0,0.0,0.0,0.0,0.0,0.0,0.0,0.0,-0.020718229934573174,0.0052965315990149975,0.3320343494415283,0.0,0.0,0.0,0.0,0.0,0.0,0.0,0.0,0.0
1606827728288595884,1732624,1606827728277324070,imu_link,0.0018173146527260542,0.00230382545851171,0.2053934633731842,0.978675127029419,0.0,0.0,0.0,0.0,0.0,0.0,0.0,0.0,0.0,23.705656051635742,0.21559672057628632,0.2580343782901764,0.0,0.0,0.0,0.0,0.0,0.0,0.0,0.0,0.0,-0.020718229934573174,0.0052965315990149975,0.3320343494415283,0.0,0.0,0.0,0.0,0.0,0.0,0.0,0.0,0.0
1606827728288603078,1732625,1606827728277403669,imu_link,0.0018176317680627108,0.0023007281124591827,0.2054012566804886,0.97867351770401,0.0,0.0,0.0,0.0,0.0,0.0,0.0,0.0,0.0,23.706562042236328,0.21523985266685486,0.2579987347126007,0.0,0.0,0.0,0.0,0.0,0.0,0.0,0.0,0.0,-0.015738660469651222,-0.02138633280992508,0.33592233061790466,0.0,0.0,0.0,0.0,0.0,0.0,0.0,0.0,0.0
1606827728288614145,1732626,1606827728277487513,imu_link,0.0018176317680627108,0.0023007281124591827,0.2054012566804886,0.97867351770401,0.0,0.0,0.0,0.0,0.0,0.0,0.0,0.0,0.0,23.706562042236328,0.21523985266685486,0.2579987347126007,0.0,0.0,0.0,0.0,0.0,0.0,0.0,0.0,0.0,-0.015738660469651222,-0.02138633280992508,0.33592233061790466,0.0,0.0,0.0,0.0,0.0,0.0,0.0,0.0,0.0
1606827728288624103,1732627,1606827728277572584,imu_link,0.0018191614653915167,0.0022994871251285076,0.20540085434913635,0.9786735773086548,0.0,0.0,0.0,0.0,0.0,0.0,0.0,0.0,0.0,23.70651626586914,0.21506479382514954,0.25814101099967957,0.0,0.0,0.0,0.0,0.0,0.0,0.0,0.0,0.0,-0.0055601284839212894,-0.01883602701127529,0.3429577946662903,0.0,0.0,0.0,0.0,0.0,0.0,0.0,0.0,0.0
1606827728288629519,1732628,1606827728277654583,imu_link,0.0018191614653915167,0.0022994871251285076,0.20540085434913635,0.9786735773086548,0.0,0.0,0.0,0.0,0.0,0.0,0.0,0.0,0.0,23.70651626586914,0.21506479382514954,0.25814101099967957,0.0,0.0,0.0,0.0,0.0,0.0,0.0,0.0,0.0,-0.0055601284839212894,-0.01883602701127529,0.3429577946662903,0.0,0.0,0.0,0.0,0.0,0.0,0.0,0.0,0.0
1606827728297638529,1732629,1606827728290130157,imu_link,0.0018227157415822148,0.002298193285241723,0.20540502667427063,0.9786727428436279,0.0,0.0,0.0,0.0,0.0,0.0,0.0,0.0,0.0,23.707002639770508,0.21483494341373444,0.258510023355484,0.0,0.0,0.0,0.0,0.0,0.0,0.0,0.0,0.0,-0.00780639611184597,-0.0015970065724104643,0.3240831196308136,0.0,0.0,0.0,0.0,0.0,0.0,0.0,0.0,0.0
1606827728301331139,1732630,1606827728290265465,imu_link,0.0018227157415822148,0.002298193285241723,0.20540502667427063,0.9786727428436279,0.0,0.0,0.0,0.0,0.0,0.0,0.0,0.0,0.0,23.707002639770508,0.21483494341373444,0.258510023355484,0.0,0.0,0.0,0.0,0.0,0.0,0.0,0.0,0.0,-0.00780639611184597,-0.0015970065724104643,0.3240831196308136,0.0,0.0,0.0,0.0,0.0,0.0,0.0,0.0,0.0
1606827728301379266,1732631,1606827728290452662,imu_link,0.001823166268877685,0.002297967439517379,0.20540431141853333,0.9786728620529175,0.0,0.0,0.0,0.0,0.0,0.0,0.0,0.0,0.0,23.706920623779297,0.2147991955280304,0.2585550844669342,0.0,0.0,0.0,0.0,0.0,0.0,0.0,0.0,0.0,0.009357113391160965,-0.004723552148789167,0.32868871092796326,0.0,0.0,0.0,0.0,0.0,0.0,0.0,0.0,0.0
1606827728301423518,1732632,1606827728290614300,imu_link,0.001823166268877685,0.002297967439517379,0.20540431141853333,0.9786728620529175,0.0,0.0,0.0,0.0,0.0,0.0,0.0,0.0,0.0,23.706920623779297,0.2147991955280304,0.2585550844669342,0.0,0.0,0.0,0.0,0.0,0.0,0.0,0.0,0.0,0.009357113391160965,-0.004723552148789167,0.32868871092796326,0.0,0.0,0.0,0.0,0.0,0.0,0.0,0.0,0.0
1606827728301435608,1732633,1606827728290704653,imu_link,0.0018239630153402686,0.00230151298455894,0.20540888607501984,0.9786718487739563,0.0,0.0,0.0,0.0,0.0,0.0,0.0,0.0,0.0,23.707460403442383,0.21517682075500488,0.25872892141342163,0.0,0.0,0.0,0.0,0.0,0.0,0.0,0.0,0.0,0.021859701722860336,-0.004372661001980305,0.3473110795021057,0.0,0.0,0.0,0.0,0.0,0.0,0.0,0.0,0.0
1606827728301449508,1732634,1606827728290804865,imu_link,0.0018239630153402686,0.00230151298455894,0.20540888607501984,0.9786718487739563,0.0,0.0,0.0,0.0,0.0,0.0,0.0,0.0,0.0,23.707460403442383,0.21517682075500488,0.25872892141342163,0.0,0.0,0.0,0.0,0.0,0.0,0.0,0.0,0.0,0.021859701722860336,-0.004372661001980305,0.3473110795021057,0.0,0.0,0.0,0.0,0.0,0.0,0.0,0.0,0.0
1606827728301475297,1732635,1606827728290887425,imu_link,0.0018239532364532351,0.002300440799444914,0.20540818572044373,0.9786720275878906,0.0,0.0,0.0,0.0,0.0,0.0,0.0,0.0,0.0,23.70737648010254,0.21505701541900635,0.25870242714881897,0.0,0.0,0.0,0.0,0.0,0.0,0.0,0.0,0.0,0.01416698470711708,0.009800559841096401,0.35709938406944275,0.0,0.0,0.0,0.0,0.0,0.0,0.0,0.0,0.0
1606827728301488969,1732636,1606827728290965741,imu_link,0.0018239532364532351,0.002300440799444914,0.20540818572044373,0.9786720275878906,0.0,0.0,0.0,0.0,0.0,0.0,0.0,0.0,0.0,23.70737648010254,0.21505701541900635,0.25870242714881897,0.0,0.0,0.0,0.0,0.0,0.0,0.0,0.0,0.0,0.01416698470711708,0.009800559841096401,0.35709938406944275,0.0,0.0,0.0,0.0,0.0,0.0,0.0,0.0,0.0
1606827728303752995,1732637,1606827728291045605,imu_link,0.0018201357452198863,0.002303476445376873,0.2054135948419571,0.9786708354949951,0.0,0.0,0.0,0.0,0.0,0.0,0.0,0.0,0.0,23.708009719848633,0.21548587083816528,0.25834694504737854,0.0,0.0,0.0,0.0,0.0,0.0,0.0,0.0,0.0,0.0027288375422358513,-0.0031159452628344297,0.34911519289016724,0.0,0.0,0.0,0.0,0.0,0.0,0.0,0.0,0.0
1606827728303772344,1732638,1606827728291118233,imu_link,0.0018201357452198863,0.002303476445376873,0.2054135948419571,0.9786708354949951,0.0,0.0,0.0,0.0,0.0,0.0,0.0,0.0,0.0,23.708009719848633,0.21548587083816528,0.25834694504737854,0.0,0.0,0.0,0.0,0.0,0.0,0.0,0.0,0.0,0.0027288375422358513,-0.0031159452628344297,0.34911519289016724,0.0,0.0,0.0,0.0,0.0,0.0,0.0,0.0,0.0
1606827728303784209,1732639,1606827728291194404,imu_link,0.0018188545946031809,0.0023030899465084076,0.20541419088840485,0.9786707162857056,0.0,0.0,0.0,0.0,0.0,0.0,0.0,0.0,0.0,23.708078384399414,0.2154725193977356,0.25819432735443115,0.0,0.0,0.0,0.0,0.0,0.0,0.0,0.0,0.0,-0.01583356410264969,-0.017858173698186874,0.3275526762008667,0.0,0.0,0.0,0.0,0.0,0.0,0.0,0.0,0.0
1606827728310598806,1732640,1606827728303015027,imu_link,0.0018188545946031809,0.0023030899465084076,0.20541419088840485,0.9786707162857056,0.0,0.0,0.0,0.0,0.0,0.0,0.0,0.0,0.0,23.708078384399414,0.2154725193977356,0.25819432735443115,0.0,0.0,0.0,0.0,0.0,0.0,0.0,0.0,0.0,-0.01583356410264969,-0.017858173698186874,0.3275526762008667,0.0,0.0,0.0,0.0,0.0,0.0,0.0,0.0,0.0
1606827728311439765,1732641,1606827728303151592,imu_link,0.0018224158557131886,0.0023005008697509766,0.20540709793567657,0.978672206401825,0.0,0.0,0.0,0.0,0.0,0.0,0.0,0.0,0.0,23.707250595092773,0.21510019898414612,0.25853121280670166,0.0,0.0,0.0,0.0,0.0,0.0,0.0,0.0,0.0,-0.029996996745467186,-0.014731611125171185,0.3041020333766937,0.0,0.0,0.0,0.0,0.0,0.0,0.0,0.0,0.0
1606827728311454319,1732642,1606827728303381227,imu_link,0.0018224158557131886,0.0023005008697509766,0.20540709793567657,0.978672206401825,0.0,0.0,0.0,0.0,0.0,0.0,0.0,0.0,0.0,23.707250595092773,0.21510019898414612,0.25853121280670166,0.0,0.0,0.0,0.0,0.0,0.0,0.0,0.0,0.0,-0.029996996745467186,-0.014731611125171185,0.3041020333766937,0.0,0.0,0.0,0.0,0.0,0.0,0.0,0.0,0.0
1606827728311486282,1732643,1606827728303468869,imu_link,0.001820403733290732,0.0023023770190775394,0.2054075449705124,0.9786721467971802,0.0,0.0,0.0,0.0,0.0,0.0,0.0,0.0,0.0,23.70730209350586,0.21535788476467133,0.25834977626800537,0.0,0.0,0.0,0.0,0.0,0.0,0.0,0.0,0.0,-0.01547510176897049,-0.003051953623071313,0.31289780139923096,0.0,0.0,0.0,0.0,0.0,0.0,0.0,0.0,0.0
1606827728311494910,1732644,1606827728303549004,imu_link,0.001820403733290732,0.0023023770190775394,0.2054075449705124,0.9786721467971802,0.0,0.0,0.0,0.0,0.0,0.0,0.0,0.0,0.0,23.70730209350586,0.21535788476467133,0.25834977626800537,0.0,0.0,0.0,0.0,0.0,0.0,0.0,0.0,0.0,-0.01547510176897049,-0.003051953623071313,0.31289780139923096,0.0,0.0,0.0,0.0,0.0,0.0,0.0,0.0,0.0
1606827728312938018,1732645,1606827728303655205,imu_link,0.001823222148232162,0.0023016324266791344,0.2054002285003662,0.9786736369132996,0.0,0.0,0.0,0.0,0.0,0.0,0.0,0.0,0.0,23.706445693969727,0.2152099460363388,0.25864672660827637,0.0,0.0,0.0,0.0,0.0,0.0,0.0,0.0,0.0,0.011545524932444096,0.02997545525431633,0.3470171391963959,0.0,0.0,0.0,0.0,0.0,0.0,0.0,0.0,0.0
1606827728312959895,1732646,1606827728303743533,imu_link,0.001823222148232162,0.0023016324266791344,0.2054002285003662,0.9786736369132996,0.0,0.0,0.0,0.0,0.0,0.0,0.0,0.0,0.0,23.706445693969727,0.2152099460363388,0.25864672660827637,0.0,0.0,0.0,0.0,0.0,0.0,0.0,0.0,0.0,0.011545524932444096,0.02997545525431633,0.3470171391963959,0.0,0.0,0.0,0.0,0.0,0.0,0.0,0.0,0.0
1606827728312969131,1732647,1606827728303819839,imu_link,0.0018234486924484372,0.0023019069340080023,0.20539984107017517,0.9786737561225891,0.0,0.0,0.0,0.0,0.0,0.0,0.0,0.0,0.0,23.706401824951172,0.21523553133010864,0.25867852568626404,0.0,0.0,0.0,0.0,0.0,0.0,0.0,0.0,0.0,0.005730853881686926,0.03434404730796814,0.33865082263946533,0.0,0.0,0.0,0.0,0.0,0.0,0.0,0.0,0.0
1606827728312976442,1732648,1606827728303967240,imu_link,0.0018234486924484372,0.0023019069340080023,0.20539984107017517,0.9786737561225891,0.0,0.0,0.0,0.0,0.0,0.0,0.0,0.0,0.0,23.706401824951172,0.21523553133010864,0.25867852568626404,0.0,0.0,0.0,0.0,0.0,0.0,0.0,0.0,0.0,0.005730853881686926,0.03434404730796814,0.33865082263946533,0.0,0.0,0.0,0.0,0.0,0.0,0.0,0.0,0.0
1606827728312982615,1732649,1606827728304056791,imu_link,0.0018171935807913542,0.002298321109265089,0.20538918673992157,0.9786760210990906,0.0,0.0,0.0,0.0,0.0,0.0,0.0,0.0,0.0,23.705148696899414,0.21498338878154755,0.2578902840614319,0.0,0.0,0.0,0.0,0.0,0.0,0.0,0.0,0.0,-0.001056180102750659,0.010182352736592293,0.3309943974018097,0.0,0.0,0.0,0.0,0.0,0.0,0.0,0.0,0.0
1606827728324202406,1732650,1606827728316714992,imu_link,0.0018171935807913542,0.002298321109265089,0.20538918673992157,0.9786760210990906,0.0,0.0,0.0,0.0,0.0,0.0,0.0,0.0,0.0,23.705148696899414,0.21498338878154755,0.2578902840614319,0.0,0.0,0.0,0.0,0.0,0.0,0.0,0.0,0.0,-0.001056180102750659,0.010182352736592293,0.3309943974018097,0.0,0.0,0.0,0.0,0.0,0.0,0.0,0.0,0.0
1606827728325677207,1732651,1606827728316847809,imu_link,0.0018180576153099537,0.002298698527738452,0.20538902282714844,0.9786760210990906,0.0,0.0,0.0,0.0,0.0,0.0,0.0,0.0,0.0,23.70513153076172,0.21500542759895325,0.2579960525035858,0.0,0.0,0.0,0.0,0.0,0.0,0.0,0.0,0.0,-0.002477622590959072,-0.007086197379976511,0.32853758335113525,0.0,0.0,0.0,0.0,0.0,0.0,0.0,0.0,0.0
1606827728325737112,1732652,1606827728317018708,imu_link,0.0018180576153099537,0.002298698527738452,0.20538902282714844,0.9786760210990906,0.0,0.0,0.0,0.0,0.0,0.0,0.0,0.0,0.0,23.70513153076172,0.21500542759895325,0.2579960525035858,0.0,0.0,0.0,0.0,0.0,0.0,0.0,0.0,0.0,-0.002477622590959072,-0.007086197379976511,0.32853758335113525,0.0,0.0,0.0,0.0,0.0,0.0,0.0,0.0,0.0
1606827728325749412,1732653,1606827728317098803,imu_link,0.0018193820724263787,0.002299889223650098,0.20537744462490082,0.9786784648895264,0.0,0.0,0.0,0.0,0.0,0.0,0.0,0.0,0.0,23.703777313232422,0.21511085331439972,0.25817006826400757,0.0,0.0,0.0,0.0,0.0,0.0,0.0,0.0,0.0,-0.01868431642651558,0.002077360637485981,0.3203195631504059,0.0,0.0,0.0,0.0,0.0,0.0,0.0,0.0,0.0
1606827728325775827,1732654,1606827728317253981,imu_link,0.0018193820724263787,0.002299889223650098,0.20537744462490082,0.9786784648895264,0.0,0.0,0.0,0.0,0.0,0.0,0.0,0.0,0.0,23.703777313232422,0.21511085331439972,0.25817006826400757,0.0,0.0,0.0,0.0,0.0,0.0,0.0,0.0,0.0,-0.01868431642651558,0.002077360637485981,0.3203195631504059,0.0,0.0,0.0,0.0,0.0,0.0,0.0,0.0,0.0
1606827728325808253,1732655,1606827728317334191,imu_link,0.0018171132542192936,0.002300528809428215,0.2053777575492859,0.9786784052848816,0.0,0.0,0.0,0.0,0.0,0.0,0.0,0.0,0.0,23.703813552856445,0.2152359038591385,0.257930725812912,0.0,0.0,0.0,0.0,0.0,0.0,0.0,0.0,0.0,-0.0162371639162302,0.01772676780819893,0.32937365770339966,0.0,0.0,0.0,0.0,0.0,0.0,0.0,0.0,0.0
1606827728325816238,1732656,1606827728317443208,imu_link,0.0018171132542192936,0.002300528809428215,0.2053777575492859,0.9786784052848816,0.0,0.0,0.0,0.0,0.0,0.0,0.0,0.0,0.0,23.703813552856445,0.2152359038591385,0.257930725812912,0.0,0.0,0.0,0.0,0.0,0.0,0.0,0.0,0.0,-0.0162371639162302,0.01772676780819893,0.32937365770339966,0.0,0.0,0.0,0.0,0.0,0.0,0.0,0.0,0.0
1606827728325927802,1732657,1606827728317522375,imu_link,0.0018139523454010487,0.0022967676632106304,0.2053779661655426,0.9786783456802368,0.0,0.0,0.0,0.0,0.0,0.0,0.0,0.0,0.0,23.70383644104004,0.21488843858242035,0.25748780369758606,0.0,0.0,0.0,0.0,0.0,0.0,0.0,0.0,0.0,-0.013863355852663517,0.005408288910984993,0.3214395046234131,0.0,0.0,0.0,0.0,0.0,0.0,0.0,0.0,0.0
1606827728325940262,1732658,1606827728317613646,imu_link,0.0018139523454010487,0.0022967676632106304,0.2053779661655426,0.9786783456802368,0.0,0.0,0.0,0.0,0.0,0.0,0.0,0.0,0.0,23.70383644104004,0.21488843858242035,0.25748780369758606,0.0,0.0,0.0,0.0,0.0,0.0,0.0,0.0,0.0,-0.013863355852663517,0.005408288910984993,0.3214395046234131,0.0,0.0,0.0,0.0,0.0,0.0,0.0,0.0,0.0
1606827728326703246,1732659,1606827728317693210,imu_link,0.001815094263292849,0.0022956421598792076,0.2053803652524948,0.9786778688430786,0.0,0.0,0.0,0.0,0.0,0.0,0.0,0.0,0.0,23.70411491394043,0.21473470330238342,0.25758984684944153,0.0,0.0,0.0,0.0,0.0,0.0,0.0,0.0,0.0,-0.007941371761262417,-0.009235650300979614,0.326494425535202,0.0,0.0,0.0,0.0,0.0,0.0,0.0,0.0,0.0
1606827728326719058,1732660,1606827728317774903,imu_link,0.001815094263292849,0.0022956421598792076,0.2053803652524948,0.9786778688430786,0.0,0.0,0.0,0.0,0.0,0.0,0.0,0.0,0.0,23.70411491394043,0.21473470330238342,0.25758984684944153,0.0,0.0,0.0,0.0,0.0,0.0,0.0,0.0,0.0,-0.007941371761262417,-0.009235650300979614,0.326494425535202,0.0,0.0,0.0,0.0,0.0,0.0,0.0,0.0,0.0
1606827728338033895,1732661,1606827728330352518,imu_link,0.0018169553950428963,0.00229239696636796,0.20537824928760529,0.9786783456802368,0.0,0.0,0.0,0.0,0.0,0.0,0.0,0.0,0.0,23.703868865966797,0.21432751417160034,0.25772175192832947,0.0,0.0,0.0,0.0,0.0,0.0,0.0,0.0,0.0,0.0012590010883286595,-0.005862170364707708,0.35512447357177734,0.0,0.0,0.0,0.0,0.0,0.0,0.0,0.0,0.0
1606827728338730711,1732662,1606827728330488668,imu_link,0.0018169553950428963,0.00229239696636796,0.20537824928760529,0.9786783456802368,0.0,0.0,0.0,0.0,0.0,0.0,0.0,0.0,0.0,23.703868865966797,0.21432751417160034,0.25772175192832947,0.0,0.0,0.0,0.0,0.0,0.0,0.0,0.0,0.0,0.0012590010883286595,-0.005862170364707708,0.35512447357177734,0.0,0.0,0.0,0.0,0.0,0.0,0.0,0.0,0.0
1606827728338764318,1732663,1606827728330677163,imu_link,0.00181605014950037,0.0022938428446650505,0.20537999272346497,0.9786779880523682,0.0,0.0,0.0,0.0,0.0,0.0,0.0,0.0,0.0,23.704072952270508,0.21451053023338318,0.2576546370983124,0.0,0.0,0.0,0.0,0.0,0.0,0.0,0.0,0.0,0.0056137144565582275,0.0002324600936844945,0.3423033654689789,0.0,0.0,0.0,0.0,0.0,0.0,0.0,0.0,0.0
1606827728338813750,1732664,1606827728330762319,imu_link,0.00181605014950037,0.0022938428446650505,0.20537999272346497,0.9786779880523682,0.0,0.0,0.0,0.0,0.0,0.0,0.0,0.0,0.0,23.704072952270508,0.21451053023338318,0.2576546370983124,0.0,0.0,0.0,0.0,0.0,0.0,0.0,0.0,0.0,0.0056137144565582275,0.0002324600936844945,0.3423033654689789,0.0,0.0,0.0,0.0,0.0,0.0,0.0,0.0,0.0
1606827728338837304,1732665,1606827728330848268,imu_link,0.0018144280184060335,0.0022947611287236214,0.20538824796676636,0.9786762595176697,0.0,0.0,0.0,0.0,0.0,0.0,0.0,0.0,0.0,23.70503807067871,0.2146495133638382,0.2574961185455322,0.0,0.0,0.0,0.0,0.0,0.0,0.0,0.0,0.0,0.009210923686623573,0.008779352530837059,0.31087440252304077,0.0,0.0,0.0,0.0,0.0,0.0,0.0,0.0,0.0
1606827728339963854,1732666,1606827728330941919,imu_link,0.0018144280184060335,0.0022947611287236214,0.20538824796676636,0.9786762595176697,0.0,0.0,0.0,0.0,0.0,0.0,0.0,0.0,0.0,23.70503807067871,0.2146495133638382,0.2574961185455322,0.0,0.0,0.0,0.0,0.0,0.0,0.0,0.0,0.0,0.009210923686623573,0.008779352530837059,0.31087440252304077,0.0,0.0,0.0,0.0,0.0,0.0,0.0,0.0,0.0
1606827728339995795,1732667,1606827728331042326,imu_link,0.0018126528011634946,0.0022914817091077566,0.2053874284029007,0.978676438331604,0.0,0.0,0.0,0.0,0.0,0.0,0.0,0.0,0.0,23.704940795898438,0.2143237143754959,0.2572196125984192,0.0,0.0,0.0,0.0,0.0,0.0,0.0,0.0,0.0,-0.0003452443052083254,0.007000480312854052,0.31772559881210327,0.0,0.0,0.0,0.0,0.0,0.0,0.0,0.0,0.0
1606827728340011632,1732668,1606827728331128555,imu_link,0.0018126528011634946,0.0022914817091077566,0.2053874284029007,0.978676438331604,0.0,0.0,0.0,0.0,0.0,0.0,0.0,0.0,0.0,23.704940795898438,0.2143237143754959,0.2572196125984192,0.0,0.0,0.0,0.0,0.0,0.0,0.0,0.0,0.0,-0.0003452443052083254,0.007000480312854052,0.31772559881210327,0.0,0.0,0.0,0.0,0.0,0.0,0.0,0.0,0.0
1606827728340042038,1732669,1606827728331218718,imu_link,0.0018114176345989108,0.002291145734488964,0.20539313554763794,0.9786752462387085,0.0,0.0,0.0,0.0,0.0,0.0,0.0,0.0,0.0,23.705610275268555,0.21431361138820648,0.2570744752883911,0.0,0.0,0.0,0.0,0.0,0.0,0.0,0.0,0.0,0.004647550638765097,-0.004127679392695427,0.3284335732460022,0.0,0.0,0.0,0.0,0.0,0.0,0.0,0.0,0.0
1606827728340052266,1732670,1606827728331342273,imu_link,0.0018114176345989108,0.002291145734488964,0.20539313554763794,0.9786752462387085,0.0,0.0,0.0,0.0,0.0,0.0,0.0,0.0,0.0,23.705610275268555,0.21431361138820648,0.2570744752883911,0.0,0.0,0.0,0.0,0.0,0.0,0.0,0.0,0.0,0.004647550638765097,-0.004127679392695427,0.3284335732460022,0.0,0.0,0.0,0.0,0.0,0.0,0.0,0.0,0.0
1606827728340070648,1732671,1606827728331434080,imu_link,0.0018104769987985492,0.002290264470502734,0.205391988158226,0.9786754846572876,0.0,0.0,0.0,0.0,0.0,0.0,0.0,0.0,0.0,23.705472946166992,0.21423722803592682,0.2569480240345001,0.0,0.0,0.0,0.0,0.0,0.0,0.0,0.0,0.0,0.017735369503498077,0.0013559069484472275,0.34344130754470825,0.0,0.0,0.0,0.0,0.0,0.0,0.0,0.0,0.0
1606827728351767068,1732672,1606827728344132488,imu_link,0.0018104769987985492,0.002290264470502734,0.205391988158226,0.9786754846572876,0.0,0.0,0.0,0.0,0.0,0.0,0.0,0.0,0.0,23.705472946166992,0.21423722803592682,0.2569480240345001,0.0,0.0,0.0,0.0,0.0,0.0,0.0,0.0,0.0,0.017735369503498077,0.0013559069484472275,0.34344130754470825,0.0,0.0,0.0,0.0,0.0,0.0,0.0,0.0,0.0
1606827728352241315,1732673,1606827728344268202,imu_link,0.0018107467330992222,0.002293936675414443,0.20540210604667664,0.9786732792854309,0.0,0.0,0.0,0.0,0.0,0.0,0.0,0.0,0.0,23.7066593170166,0.2146400362253189,0.25706690549850464,0.0,0.0,0.0,0.0,0.0,0.0,0.0,0.0,0.0,0.007737345993518829,-0.010515296831727028,0.34074968099594116,0.0,0.0,0.0,0.0,0.0,0.0,0.0,0.0,0.0
1606827728352262306,1732674,1606827728344455058,imu_link,0.0018107467330992222,0.002293936675414443,0.20540210604667664,0.9786732792854309,0.0,0.0,0.0,0.0,0.0,0.0,0.0,0.0,0.0,23.7066593170166,0.2146400362253189,0.25706690549850464,0.0,0.0,0.0,0.0,0.0,0.0,0.0,0.0,0.0,0.007737345993518829,-0.010515296831727028,0.34074968099594116,0.0,0.0,0.0,0.0,0.0,0.0,0.0,0.0,0.0
1606827728352278859,1732675,1606827728344542485,imu_link,0.0018109094817191362,0.0022941490169614553,0.20540140569210052,0.97867351770401,0.0,0.0,0.0,0.0,0.0,0.0,0.0,0.0,0.0,23.706575393676758,0.21466022729873657,0.2570899724960327,0.0,0.0,0.0,0.0,0.0,0.0,0.0,0.0,0.0,0.002602714579552412,-0.008700553327798843,0.31509384512901306,0.0,0.0,0.0,0.0,0.0,0.0,0.0,0.0,0.0
1606827728352291784,1732676,1606827728344616150,imu_link,0.0018109094817191362,0.0022941490169614553,0.20540140569210052,0.97867351770401,0.0,0.0,0.0,0.0,0.0,0.0,0.0,0.0,0.0,23.706575393676758,0.21466022729873657,0.2570899724960327,0.0,0.0,0.0,0.0,0.0,0.0,0.0,0.0,0.0,0.002602714579552412,-0.008700553327798843,0.31509384512901306,0.0,0.0,0.0,0.0,0.0,0.0,0.0,0.0,0.0
1606827728353100895,1732677,1606827728344709701,imu_link,0.001811156515032053,0.0022942840587347746,0.2054116129875183,0.9786713719367981,0.0,0.0,0.0,0.0,0.0,0.0,0.0,0.0,0.0,23.707773208618164,0.21466685831546783,0.25712311267852783,0.0,0.0,0.0,0.0,0.0,0.0,0.0,0.0,0.0,0.012039193883538246,0.005136971361935139,0.3077694773674011,0.0,0.0,0.0,0.0,0.0,0.0,0.0,0.0,0.0
1606827728353129654,1732678,1606827728344810348,imu_link,0.001811156515032053,0.0022942840587347746,0.2054116129875183,0.9786713719367981,0.0,0.0,0.0,0.0,0.0,0.0,0.0,0.0,0.0,23.707773208618164,0.21466685831546783,0.25712311267852783,0.0,0.0,0.0,0.0,0.0,0.0,0.0,0.0,0.0,0.012039193883538246,0.005136971361935139,0.3077694773674011,0.0,0.0,0.0,0.0,0.0,0.0,0.0,0.0,0.0
1606827728353137199,1732679,1606827728344899454,imu_link,0.0018092852551490068,0.0022936007007956505,0.20541417598724365,0.9786708354949951,0.0,0.0,0.0,0.0,0.0,0.0,0.0,0.0,0.0,23.708070755004883,0.21463361382484436,0.2568977177143097,0.0,0.0,0.0,0.0,0.0,0.0,0.0,0.0,0.0,0.01977880485355854,-0.012944277375936508,0.3336816728115082,0.0,0.0,0.0,0.0,0.0,0.0,0.0,0.0,0.0
1606827728353159160,1732680,1606827728344984781,imu_link,0.0018092852551490068,0.0022936007007956505,0.20541417598724365,0.9786708354949951,0.0,0.0,0.0,0.0,0.0,0.0,0.0,0.0,0.0,23.708070755004883,0.21463361382484436,0.2568977177143097,0.0,0.0,0.0,0.0,0.0,0.0,0.0,0.0,0.0,0.01977880485355854,-0.012944277375936508,0.3336816728115082,0.0,0.0,0.0,0.0,0.0,0.0,0.0,0.0,0.0
1606827728356609899,1732681,1606827728345066970,imu_link,0.0018115879502147436,0.002299362560734153,0.2054210752248764,0.9786693453788757,0.0,0.0,0.0,0.0,0.0,0.0,0.0,0.0,0.0,23.708885192871094,0.2152237594127655,0.25729313492774963,0.0,0.0,0.0,0.0,0.0,0.0,0.0,0.0,0.0,0.044752031564712524,-0.01584462821483612,0.3425188660621643,0.0,0.0,0.0,0.0,0.0,0.0,0.0,0.0,0.0
1606827728356627130,1732682,1606827728345148919,imu_link,0.0018115879502147436,0.002299362560734153,0.2054210752248764,0.9786693453788757,0.0,0.0,0.0,0.0,0.0,0.0,0.0,0.0,0.0,23.708885192871094,0.2152237594127655,0.25729313492774963,0.0,0.0,0.0,0.0,0.0,0.0,0.0,0.0,0.0,0.044752031564712524,-0.01584462821483612,0.3425188660621643,0.0,0.0,0.0,0.0,0.0,0.0,0.0,0.0,0.0
1606827728364664113,1732683,1606827728357081064,imu_link,0.001811850699596107,0.002298231702297926,0.20542219281196594,0.9786691069602966,0.0,0.0,0.0,0.0,0.0,0.0,0.0,0.0,0.0,23.709012985229492,0.21509045362472534,0.25729623436927795,0.0,0.0,0.0,0.0,0.0,0.0,0.0,0.0,0.0,0.031149087473750114,0.0016580289229750633,0.3285233676433563,0.0,0.0,0.0,0.0,0.0,0.0,0.0,0.0,0.0
1606827728365161333,1732684,1606827728357213605,imu_link,0.001811850699596107,0.002298231702297926,0.20542219281196594,0.9786691069602966,0.0,0.0,0.0,0.0,0.0,0.0,0.0,0.0,0.0,23.709012985229492,0.21509045362472534,0.25729623436927795,0.0,0.0,0.0,0.0,0.0,0.0,0.0,0.0,0.0,0.031149087473750114,0.0016580289229750633,0.3285233676433563,0.0,0.0,0.0,0.0,0.0,0.0,0.0,0.0,0.0
1606827728365206418,1732685,1606827728357397219,imu_link,0.0018097355496138334,0.0023055223282426596,0.2054283171892166,0.9786678552627563,0.0,0.0,0.0,0.0,0.0,0.0,0.0,0.0,0.0,23.709732055664062,0.21595627069473267,0.2572319805622101,0.0,0.0,0.0,0.0,0.0,0.0,0.0,0.0,0.0,0.0009112203260883689,0.0014125814195722342,0.3286237120628357,0.0,0.0,0.0,0.0,0.0,0.0,0.0,0.0,0.0
1606827728365225470,1732686,1606827728357511252,imu_link,0.0018097355496138334,0.0023055223282426596,0.2054283171892166,0.9786678552627563,0.0,0.0,0.0,0.0,0.0,0.0,0.0,0.0,0.0,23.709732055664062,0.21595627069473267,0.2572319805622101,0.0,0.0,0.0,0.0,0.0,0.0,0.0,0.0,0.0,0.0009112203260883689,0.0014125814195722342,0.3286237120628357,0.0,0.0,0.0,0.0,0.0,0.0,0.0,0.0,0.0
1606827728365279068,1732687,1606827728357591718,imu_link,0.0018097007414326072,0.002303090412169695,0.20542803406715393,0.9786677956581116,0.0,0.0,0.0,0.0,0.0,0.0,0.0,0.0,0.0,23.709701538085938,0.21568439900875092,0.25717079639434814,0.0,0.0,0.0,0.0,0.0,0.0,0.0,0.0,0.0,-0.010242566466331482,-0.026472406461834908,0.3167665898799896,0.0,0.0,0.0,0.0,0.0,0.0,0.0,0.0,0.0
1606827728366063732,1732688,1606827728357697618,imu_link,0.0018097007414326072,0.002303090412169695,0.20542803406715393,0.9786677956581116,0.0,0.0,0.0,0.0,0.0,0.0,0.0,0.0,0.0,23.709701538085938,0.21568439900875092,0.25717079639434814,0.0,0.0,0.0,0.0,0.0,0.0,0.0,0.0,0.0,-0.010242566466331482,-0.026472406461834908,0.3167665898799896,0.0,0.0,0.0,0.0,0.0,0.0,0.0,0.0,0.0
1606827728366078205,1732689,1606827728357781772,imu_link,0.0018152144039049745,0.002301204251125455,0.20542702078819275,0.9786680340766907,0.0,0.0,0.0,0.0,0.0,0.0,0.0,0.0,0.0,23.70958137512207,0.21534334123134613,0.25774452090263367,0.0,0.0,0.0,0.0,0.0,0.0,0.0,0.0,0.0,-0.010060702450573444,-0.028903532773256302,0.3302218019962311,0.0,0.0,0.0,0.0,0.0,0.0,0.0,0.0,0.0
1606827728366101460,1732690,1606827728357859992,imu_link,0.0018152144039049745,0.002301204251125455,0.20542702078819275,0.9786680340766907,0.0,0.0,0.0,0.0,0.0,0.0,0.0,0.0,0.0,23.70958137512207,0.21534334123134613,0.25774452090263367,0.0,0.0,0.0,0.0,0.0,0.0,0.0,0.0,0.0,-0.010060702450573444,-0.028903532773256302,0.3302218019962311,0.0,0.0,0.0,0.0,0.0,0.0,0.0,0.0,0.0
1606827728366119917,1732691,1606827728357977594,imu_link,0.0018147950759157538,0.002299270825460553,0.20542804896831512,0.9786677956581116,0.0,0.0,0.0,0.0,0.0,0.0,0.0,0.0,0.0,23.709701538085938,0.2151361107826233,0.2576521933078766,0.0,0.0,0.0,0.0,0.0,0.0,0.0,0.0,0.0,-0.0006518939044326544,0.0023336554877460003,0.3444114625453949,0.0,0.0,0.0,0.0,0.0,0.0,0.0,0.0,0.0
1606827728366132938,1732692,1606827728358057478,imu_link,0.0018147950759157538,0.002299270825460553,0.20542804896831512,0.9786677956581116,0.0,0.0,0.0,0.0,0.0,0.0,0.0,0.0,0.0,23.709701538085938,0.2151361107826233,0.2576521933078766,0.0,0.0,0.0,0.0,0.0,0.0,0.0,0.0,0.0,-0.0006518939044326544,0.0023336554877460003,0.3444114625453949,0.0,0.0,0.0,0.0,0.0,0.0,0.0,0.0,0.0
1606827728366167577,1732693,1606827728358143933,imu_link,0.001816394506022334,0.0022987090051174164,0.2054276317358017,0.9786679148674011,0.0,0.0,0.0,0.0,0.0,0.0,0.0,0.0,0.0,23.709651947021484,0.2150355875492096,0.2578182518482208,0.0,0.0,0.0,0.0,0.0,0.0,0.0,0.0,0.0,-0.002616425510495901,0.0009587445529177785,0.3413098454475403,0.0,0.0,0.0,0.0,0.0,0.0,0.0,0.0,0.0
1606827728378072814,1732694,1606827728370489732,imu_link,0.001816394506022334,0.0022987090051174164,0.2054276317358017,0.9786679148674011,0.0,0.0,0.0,0.0,0.0,0.0,0.0,0.0,0.0,23.709651947021484,0.2150355875492096,0.2578182518482208,0.0,0.0,0.0,0.0,0.0,0.0,0.0,0.0,0.0,-0.002616425510495901,0.0009587445529177785,0.3413098454475403,0.0,0.0,0.0,0.0,0.0,0.0,0.0,0.0,0.0
1606827728380219291,1732695,1606827728370619908,imu_link,0.0018153282580897212,0.0022969390265643597,0.20542651414871216,0.9786681532859802,0.0,0.0,0.0,0.0,0.0,0.0,0.0,0.0,0.0,23.70952033996582,0.21486246585845947,0.2576567828655243,0.0,0.0,0.0,0.0,0.0,0.0,0.0,0.0,0.0,-0.0011007081484422088,-0.0048793014138937,0.3598081171512604,0.0,0.0,0.0,0.0,0.0,0.0,0.0,0.0,0.0
1606827728380250434,1732696,1606827728370794030,imu_link,0.0018153282580897212,0.0022969390265643597,0.20542651414871216,0.9786681532859802,0.0,0.0,0.0,0.0,0.0,0.0,0.0,0.0,0.0,23.70952033996582,0.21486246585845947,0.2576567828655243,0.0,0.0,0.0,0.0,0.0,0.0,0.0,0.0,0.0,-0.0011007081484422088,-0.0048793014138937,0.3598081171512604,0.0,0.0,0.0,0.0,0.0,0.0,0.0,0.0,0.0
1606827728380282946,1732697,1606827728370882288,imu_link,0.0018163090571761131,0.0022946547251194715,0.20541782677173615,0.9786700010299683,0.0,0.0,0.0,0.0,0.0,0.0,0.0,0.0,0.0,23.7085018157959,0.21458551287651062,0.2577110826969147,0.0,0.0,0.0,0.0,0.0,0.0,0.0,0.0,0.0,0.011201087385416031,0.0002843315014615655,0.3586607873439789,0.0,0.0,0.0,0.0,0.0,0.0,0.0,0.0,0.0
1606827728380296395,1732698,1606827728370961281,imu_link,0.0018163090571761131,0.0022946547251194715,0.20541782677173615,0.9786700010299683,0.0,0.0,0.0,0.0,0.0,0.0,0.0,0.0,0.0,23.7085018157959,0.21458551287651062,0.2577110826969147,0.0,0.0,0.0,0.0,0.0,0.0,0.0,0.0,0.0,0.011201087385416031,0.0002843315014615655,0.3586607873439789,0.0,0.0,0.0,0.0,0.0,0.0,0.0,0.0,0.0
1606827728380303499,1732699,1606827728371065466,imu_link,0.0018169403774663806,0.002295281272381544,0.2054191380739212,0.9786697626113892,0.0,0.0,0.0,0.0,0.0,0.0,0.0,0.0,0.0,23.70865821838379,0.2146405726671219,0.25779691338539124,0.0,0.0,0.0,0.0,0.0,0.0,0.0,0.0,0.0,-0.004993740934878588,0.0013262745924293995,0.34001755714416504,0.0,0.0,0.0,0.0,0.0,0.0,0.0,0.0,0.0
1606827728380322584,1732700,1606827728371155534,imu_link,0.0018169403774663806,0.002295281272381544,0.2054191380739212,0.9786697626113892,0.0,0.0,0.0,0.0,0.0,0.0,0.0,0.0,0.0,23.70865821838379,0.2146405726671219,0.25779691338539124,0.0,0.0,0.0,0.0,0.0,0.0,0.0,0.0,0.0,-0.004993740934878588,0.0013262745924293995,0.34001755714416504,0.0,0.0,0.0,0.0,0.0,0.0,0.0,0.0,0.0
1606827728380334087,1732701,1606827728371236000,imu_link,0.001816567499190569,0.00229621771723032,0.20540845394134521,0.9786719679832458,0.0,0.0,0.0,0.0,0.0,0.0,0.0,0.0,0.0,23.70740509033203,0.21475717425346375,0.25777480006217957,0.0,0.0,0.0,0.0,0.0,0.0,0.0,0.0,0.0,-0.027968237176537514,0.007593044079840183,0.32351407408714294,0.0,0.0,0.0,0.0,0.0,0.0,0.0,0.0,0.0
1606827728380348806,1732702,1606827728371371904,imu_link,0.001816567499190569,0.00229621771723032,0.20540845394134521,0.9786719679832458,0.0,0.0,0.0,0.0,0.0,0.0,0.0,0.0,0.0,23.70740509033203,0.21475717425346375,0.25777480006217957,0.0,0.0,0.0,0.0,0.0,0.0,0.0,0.0,0.0,-0.027968237176537514,0.007593044079840183,0.32351407408714294,0.0,0.0,0.0,0.0,0.0,0.0,0.0,0.0,0.0
1606827728380369024,1732703,1606827728371451703,imu_link,0.0018171198898926377,0.0022965874522924423,0.20540931820869446,0.9786717891693115,0.0,0.0,0.0,0.0,0.0,0.0,0.0,0.0,0.0,23.70750617980957,0.2147853970527649,0.2578456401824951,0.0,0.0,0.0,0.0,0.0,0.0,0.0,0.0,0.0,-0.02065162919461727,0.005080528557300568,0.32359760999679565,0.0,0.0,0.0,0.0,0.0,0.0,0.0,0.0,0.0
1606827728399634289,1732704,1606827728384223045,imu_link,0.0018171198898926377,0.0022965874522924423,0.20540931820869446,0.9786717891693115,0.0,0.0,0.0,0.0,0.0,0.0,0.0,0.0,0.0,23.70750617980957,0.2147853970527649,0.2578456401824951,0.0,0.0,0.0,0.0,0.0,0.0,0.0,0.0,0.0,-0.02065162919461727,0.005080528557300568,0.32359760999679565,0.0,0.0,0.0,0.0,0.0,0.0,0.0,0.0,0.0
1606827728399661875,1732705,1606827728384367463,imu_link,0.001818314311094582,0.0022927620448172092,0.20540767908096313,0.9786721467971802,0.0,0.0,0.0,0.0,0.0,0.0,0.0,0.0,0.0,23.707313537597656,0.21432869136333466,0.25788918137550354,0.0,0.0,0.0,0.0,0.0,0.0,0.0,0.0,0.0,-0.002426052698865533,-0.0028146912809461355,0.31955960392951965,0.0,0.0,0.0,0.0,0.0,0.0,0.0,0.0,0.0
1606827728399706789,1732706,1606827728384535261,imu_link,0.001818314311094582,0.0022927620448172092,0.20540767908096313,0.9786721467971802,0.0,0.0,0.0,0.0,0.0,0.0,0.0,0.0,0.0,23.707313537597656,0.21432869136333466,0.25788918137550354,0.0,0.0,0.0,0.0,0.0,0.0,0.0,0.0,0.0,-0.002426052698865533,-0.0028146912809461355,0.31955960392951965,0.0,0.0,0.0,0.0,0.0,0.0,0.0,0.0,0.0
1606827728399719175,1732707,1606827728384631969,imu_link,0.0018187593668699265,0.002292437246069312,0.20540988445281982,0.978671669960022,0.0,0.0,0.0,0.0,0.0,0.0,0.0,0.0,0.0,23.70757293701172,0.21428120136260986,0.2579319477081299,0.0,0.0,0.0,0.0,0.0,0.0,0.0,0.0,0.0,0.005367076024413109,0.0048802876845002174,0.31178438663482666,0.0,0.0,0.0,0.0,0.0,0.0,0.0,0.0,0.0
1606827728399744556,1732708,1606827728384710896,imu_link,0.0018187593668699265,0.002292437246069312,0.20540988445281982,0.978671669960022,0.0,0.0,0.0,0.0,0.0,0.0,0.0,0.0,0.0,23.70757293701172,0.21428120136260986,0.2579319477081299,0.0,0.0,0.0,0.0,0.0,0.0,0.0,0.0,0.0,0.005367076024413109,0.0048802876845002174,0.31178438663482666,0.0,0.0,0.0,0.0,0.0,0.0,0.0,0.0,0.0
1606827728400283583,1732709,1606827728384789127,imu_link,0.0018174633150920272,0.0022956272587180138,0.20540744066238403,0.978672206401825,0.0,0.0,0.0,0.0,0.0,0.0,0.0,0.0,0.0,23.707286834716797,0.21467016637325287,0.2578611373901367,0.0,0.0,0.0,0.0,0.0,0.0,0.0,0.0,0.0,0.009542013518512249,0.014296043664216995,0.322133868932724,0.0,0.0,0.0,0.0,0.0,0.0,0.0,0.0,0.0
1606827728400302632,1732710,1606827728384893347,imu_link,0.0018174633150920272,0.0022956272587180138,0.20540744066238403,0.978672206401825,0.0,0.0,0.0,0.0,0.0,0.0,0.0,0.0,0.0,23.707286834716797,0.21467016637325287,0.2578611373901367,0.0,0.0,0.0,0.0,0.0,0.0,0.0,0.0,0.0,0.009542013518512249,0.014296043664216995,0.322133868932724,0.0,0.0,0.0,0.0,0.0,0.0,0.0,0.0,0.0
1606827728400336134,1732711,1606827728384971618,imu_link,0.001816876931115985,0.0022968463599681854,0.2054077684879303,0.9786720871925354,0.0,0.0,0.0,0.0,0.0,0.0,0.0,0.0,0.0,23.707324981689453,0.21482057869434357,0.2578241527080536,0.0,0.0,0.0,0.0,0.0,0.0,0.0,0.0,0.0,-0.005288873799145222,0.014033220708370209,0.3133264482021332,0.0,0.0,0.0,0.0,0.0,0.0,0.0,0.0,0.0
1606827728400349111,1732712,1606827728385044732,imu_link,0.001816876931115985,0.0022968463599681854,0.2054077684879303,0.9786720871925354,0.0,0.0,0.0,0.0,0.0,0.0,0.0,0.0,0.0,23.707324981689453,0.21482057869434357,0.2578241527080536,0.0,0.0,0.0,0.0,0.0,0.0,0.0,0.0,0.0,-0.005288873799145222,0.014033220708370209,0.3133264482021332,0.0,0.0,0.0,0.0,0.0,0.0,0.0,0.0,0.0
1606827728401472029,1732713,1606827728385128916,imu_link,0.0018148277886211872,0.002295776968821883,0.20541487634181976,0.978670597076416,0.0,0.0,0.0,0.0,0.0,0.0,0.0,0.0,0.0,23.70815658569336,0.21474701166152954,0.257570743560791,0.0,0.0,0.0,0.0,0.0,0.0,0.0,0.0,0.0,-0.021938718855381012,-0.012124228291213512,0.3161331117153168,0.0,0.0,0.0,0.0,0.0,0.0,0.0,0.0,0.0
1606827728401494438,1732714,1606827728385215100,imu_link,0.0018148277886211872,0.002295776968821883,0.20541487634181976,0.978670597076416,0.0,0.0,0.0,0.0,0.0,0.0,0.0,0.0,0.0,23.70815658569336,0.21474701166152954,0.257570743560791,0.0,0.0,0.0,0.0,0.0,0.0,0.0,0.0,0.0,-0.021938718855381012,-0.012124228291213512,0.3161331117153168,0.0,0.0,0.0,0.0,0.0,0.0,0.0,0.0,0.0
1606827728405249530,1732715,1606827728397731874,imu_link,0.0018164146458730102,0.0022969688288867474,0.20541590452194214,0.9786704182624817,0.0,0.0,0.0,0.0,0.0,0.0,0.0,0.0,0.0,23.708276748657227,0.2148430496454239,0.2577769458293915,0.0,0.0,0.0,0.0,0.0,0.0,0.0,0.0,0.0,-0.023510565981268883,-0.02692670188844204,0.32755422592163086,0.0,0.0,0.0,0.0,0.0,0.0,0.0,0.0,0.0
1606827728406426707,1732716,1606827728397864961,imu_link,0.0018164146458730102,0.0022969688288867474,0.20541590452194214,0.9786704182624817,0.0,0.0,0.0,0.0,0.0,0.0,0.0,0.0,0.0,23.708276748657227,0.2148430496454239,0.2577769458293915,0.0,0.0,0.0,0.0,0.0,0.0,0.0,0.0,0.0,-0.023510565981268883,-0.02692670188844204,0.32755422592163086,0.0,0.0,0.0,0.0,0.0,0.0,0.0,0.0,0.0
1606827728406460814,1732717,1606827728398048700,imu_link,0.0018221117788925767,0.0022948291152715683,0.20542171597480774,0.9786692261695862,0.0,0.0,0.0,0.0,0.0,0.0,0.0,0.0,0.0,23.70895767211914,0.21446745097637177,0.25836679339408875,0.0,0.0,0.0,0.0,0.0,0.0,0.0,0.0,0.0,-0.01198424119502306,-0.00336051476188004,0.328538715839386,0.0,0.0,0.0,0.0,0.0,0.0,0.0,0.0,0.0
1606827728406481298,1732718,1606827728398129938,imu_link,0.0018221117788925767,0.0022948291152715683,0.20542171597480774,0.9786692261695862,0.0,0.0,0.0,0.0,0.0,0.0,0.0,0.0,0.0,23.70895767211914,0.21446745097637177,0.25836679339408875,0.0,0.0,0.0,0.0,0.0,0.0,0.0,0.0,0.0,-0.01198424119502306,-0.00336051476188004,0.328538715839386,0.0,0.0,0.0,0.0,0.0,0.0,0.0,0.0,0.0
1606827728406518456,1732719,1606827728398206394,imu_link,0.001820937148295343,0.0022941173519939184,0.20542004704475403,0.9786695837974548,0.0,0.0,0.0,0.0,0.0,0.0,0.0,0.0,0.0,23.70876121520996,0.21441572904586792,0.2582179009914398,0.0,0.0,0.0,0.0,0.0,0.0,0.0,0.0,0.0,-0.0010348334908485413,0.010280387476086617,0.3365625739097595,0.0,0.0,0.0,0.0,0.0,0.0,0.0,0.0,0.0
1606827728406542364,1732720,1606827728398302311,imu_link,0.001820937148295343,0.0022941173519939184,0.20542004704475403,0.9786695837974548,0.0,0.0,0.0,0.0,0.0,0.0,0.0,0.0,0.0,23.70876121520996,0.21441572904586792,0.2582179009914398,0.0,0.0,0.0,0.0,0.0,0.0,0.0,0.0,0.0,-0.0010348334908485413,0.010280387476086617,0.3365625739097595,0.0,0.0,0.0,0.0,0.0,0.0,0.0,0.0,0.0
1606827728406577327,1732721,1606827728398404371,imu_link,0.0018179424805566669,0.002292838180437684,0.2054300606250763,0.9786674380302429,0.0,0.0,0.0,0.0,0.0,0.0,0.0,0.0,0.0,23.709936141967773,0.21434010565280914,0.257854163646698,0.0,0.0,0.0,0.0,0.0,0.0,0.0,0.0,0.0,-0.011675721034407616,0.012622149661183357,0.342093288898468,0.0,0.0,0.0,0.0,0.0,0.0,0.0,0.0,0.0
1606827728406632647,1732722,1606827728398495451,imu_link,0.0018179424805566669,0.002292838180437684,0.2054300606250763,0.9786674380302429,0.0,0.0,0.0,0.0,0.0,0.0,0.0,0.0,0.0,23.709936141967773,0.21434010565280914,0.257854163646698,0.0,0.0,0.0,0.0,0.0,0.0,0.0,0.0,0.0,-0.011675721034407616,0.012622149661183357,0.342093288898468,0.0,0.0,0.0,0.0,0.0,0.0,0.0,0.0,0.0
1606827728406645665,1732723,1606827728398580057,imu_link,0.001818130724132061,0.002290310338139534,0.20542927086353302,0.9786676168441772,0.0,0.0,0.0,0.0,0.0,0.0,0.0,0.0,0.0,23.709840774536133,0.21405237913131714,0.2578156292438507,0.0,0.0,0.0,0.0,0.0,0.0,0.0,0.0,0.0,0.000744201592169702,0.006269748322665691,0.34207388758659363,0.0,0.0,0.0,0.0,0.0,0.0,0.0,0.0,0.0
1606827728406678365,1732724,1606827728398667478,imu_link,0.001818130724132061,0.002290310338139534,0.20542927086353302,0.9786676168441772,0.0,0.0,0.0,0.0,0.0,0.0,0.0,0.0,0.0,23.709840774536133,0.21405237913131714,0.2578156292438507,0.0,0.0,0.0,0.0,0.0,0.0,0.0,0.0,0.0,0.000744201592169702,0.006269748322665691,0.34207388758659363,0.0,0.0,0.0,0.0,0.0,0.0,0.0,0.0,0.0
1606827728407217966,1732725,1606827728398752695,imu_link,0.0018172268755733967,0.002290512202307582,0.205437570810318,0.9786658883094788,0.0,0.0,0.0,0.0,0.0,0.0,0.0,0.0,0.0,23.710813522338867,0.2140941172838211,0.25772082805633545,0.0,0.0,0.0,0.0,0.0,0.0,0.0,0.0,0.0,0.006937599740922451,0.004368344787508249,0.34887394309043884,0.0,0.0,0.0,0.0,0.0,0.0,0.0,0.0,0.0
1606827728419066963,1732726,1606827728411570219,imu_link,0.0018172268755733967,0.002290512202307582,0.205437570810318,0.9786658883094788,0.0,0.0,0.0,0.0,0.0,0.0,0.0,0.0,0.0,23.710813522338867,0.2140941172838211,0.25772082805633545,0.0,0.0,0.0,0.0,0.0,0.0,0.0,0.0,0.0,0.006937599740922451,0.004368344787508249,0.34887394309043884,0.0,0.0,0.0,0.0,0.0,0.0,0.0,0.0,0.0
1606827728419736707,1732727,1606827728411701953,imu_link,0.0018150481628254056,0.0022916868329048157,0.2054377794265747,0.978665828704834,0.0,0.0,0.0,0.0,0.0,0.0,0.0,0.0,0.0,23.71083641052246,0.21427710354328156,0.2575041651725769,0.0,0.0,0.0,0.0,0.0,0.0,0.0,0.0,0.0,-0.005361952818930149,0.008078576065599918,0.3456755578517914,0.0,0.0,0.0,0.0,0.0,0.0,0.0,0.0,0.0
1606827728419747559,1732728,1606827728411890563,imu_link,0.0018150481628254056,0.0022916868329048157,0.2054377794265747,0.978665828704834,0.0,0.0,0.0,0.0,0.0,0.0,0.0,0.0,0.0,23.71083641052246,0.21427710354328156,0.2575041651725769,0.0,0.0,0.0,0.0,0.0,0.0,0.0,0.0,0.0,-0.005361952818930149,0.008078576065599918,0.3456755578517914,0.0,0.0,0.0,0.0,0.0,0.0,0.0,0.0,0.0
1606827728419756659,1732729,1606827728411978882,imu_link,0.001813017763197422,0.0022914516739547253,0.20543894171714783,0.9786655902862549,0.0,0.0,0.0,0.0,0.0,0.0,0.0,0.0,0.0,23.710973739624023,0.21429821848869324,0.2572711408138275,0.0,0.0,0.0,0.0,0.0,0.0,0.0,0.0,0.0,0.004135841503739357,-0.007680174428969622,0.33432328701019287,0.0,0.0,0.0,0.0,0.0,0.0,0.0,0.0,0.0
1606827728419770405,1732730,1606827728412053885,imu_link,0.001813017763197422,0.0022914516739547253,0.20543894171714783,0.9786655902862549,0.0,0.0,0.0,0.0,0.0,0.0,0.0,0.0,0.0,23.710973739624023,0.21429821848869324,0.2572711408138275,0.0,0.0,0.0,0.0,0.0,0.0,0.0,0.0,0.0,0.004135841503739357,-0.007680174428969622,0.33432328701019287,0.0,0.0,0.0,0.0,0.0,0.0,0.0,0.0,0.0
1606827728421109932,1732731,1606827728412184041,imu_link,0.0018130975076928735,0.0022887408267706633,0.2054397314786911,0.9786654710769653,0.0,0.0,0.0,0.0,0.0,0.0,0.0,0.0,0.0,23.711063385009766,0.21399211883544922,0.2572164833545685,0.0,0.0,0.0,0.0,0.0,0.0,0.0,0.0,0.0,0.0031519602052867413,-0.010815853253006935,0.331987589597702,0.0,0.0,0.0,0.0,0.0,0.0,0.0,0.0,0.0
1606827728421119868,1732732,1606827728412274189,imu_link,0.0018130975076928735,0.0022887408267706633,0.2054397314786911,0.9786654710769653,0.0,0.0,0.0,0.0,0.0,0.0,0.0,0.0,0.0,23.711063385009766,0.21399211883544922,0.2572164833545685,0.0,0.0,0.0,0.0,0.0,0.0,0.0,0.0,0.0,0.0031519602052867413,-0.010815853253006935,0.331987589597702,0.0,0.0,0.0,0.0,0.0,0.0,0.0,0.0,0.0
1606827728421131911,1732733,1606827728412355637,imu_link,0.0018148103263229132,0.002291026758030057,0.20544275641441345,0.978664755821228,0.0,0.0,0.0,0.0,0.0,0.0,0.0,0.0,0.0,23.7114200592041,0.21420735120773315,0.2574630677700043,0.0,0.0,0.0,0.0,0.0,0.0,0.0,0.0,0.0,0.0016493065049871802,0.003913505002856255,0.3374558091163635,0.0,0.0,0.0,0.0,0.0,0.0,0.0,0.0,0.0
1606827728421141256,1732734,1606827728412432364,imu_link,0.0018148103263229132,0.002291026758030057,0.20544275641441345,0.978664755821228,0.0,0.0,0.0,0.0,0.0,0.0,0.0,0.0,0.0,23.7114200592041,0.21420735120773315,0.2574630677700043,0.0,0.0,0.0,0.0,0.0,0.0,0.0,0.0,0.0,0.0016493065049871802,0.003913505002856255,0.3374558091163635,0.0,0.0,0.0,0.0,0.0,0.0,0.0,0.0,0.0
1606827728421146942,1732735,1606827728412507056,imu_link,0.001813926501199603,0.0022918509785085917,0.20544405281543732,0.9786645770072937,0.0,0.0,0.0,0.0,0.0,0.0,0.0,0.0,0.0,23.711570739746094,0.21432027220726013,0.2573835849761963,0.0,0.0,0.0,0.0,0.0,0.0,0.0,0.0,0.0,0.007547113113105297,0.006958614569157362,0.33366379141807556,0.0,0.0,0.0,0.0,0.0,0.0,0.0,0.0,0.0
1606827728421152798,1732736,1606827728412594503,imu_link,0.001813926501199603,0.0022918509785085917,0.20544405281543732,0.9786645770072937,0.0,0.0,0.0,0.0,0.0,0.0,0.0,0.0,0.0,23.711570739746094,0.21432027220726013,0.2573835849761963,0.0,0.0,0.0,0.0,0.0,0.0,0.0,0.0,0.0,0.007547113113105297,0.006958614569157362,0.33366379141807556,0.0,0.0,0.0,0.0,0.0,0.0,0.0,0.0,0.0
1606827728448056815,1732737,1606827728424477645,imu_link,0.0018126433715224266,0.0022932221181690693,0.20543912053108215,0.9786655902862549,0.0,0.0,0.0,0.0,0.0,0.0,0.0,0.0,0.0,23.71099281311035,0.21450556814670563,0.2572709023952484,0.0,0.0,0.0,0.0,0.0,0.0,0.0,0.0,0.0,-0.011721264570951462,0.01075821928679943,0.3367084562778473,0.0,0.0,0.0,0.0,0.0,0.0,0.0,0.0,0.0
1606827728448079878,1732738,1606827728424610737,imu_link,0.0018126433715224266,0.0022932221181690693,0.20543912053108215,0.9786655902862549,0.0,0.0,0.0,0.0,0.0,0.0,0.0,0.0,0.0,23.71099281311035,0.21450556814670563,0.2572709023952484,0.0,0.0,0.0,0.0,0.0,0.0,0.0,0.0,0.0,-0.011721264570951462,0.01075821928679943,0.3367084562778473,0.0,0.0,0.0,0.0,0.0,0.0,0.0,0.0,0.0
1606827728448096315,1732739,1606827728424801908,imu_link,0.001810239045880735,0.002292860532179475,0.20543977618217468,0.9786654710769653,0.0,0.0,0.0,0.0,0.0,0.0,0.0,0.0,0.0,23.711071014404297,0.21452145278453827,0.2569928765296936,0.0,0.0,0.0,0.0,0.0,0.0,0.0,0.0,0.0,-0.019441835582256317,0.004213945474475622,0.3434820771217346,0.0,0.0,0.0,0.0,0.0,0.0,0.0,0.0,0.0
1606827728448111534,1732740,1606827728424933843,imu_link,0.001810239045880735,0.002292860532179475,0.20543977618217468,0.9786654710769653,0.0,0.0,0.0,0.0,0.0,0.0,0.0,0.0,0.0,23.711071014404297,0.21452145278453827,0.2569928765296936,0.0,0.0,0.0,0.0,0.0,0.0,0.0,0.0,0.0,-0.019441835582256317,0.004213945474475622,0.3434820771217346,0.0,0.0,0.0,0.0,0.0,0.0,0.0,0.0,0.0
1606827728448122927,1732741,1606827728425030706,imu_link,0.001810478395782411,0.0022893878631293774,0.2054349184036255,0.9786664843559265,0.0,0.0,0.0,0.0,0.0,0.0,0.0,0.0,0.0,23.710498809814453,0.21412760019302368,0.2569369077682495,0.0,0.0,0.0,0.0,0.0,0.0,0.0,0.0,0.0,-0.009191577322781086,-0.010247224941849709,0.34552228450775146,0.0,0.0,0.0,0.0,0.0,0.0,0.0,0.0,0.0
1606827728448136441,1732742,1606827728425143697,imu_link,0.001810478395782411,0.0022893878631293774,0.2054349184036255,0.9786664843559265,0.0,0.0,0.0,0.0,0.0,0.0,0.0,0.0,0.0,23.710498809814453,0.21412760019302368,0.2569369077682495,0.0,0.0,0.0,0.0,0.0,0.0,0.0,0.0,0.0,-0.009191577322781086,-0.010247224941849709,0.34552228450775146,0.0,0.0,0.0,0.0,0.0,0.0,0.0,0.0,0.0
1606827728448144619,1732743,1606827728425228548,imu_link,0.001811408787034452,0.002291938755661249,0.20543396472930908,0.9786666631698608,0.0,0.0,0.0,0.0,0.0,0.0,0.0,0.0,0.0,23.710390090942383,0.2143920511007309,0.2571011185646057,0.0,0.0,0.0,0.0,0.0,0.0,0.0,0.0,0.0,-0.010835373774170876,0.010068151168525219,0.3607536256313324,0.0,0.0,0.0,0.0,0.0,0.0,0.0,0.0,0.0
1606827728448183574,1732744,1606827728425306062,imu_link,0.001811408787034452,0.002291938755661249,0.20543396472930908,0.9786666631698608,0.0,0.0,0.0,0.0,0.0,0.0,0.0,0.0,0.0,23.710390090942383,0.2143920511007309,0.2571011185646057,0.0,0.0,0.0,0.0,0.0,0.0,0.0,0.0,0.0,-0.010835373774170876,0.010068151168525219,0.3607536256313324,0.0,0.0,0.0,0.0,0.0,0.0,0.0,0.0,0.0
1606827728448202887,1732745,1606827728425467224,imu_link,0.0018093002727255225,0.0022886216174811125,0.2054280936717987,0.9786679148674011,0.0,0.0,0.0,0.0,0.0,0.0,0.0,0.0,0.0,23.709699630737305,0.21407119929790497,0.2567852735519409,0.0,0.0,0.0,0.0,0.0,0.0,0.0,0.0,0.0,-0.0225212424993515,0.026044398546218872,0.34964242577552795,0.0,0.0,0.0,0.0,0.0,0.0,0.0,0.0,0.0
1606827728448211593,1732746,1606827728425554194,imu_link,0.0018093002727255225,0.0022886216174811125,0.2054280936717987,0.9786679148674011,0.0,0.0,0.0,0.0,0.0,0.0,0.0,0.0,0.0,23.709699630737305,0.21407119929790497,0.2567852735519409,0.0,0.0,0.0,0.0,0.0,0.0,0.0,0.0,0.0,-0.0225212424993515,0.026044398546218872,0.34964242577552795,0.0,0.0,0.0,0.0,0.0,0.0,0.0,0.0,0.0
1606827728448226267,1732747,1606827728437944007,imu_link,0.0018087225034832954,0.0022900050971657038,0.20542767643928528,0.9786679744720459,0.0,0.0,0.0,0.0,0.0,0.0,0.0,0.0,0.0,23.70965003967285,0.21424005925655365,0.25675293803215027,0.0,0.0,0.0,0.0,0.0,0.0,0.0,0.0,0.0,-0.02417193353176117,0.019597450271248817,0.32619380950927734,0.0,0.0,0.0,0.0,0.0,0.0,0.0,0.0,0.0
1606827728448235444,1732748,1606827728438059746,imu_link,0.0018087225034832954,0.0022900050971657038,0.20542767643928528,0.9786679744720459,0.0,0.0,0.0,0.0,0.0,0.0,0.0,0.0,0.0,23.70965003967285,0.21424005925655365,0.25675293803215027,0.0,0.0,0.0,0.0,0.0,0.0,0.0,0.0,0.0,-0.02417193353176117,0.019597450271248817,0.32619380950927734,0.0,0.0,0.0,0.0,0.0,0.0,0.0,0.0,0.0
1606827728448255423,1732749,1606827728438130169,imu_link,0.0018057437846437097,0.0022839524317532778,0.20542152225971222,0.978669285774231,0.0,0.0,0.0,0.0,0.0,0.0,0.0,0.0,0.0,23.70892906188965,0.2136329859495163,0.2562750577926636,0.0,0.0,0.0,0.0,0.0,0.0,0.0,0.0,0.0,-0.017682112753391266,-0.002202837262302637,0.3250751495361328,0.0,0.0,0.0,0.0,0.0,0.0,0.0,0.0,0.0
1606827728448284352,1732750,1606827728438191859,imu_link,0.0018057437846437097,0.0022839524317532778,0.20542152225971222,0.978669285774231,0.0,0.0,0.0,0.0,0.0,0.0,0.0,0.0,0.0,23.70892906188965,0.2136329859495163,0.2562750577926636,0.0,0.0,0.0,0.0,0.0,0.0,0.0,0.0,0.0,-0.017682112753391266,-0.002202837262302637,0.3250751495361328,0.0,0.0,0.0,0.0,0.0,0.0,0.0,0.0,0.0
1606827728451865836,1732751,1606827728438255739,imu_link,0.0018055038526654243,0.0022839826997369528,0.2054213583469391,0.9786693453788757,0.0,0.0,0.0,0.0,0.0,0.0,0.0,0.0,0.0,23.708908081054688,0.21364209055900574,0.2562487721443176,0.0,0.0,0.0,0.0,0.0,0.0,0.0,0.0,0.0,-0.00431279418990016,-0.031089670956134796,0.31263500452041626,0.0,0.0,0.0,0.0,0.0,0.0,0.0,0.0,0.0
1606827728451880269,1732752,1606827728438326374,imu_link,0.0018055038526654243,0.0022839826997369528,0.2054213583469391,0.9786693453788757,0.0,0.0,0.0,0.0,0.0,0.0,0.0,0.0,0.0,23.708908081054688,0.21364209055900574,0.2562487721443176,0.0,0.0,0.0,0.0,0.0,0.0,0.0,0.0,0.0,-0.00431279418990016,-0.031089670956134796,0.31263500452041626,0.0,0.0,0.0,0.0,0.0,0.0,0.0,0.0,0.0
1606827728451894622,1732753,1606827728438405412,imu_link,0.001810578629374504,0.002285163151100278,0.2054186463356018,0.9786699414253235,0.0,0.0,0.0,0.0,0.0,0.0,0.0,0.0,0.0,23.708593368530273,0.2136557549238205,0.2568451464176178,0.0,0.0,0.0,0.0,0.0,0.0,0.0,0.0,0.0,0.01930984854698181,-0.015296181663870811,0.2974679470062256,0.0,0.0,0.0,0.0,0.0,0.0,0.0,0.0,0.0
1606827728451912785,1732754,1606827728438475157,imu_link,0.001810578629374504,0.002285163151100278,0.2054186463356018,0.9786699414253235,0.0,0.0,0.0,0.0,0.0,0.0,0.0,0.0,0.0,23.708593368530273,0.2136557549238205,0.2568451464176178,0.0,0.0,0.0,0.0,0.0,0.0,0.0,0.0,0.0,0.01930984854698181,-0.015296181663870811,0.2974679470062256,0.0,0.0,0.0,0.0,0.0,0.0,0.0,0.0,0.0
1606827728451927422,1732755,1606827728438545812,imu_link,0.0018105368362739682,0.0022862448822706938,0.20541749894618988,0.9786701798439026,0.0,0.0,0.0,0.0,0.0,0.0,0.0,0.0,0.0,23.708457946777344,0.2137783318758011,0.25686562061309814,0.0,0.0,0.0,0.0,0.0,0.0,0.0,0.0,0.0,0.011525092646479607,0.018767429515719414,0.33331000804901123,0.0,0.0,0.0,0.0,0.0,0.0,0.0,0.0,0.0
1606827728451938954,1732756,1606827728438612991,imu_link,0.0018105368362739682,0.0022862448822706938,0.20541749894618988,0.9786701798439026,0.0,0.0,0.0,0.0,0.0,0.0,0.0,0.0,0.0,23.708457946777344,0.2137783318758011,0.25686562061309814,0.0,0.0,0.0,0.0,0.0,0.0,0.0,0.0,0.0,0.011525092646479607,0.018767429515719414,0.33331000804901123,0.0,0.0,0.0,0.0,0.0,0.0,0.0,0.0,0.0
1606827728451945539,1732757,1606827728438681806,imu_link,0.0018084264593198895,0.0022865524515509605,0.2054174840450287,0.9786701202392578,0.0,0.0,0.0,0.0,0.0,0.0,0.0,0.0,0.0,23.70845603942871,0.21386247873306274,0.25663623213768005,0.0,0.0,0.0,0.0,0.0,0.0,0.0,0.0,0.0,-0.0027280955109745264,0.018580742180347443,0.34649014472961426,0.0,0.0,0.0,0.0,0.0,0.0,0.0,0.0,0.0
1606827728459245732,1732758,1606827728451730521,imu_link,0.0018084264593198895,0.0022865524515509605,0.2054174840450287,0.9786701202392578,0.0,0.0,0.0,0.0,0.0,0.0,0.0,0.0,0.0,23.70845603942871,0.21386247873306274,0.25663623213768005,0.0,0.0,0.0,0.0,0.0,0.0,0.0,0.0,0.0,-0.0027280955109745264,0.018580742180347443,0.34649014472961426,0.0,0.0,0.0,0.0,0.0,0.0,0.0,0.0,0.0
1606827728459734699,1732759,1606827728451863237,imu_link,0.0018086708150804043,0.0022863452322781086,0.20541727542877197,0.9786701798439026,0.0,0.0,0.0,0.0,0.0,0.0,0.0,0.0,0.0,23.70843505859375,0.21383355557918549,0.25665873289108276,0.0,0.0,0.0,0.0,0.0,0.0,0.0,0.0,0.0,0.006047359202057123,-0.0013376858551055193,0.3353099524974823,0.0,0.0,0.0,0.0,0.0,0.0,0.0,0.0,0.0
1606827728459753150,1732760,1606827728452046480,imu_link,0.0018086708150804043,0.0022863452322781086,0.20541727542877197,0.9786701798439026,0.0,0.0,0.0,0.0,0.0,0.0,0.0,0.0,0.0,23.70843505859375,0.21383355557918549,0.25665873289108276,0.0,0.0,0.0,0.0,0.0,0.0,0.0,0.0,0.0,0.006047359202057123,-0.0013376858551055193,0.3353099524974823,0.0,0.0,0.0,0.0,0.0,0.0,0.0,0.0,0.0
1606827728459764912,1732761,1606827728452129547,imu_link,0.0018089001532644033,0.0022878695745021105,0.2054208219051361,0.9786694049835205,0.0,0.0,0.0,0.0,0.0,0.0,0.0,0.0,0.0,23.70884895324707,0.2139981985092163,0.2567211091518402,0.0,0.0,0.0,0.0,0.0,0.0,0.0,0.0,0.0,0.002830241806805134,-0.012575216591358185,0.3574281334877014,0.0,0.0,0.0,0.0,0.0,0.0,0.0,0.0,0.0
1606827728459779021,1732762,1606827728452206144,imu_link,0.0018089001532644033,0.0022878695745021105,0.2054208219051361,0.9786694049835205,0.0,0.0,0.0,0.0,0.0,0.0,0.0,0.0,0.0,23.70884895324707,0.2139981985092163,0.2567211091518402,0.0,0.0,0.0,0.0,0.0,0.0,0.0,0.0,0.0,0.002830241806805134,-0.012575216591358185,0.3574281334877014,0.0,0.0,0.0,0.0,0.0,0.0,0.0,0.0,0.0
1606827728460823594,1732763,1606827728452305538,imu_link,0.001809082692489028,0.002286708913743496,0.20541955530643463,0.9786697030067444,0.0,0.0,0.0,0.0,0.0,0.0,0.0,0.0,0.0,23.708702087402344,0.2138640582561493,0.25671398639678955,0.0,0.0,0.0,0.0,0.0,0.0,0.0,0.0,0.0,0.0075440495274960995,-0.010523639619350433,0.33638668060302734,0.0,0.0,0.0,0.0,0.0,0.0,0.0,0.0,0.0
1606827728460850205,1732764,1606827728452418599,imu_link,0.001809082692489028,0.002286708913743496,0.20541955530643463,0.9786697030067444,0.0,0.0,0.0,0.0,0.0,0.0,0.0,0.0,0.0,23.708702087402344,0.2138640582561493,0.25671398639678955,0.0,0.0,0.0,0.0,0.0,0.0,0.0,0.0,0.0,0.0075440495274960995,-0.010523639619350433,0.33638668060302734,0.0,0.0,0.0,0.0,0.0,0.0,0.0,0.0,0.0
1606827728460866851,1732765,1606827728452507324,imu_link,0.0018108137883245945,0.0022874961141496897,0.20542466640472412,0.9786685705184937,0.0,0.0,0.0,0.0,0.0,0.0,0.0,0.0,0.0,23.709300994873047,0.21391023695468903,0.2569277286529541,0.0,0.0,0.0,0.0,0.0,0.0,0.0,0.0,0.0,0.0044881608337163925,0.004445183556526899,0.3207954466342926,0.0,0.0,0.0,0.0,0.0,0.0,0.0,0.0,0.0
1606827728460873957,1732766,1606827728452594009,imu_link,0.0018108137883245945,0.0022874961141496897,0.20542466640472412,0.9786685705184937,0.0,0.0,0.0,0.0,0.0,0.0,0.0,0.0,0.0,23.709300994873047,0.21391023695468903,0.2569277286529541,0.0,0.0,0.0,0.0,0.0,0.0,0.0,0.0,0.0,0.0044881608337163925,0.004445183556526899,0.3207954466342926,0.0,0.0,0.0,0.0,0.0,0.0,0.0,0.0,0.0
1606827728460888322,1732767,1606827728452684222,imu_link,0.0018112612888216972,0.002287061419337988,0.2054251730442047,0.9786685109138489,0.0,0.0,0.0,0.0,0.0,0.0,0.0,0.0,0.0,23.70935821533203,0.21385082602500916,0.25696784257888794,0.0,0.0,0.0,0.0,0.0,0.0,0.0,0.0,0.0,0.014180059544742107,0.005983552895486355,0.3288271427154541,0.0,0.0,0.0,0.0,0.0,0.0,0.0,0.0,0.0
1606827728460902741,1732768,1606827728452772391,imu_link,0.0018112612888216972,0.002287061419337988,0.2054251730442047,0.9786685109138489,0.0,0.0,0.0,0.0,0.0,0.0,0.0,0.0,0.0,23.70935821533203,0.21385082602500916,0.25696784257888794,0.0,0.0,0.0,0.0,0.0,0.0,0.0,0.0,0.0,0.014180059544742107,0.005983552895486355,0.3288271427154541,0.0,0.0,0.0,0.0,0.0,0.0,0.0,0.0,0.0
1606827728472881191,1732769,1606827728465293179,imu_link,0.0018097819993272424,0.002288371790200472,0.20543237030506134,0.9786670207977295,0.0,0.0,0.0,0.0,0.0,0.0,0.0,0.0,0.0,23.710201263427734,0.21403071284294128,0.25683432817459106,0.0,0.0,0.0,0.0,0.0,0.0,0.0,0.0,0.0,0.009171872399747372,0.0037645562551915646,0.319458931684494,0.0,0.0,0.0,0.0,0.0,0.0,0.0,0.0,0.0
1606827728473383445,1732770,1606827728465429389,imu_link,0.0018097819993272424,0.002288371790200472,0.20543237030506134,0.9786670207977295,0.0,0.0,0.0,0.0,0.0,0.0,0.0,0.0,0.0,23.710201263427734,0.21403071284294128,0.25683432817459106,0.0,0.0,0.0,0.0,0.0,0.0,0.0,0.0,0.0,0.009171872399747372,0.0037645562551915646,0.319458931684494,0.0,0.0,0.0,0.0,0.0,0.0,0.0,0.0,0.0
1606827728473410050,1732771,1606827728465607485,imu_link,0.0018090716330334544,0.0022869526874274015,0.20543217658996582,0.9786670804023743,0.0,0.0,0.0,0.0,0.0,0.0,0.0,0.0,0.0,23.71017837524414,0.21388836205005646,0.2567211985588074,0.0,0.0,0.0,0.0,0.0,0.0,0.0,0.0,0.0,-0.0035156812518835068,-0.0072665102779865265,0.3162289261817932,0.0,0.0,0.0,0.0,0.0,0.0,0.0,0.0,0.0
1606827728473418828,1732772,1606827728465693163,imu_link,0.0018090716330334544,0.0022869526874274015,0.20543217658996582,0.9786670804023743,0.0,0.0,0.0,0.0,0.0,0.0,0.0,0.0,0.0,23.71017837524414,0.21388836205005646,0.2567211985588074,0.0,0.0,0.0,0.0,0.0,0.0,0.0,0.0,0.0,-0.0035156812518835068,-0.0072665102779865265,0.3162289261817932,0.0,0.0,0.0,0.0,0.0,0.0,0.0,0.0,0.0
1606827728473429354,1732773,1606827728465797995,imu_link,0.0018121217144653201,0.0022883694618940353,0.20543810725212097,0.978665828704834,0.0,0.0,0.0,0.0,0.0,0.0,0.0,0.0,0.0,23.710872650146484,0.21397387981414795,0.25709789991378784,0.0,0.0,0.0,0.0,0.0,0.0,0.0,0.0,0.0,0.009814674034714699,-0.024421976879239082,0.32617494463920593,0.0,0.0,0.0,0.0,0.0,0.0,0.0,0.0,0.0
1606827728474273483,1732774,1606827728465878551,imu_link,0.0018121217144653201,0.0022883694618940353,0.20543810725212097,0.978665828704834,0.0,0.0,0.0,0.0,0.0,0.0,0.0,0.0,0.0,23.710872650146484,0.21397387981414795,0.25709789991378784,0.0,0.0,0.0,0.0,0.0,0.0,0.0,0.0,0.0,0.009814674034714699,-0.024421976879239082,0.32617494463920593,0.0,0.0,0.0,0.0,0.0,0.0,0.0,0.0,0.0
1606827728474289587,1732775,1606827728465984425,imu_link,0.001810880028642714,0.0022868544328957796,0.20543958246707916,0.9786655306816101,0.0,0.0,0.0,0.0,0.0,0.0,0.0,0.0,0.0,23.711048126220703,0.213832825422287,0.25692328810691833,0.0,0.0,0.0,0.0,0.0,0.0,0.0,0.0,0.0,0.0019710599444806576,-0.0017774351872503757,0.3260030150413513,0.0,0.0,0.0,0.0,0.0,0.0,0.0,0.0,0.0
1606827728474295591,1732776,1606827728466062736,imu_link,0.001810880028642714,0.0022868544328957796,0.20543958246707916,0.9786655306816101,0.0,0.0,0.0,0.0,0.0,0.0,0.0,0.0,0.0,23.711048126220703,0.213832825422287,0.25692328810691833,0.0,0.0,0.0,0.0,0.0,0.0,0.0,0.0,0.0,0.0019710599444806576,-0.0017774351872503757,0.3260030150413513,0.0,0.0,0.0,0.0,0.0,0.0,0.0,0.0,0.0
1606827728474302707,1732777,1606827728466137839,imu_link,0.0018102859612554312,0.0022880409378558397,0.2054455578327179,0.978664219379425,0.0,0.0,0.0,0.0,0.0,0.0,0.0,0.0,0.0,23.711748123168945,0.21397829055786133,0.25688597559928894,0.0,0.0,0.0,0.0,0.0,0.0,0.0,0.0,0.0,-0.009043513797223568,0.008125104010105133,0.32017144560813904,0.0,0.0,0.0,0.0,0.0,0.0,0.0,0.0,0.0
1606827728474309639,1732778,1606827728466221627,imu_link,0.0018102859612554312,0.0022880409378558397,0.2054455578327179,0.978664219379425,0.0,0.0,0.0,0.0,0.0,0.0,0.0,0.0,0.0,23.711748123168945,0.21397829055786133,0.25688597559928894,0.0,0.0,0.0,0.0,0.0,0.0,0.0,0.0,0.0,-0.009043513797223568,0.008125104010105133,0.32017144560813904,0.0,0.0,0.0,0.0,0.0,0.0,0.0,0.0,0.0
1606827728474317460,1732779,1606827728466305466,imu_link,0.0018117297440767288,0.0022880176547914743,0.2054453045129776,0.978664219379425,0.0,0.0,0.0,0.0,0.0,0.0,0.0,0.0,0.0,23.71171760559082,0.21394173800945282,0.25704726576805115,0.0,0.0,0.0,0.0,0.0,0.0,0.0,0.0,0.0,-0.008079241961240768,-0.0017442551907151937,0.3194315433502197,0.0,0.0,0.0,0.0,0.0,0.0,0.0,0.0,0.0
1606827728486611013,1732780,1606827728479053459,imu_link,0.0018117297440767288,0.0022880176547914743,0.2054453045129776,0.978664219379425,0.0,0.0,0.0,0.0,0.0,0.0,0.0,0.0,0.0,23.71171760559082,0.21394173800945282,0.25704726576805115,0.0,0.0,0.0,0.0,0.0,0.0,0.0,0.0,0.0,-0.008079241961240768,-0.0017442551907151937,0.3194315433502197,0.0,0.0,0.0,0.0,0.0,0.0,0.0,0.0,0.0
1606827728488018381,1732781,1606827728479193928,imu_link,0.00181398238055408,0.0022868395317345858,0.20545180141925812,0.97866290807724,0.0,0.0,0.0,0.0,0.0,0.0,0.0,0.0,0.0,23.71247673034668,0.21375487744808197,0.2572735846042633,0.0,0.0,0.0,0.0,0.0,0.0,0.0,0.0,0.0,0.014049915596842766,-0.008942920714616776,0.3244704008102417,0.0,0.0,0.0,0.0,0.0,0.0,0.0,0.0,0.0
1606827728488044622,1732782,1606827728479421353,imu_link,0.00181398238055408,0.0022868395317345858,0.20545180141925812,0.97866290807724,0.0,0.0,0.0,0.0,0.0,0.0,0.0,0.0,0.0,23.71247673034668,0.21375487744808197,0.2572735846042633,0.0,0.0,0.0,0.0,0.0,0.0,0.0,0.0,0.0,0.014049915596842766,-0.008942920714616776,0.3244704008102417,0.0,0.0,0.0,0.0,0.0,0.0,0.0,0.0,0.0
1606827728488061225,1732783,1606827728479509647,imu_link,0.001812374102883041,0.002286864910274744,0.2054513543844223,0.9786629676818848,0.0,0.0,0.0,0.0,0.0,0.0,0.0,0.0,0.0,23.712427139282227,0.21379569172859192,0.2570936977863312,0.0,0.0,0.0,0.0,0.0,0.0,0.0,0.0,0.0,0.022411983460187912,-0.019465109333395958,0.33134669065475464,0.0,0.0,0.0,0.0,0.0,0.0,0.0,0.0,0.0
1606827728488078016,1732784,1606827728479589065,imu_link,0.001812374102883041,0.002286864910274744,0.2054513543844223,0.9786629676818848,0.0,0.0,0.0,0.0,0.0,0.0,0.0,0.0,0.0,23.712427139282227,0.21379569172859192,0.2570936977863312,0.0,0.0,0.0,0.0,0.0,0.0,0.0,0.0,0.0,0.022411983460187912,-0.019465109333395958,0.33134669065475464,0.0,0.0,0.0,0.0,0.0,0.0,0.0,0.0,0.0
1606827728488110224,1732785,1606827728479693251,imu_link,0.0018167066155001521,0.0022912875283509493,0.20544403791427612,0.9786645174026489,0.0,0.0,0.0,0.0,0.0,0.0,0.0,0.0,0.0,23.711570739746094,0.21419161558151245,0.2576821446418762,0.0,0.0,0.0,0.0,0.0,0.0,0.0,0.0,0.0,0.017942987382411957,0.008840346708893776,0.31836163997650146,0.0,0.0,0.0,0.0,0.0,0.0,0.0,0.0,0.0
1606827728488125390,1732786,1606827728479780783,imu_link,0.0018167066155001521,0.0022912875283509493,0.20544403791427612,0.9786645174026489,0.0,0.0,0.0,0.0,0.0,0.0,0.0,0.0,0.0,23.711570739746094,0.21419161558151245,0.2576821446418762,0.0,0.0,0.0,0.0,0.0,0.0,0.0,0.0,0.0,0.017942987382411957,0.008840346708893776,0.31836163997650146,0.0,0.0,0.0,0.0,0.0,0.0,0.0,0.0,0.0
1606827728488142740,1732787,1606827728479858096,imu_link,0.0018147866940125823,0.002289630938321352,0.2054458111524582,0.9786641597747803,0.0,0.0,0.0,0.0,0.0,0.0,0.0,0.0,0.0,23.711776733398438,0.21405057609081268,0.25742819905281067,0.0,0.0,0.0,0.0,0.0,0.0,0.0,0.0,0.0,0.020300472155213356,0.02128523960709572,0.32109642028808594,0.0,0.0,0.0,0.0,0.0,0.0,0.0,0.0,0.0
1606827728488157251,1732788,1606827728479979617,imu_link,0.0018147866940125823,0.002289630938321352,0.2054458111524582,0.9786641597747803,0.0,0.0,0.0,0.0,0.0,0.0,0.0,0.0,0.0,23.711776733398438,0.21405057609081268,0.25742819905281067,0.0,0.0,0.0,0.0,0.0,0.0,0.0,0.0,0.0,0.020300472155213356,0.02128523960709572,0.32109642028808594,0.0,0.0,0.0,0.0,0.0,0.0,0.0,0.0,0.0
1606827728488878154,1732789,1606827728480071684,imu_link,0.0018090824596583843,0.0022907457314431667,0.20543861389160156,0.9786657094955444,0.0,0.0,0.0,0.0,0.0,0.0,0.0,0.0,0.0,23.7109317779541,0.21431177854537964,0.2568131387233734,0.0,0.0,0.0,0.0,0.0,0.0,0.0,0.0,0.0,0.009688138961791992,0.011254061944782734,0.34892594814300537,0.0,0.0,0.0,0.0,0.0,0.0,0.0,0.0,0.0
1606827728488896955,1732790,1606827728480156475,imu_link,0.0018090824596583843,0.0022907457314431667,0.20543861389160156,0.9786657094955444,0.0,0.0,0.0,0.0,0.0,0.0,0.0,0.0,0.0,23.7109317779541,0.21431177854537964,0.2568131387233734,0.0,0.0,0.0,0.0,0.0,0.0,0.0,0.0,0.0,0.009688138961791992,0.011254061944782734,0.34892594814300537,0.0,0.0,0.0,0.0,0.0,0.0,0.0,0.0,0.0
1606827728499622572,1732791,1606827728491995049,imu_link,0.001809352426789701,0.0022912018466740847,0.20543579757213593,0.9786663055419922,0.0,0.0,0.0,0.0,0.0,0.0,0.0,0.0,0.0,23.710601806640625,0.21435733139514923,0.25685355067253113,0.0,0.0,0.0,0.0,0.0,0.0,0.0,0.0,0.0,-0.0014627204509451985,0.013269280083477497,0.34837356209754944,0.0,0.0,0.0,0.0,0.0,0.0,0.0,0.0,0.0
1606827728500054603,1732792,1606827728492128888,imu_link,0.001809352426789701,0.0022912018466740847,0.20543579757213593,0.9786663055419922,0.0,0.0,0.0,0.0,0.0,0.0,0.0,0.0,0.0,23.710601806640625,0.21435733139514923,0.25685355067253113,0.0,0.0,0.0,0.0,0.0,0.0,0.0,0.0,0.0,-0.0014627204509451985,0.013269280083477497,0.34837356209754944,0.0,0.0,0.0,0.0,0.0,0.0,0.0,0.0,0.0
1606827728500070657,1732793,1606827728492317072,imu_link,0.001806526561267674,0.002288707299157977,0.2054283767938614,0.9786678552627563,0.0,0.0,0.0,0.0,0.0,0.0,0.0,0.0,0.0,23.709732055664062,0.21414604783058167,0.2564762532711029,0.0,0.0,0.0,0.0,0.0,0.0,0.0,0.0,0.0,0.003497644793242216,-0.0008492178749293089,0.3430889844894409,0.0,0.0,0.0,0.0,0.0,0.0,0.0,0.0,0.0
1606827728500078020,1732794,1606827728492418120,imu_link,0.001806526561267674,0.002288707299157977,0.2054283767938614,0.9786678552627563,0.0,0.0,0.0,0.0,0.0,0.0,0.0,0.0,0.0,23.709732055664062,0.21414604783058167,0.2564762532711029,0.0,0.0,0.0,0.0,0.0,0.0,0.0,0.0,0.0,0.003497644793242216,-0.0008492178749293089,0.3430889844894409,0.0,0.0,0.0,0.0,0.0,0.0,0.0,0.0,0.0
1606827728500087476,1732795,1606827728492496862,imu_link,0.0018053174717351794,0.002285465830937028,0.2054286003112793,0.9786677360534668,0.0,0.0,0.0,0.0,0.0,0.0,0.0,0.0,0.0,23.709760665893555,0.21381087601184845,0.25626444816589355,0.0,0.0,0.0,0.0,0.0,0.0,0.0,0.0,0.0,0.010308125987648964,-0.008364155888557434,0.3382945656776428,0.0,0.0,0.0,0.0,0.0,0.0,0.0,0.0,0.0
1606827728500634150,1732796,1606827728492597129,imu_link,0.0018053174717351794,0.002285465830937028,0.2054286003112793,0.9786677360534668,0.0,0.0,0.0,0.0,0.0,0.0,0.0,0.0,0.0,23.709760665893555,0.21381087601184845,0.25626444816589355,0.0,0.0,0.0,0.0,0.0,0.0,0.0,0.0,0.0,0.010308125987648964,-0.008364155888557434,0.3382945656776428,0.0,0.0,0.0,0.0,0.0,0.0,0.0,0.0,0.0
1606827728500651353,1732797,1606827728492682175,imu_link,0.0018071983940899372,0.002286618808284402,0.20542223751544952,0.9786691069602966,0.0,0.0,0.0,0.0,0.0,0.0,0.0,0.0,0.0,23.709014892578125,0.21389760076999664,0.25650113821029663,0.0,0.0,0.0,0.0,0.0,0.0,0.0,0.0,0.0,0.01624762825667858,0.0038808633107692003,0.2975613474845886,0.0,0.0,0.0,0.0,0.0,0.0,0.0,0.0,0.0
1606827728500661009,1732798,1606827728492761578,imu_link,0.0018071983940899372,0.002286618808284402,0.20542223751544952,0.9786691069602966,0.0,0.0,0.0,0.0,0.0,0.0,0.0,0.0,0.0,23.709014892578125,0.21389760076999664,0.25650113821029663,0.0,0.0,0.0,0.0,0.0,0.0,0.0,0.0,0.0,0.01624762825667858,0.0038808633107692003,0.2975613474845886,0.0,0.0,0.0,0.0,0.0,0.0,0.0,0.0,0.0
1606827728500668177,1732799,1606827728492869718,imu_link,0.0018075514817610383,0.002284569898620248,0.20542219281196594,0.9786691069602966,0.0,0.0,0.0,0.0,0.0,0.0,0.0,0.0,0.0,23.709009170532227,0.21365951001644135,0.2564924657344818,0.0,0.0,0.0,0.0,0.0,0.0,0.0,0.0,0.0,0.009604421444237232,0.007147978991270065,0.2842283844947815,0.0,0.0,0.0,0.0,0.0,0.0,0.0,0.0,0.0
1606827728501874769,1732800,1606827728492943152,imu_link,0.0018075514817610383,0.002284569898620248,0.20542219281196594,0.9786691069602966,0.0,0.0,0.0,0.0,0.0,0.0,0.0,0.0,0.0,23.709009170532227,0.21365951001644135,0.2564924657344818,0.0,0.0,0.0,0.0,0.0,0.0,0.0,0.0,0.0,0.009604421444237232,0.007147978991270065,0.2842283844947815,0.0,0.0,0.0,0.0,0.0,0.0,0.0,0.0,0.0
1606827728513026992,1732801,1606827728505441580,imu_link,0.0018058447167277336,0.002286591101437807,0.20541995763778687,0.9786695837974548,0.0,0.0,0.0,0.0,0.0,0.0,0.0,0.0,0.0,23.70874786376953,0.21392697095870972,0.2563481628894806,0.0,0.0,0.0,0.0,0.0,0.0,0.0,0.0,0.0,-0.0019504888914525509,-0.0007659790571779013,0.323771208524704,0.0,0.0,0.0,0.0,0.0,0.0,0.0,0.0,0.0
1606827728513439945,1732802,1606827728505574792,imu_link,0.0018058447167277336,0.002286591101437807,0.20541995763778687,0.9786695837974548,0.0,0.0,0.0,0.0,0.0,0.0,0.0,0.0,0.0,23.70874786376953,0.21392697095870972,0.2563481628894806,0.0,0.0,0.0,0.0,0.0,0.0,0.0,0.0,0.0,-0.0019504888914525509,-0.0007659790571779013,0.323771208524704,0.0,0.0,0.0,0.0,0.0,0.0,0.0,0.0,0.0
1606827728513459079,1732803,1606827728505761267,imu_link,0.0018050058279186487,0.0022859203163534403,0.20541763305664062,0.9786701202392578,0.0,0.0,0.0,0.0,0.0,0.0,0.0,0.0,0.0,23.708473205566406,0.21387208998203278,0.25623777508735657,0.0,0.0,0.0,0.0,0.0,0.0,0.0,0.0,0.0,-0.01646515540778637,-0.019648464396595955,0.35405734181404114,0.0,0.0,0.0,0.0,0.0,0.0,0.0,0.0,0.0
1606827728513472304,1732804,1606827728505866375,imu_link,0.0018050058279186487,0.0022859203163534403,0.20541763305664062,0.9786701202392578,0.0,0.0,0.0,0.0,0.0,0.0,0.0,0.0,0.0,23.708473205566406,0.21387208998203278,0.25623777508735657,0.0,0.0,0.0,0.0,0.0,0.0,0.0,0.0,0.0,-0.01646515540778637,-0.019648464396595955,0.35405734181404114,0.0,0.0,0.0,0.0,0.0,0.0,0.0,0.0,0.0
1606827728513533537,1732805,1606827728505949387,imu_link,0.0018091019010171294,0.002283380599692464,0.2054140865802765,0.9786708354949951,0.0,0.0,0.0,0.0,0.0,0.0,0.0,0.0,0.0,23.708057403564453,0.2134917676448822,0.2566365897655487,0.0,0.0,0.0,0.0,0.0,0.0,0.0,0.0,0.0,-0.020460836589336395,-0.026210838928818703,0.3399774730205536,0.0,0.0,0.0,0.0,0.0,0.0,0.0,0.0,0.0
1606827728514499830,1732806,1606827728506026525,imu_link,0.0018091019010171294,0.002283380599692464,0.2054140865802765,0.9786708354949951,0.0,0.0,0.0,0.0,0.0,0.0,0.0,0.0,0.0,23.708057403564453,0.2134917676448822,0.2566365897655487,0.0,0.0,0.0,0.0,0.0,0.0,0.0,0.0,0.0,-0.020460836589336395,-0.026210838928818703,0.3399774730205536,0.0,0.0,0.0,0.0,0.0,0.0,0.0,0.0,0.0
1606827728514523347,1732807,1606827728506134113,imu_link,0.0018078582361340523,0.0022827391512691975,0.20541396737098694,0.9786708354949951,0.0,0.0,0.0,0.0,0.0,0.0,0.0,0.0,0.0,23.708044052124023,0.2134491503238678,0.25648200511932373,0.0,0.0,0.0,0.0,0.0,0.0,0.0,0.0,0.0,0.0011536871315911412,-0.015237538143992424,0.3263901174068451,0.0,0.0,0.0,0.0,0.0,0.0,0.0,0.0,0.0
1606827728514532909,1732808,1606827728506215055,imu_link,0.0018078582361340523,0.0022827391512691975,0.20541396737098694,0.9786708354949951,0.0,0.0,0.0,0.0,0.0,0.0,0.0,0.0,0.0,23.708044052124023,0.2134491503238678,0.25648200511932373,0.0,0.0,0.0,0.0,0.0,0.0,0.0,0.0,0.0,0.0011536871315911412,-0.015237538143992424,0.3263901174068451,0.0,0.0,0.0,0.0,0.0,0.0,0.0,0.0,0.0
1606827728514565073,1732809,1606827728506298392,imu_link,0.0018110552337020636,0.0022826455533504486,0.20541977882385254,0.9786696434020996,0.0,0.0,0.0,0.0,0.0,0.0,0.0,0.0,0.0,23.70872688293457,0.21336187422275543,0.2568396031856537,0.0,0.0,0.0,0.0,0.0,0.0,0.0,0.0,0.0,-0.0011943114222958684,-0.018442891538143158,0.32666194438934326,0.0,0.0,0.0,0.0,0.0,0.0,0.0,0.0,0.0
1606827728515819521,1732810,1606827728506386966,imu_link,0.0018110552337020636,0.0022826455533504486,0.20541977882385254,0.9786696434020996,0.0,0.0,0.0,0.0,0.0,0.0,0.0,0.0,0.0,23.70872688293457,0.21336187422275543,0.2568396031856537,0.0,0.0,0.0,0.0,0.0,0.0,0.0,0.0,0.0,-0.0011943114222958684,-0.018442891538143158,0.32666194438934326,0.0,0.0,0.0,0.0,0.0,0.0,0.0,0.0,0.0
1606827728515833170,1732811,1606827728506470419,imu_link,0.0018102270551025867,0.002282010158523917,0.20541886985301971,0.9786698818206787,0.0,0.0,0.0,0.0,0.0,0.0,0.0,0.0,0.0,23.708616256713867,0.2133103609085083,0.2567315399646759,0.0,0.0,0.0,0.0,0.0,0.0,0.0,0.0,0.0,-0.016714701429009438,-0.007975426502525806,0.3182438910007477,0.0,0.0,0.0,0.0,0.0,0.0,0.0,0.0,0.0
1606827728528460945,1732812,1606827728519191646,imu_link,0.0018102270551025867,0.002282010158523917,0.20541886985301971,0.9786698818206787,0.0,0.0,0.0,0.0,0.0,0.0,0.0,0.0,0.0,23.708616256713867,0.2133103609085083,0.2567315399646759,0.0,0.0,0.0,0.0,0.0,0.0,0.0,0.0,0.0,-0.016714701429009438,-0.007975426502525806,0.3182438910007477,0.0,0.0,0.0,0.0,0.0,0.0,0.0,0.0,0.0
1606827728528484989,1732813,1606827728519372639,imu_link,0.0018135970458388329,0.002277638530358672,0.20542185008525848,0.9786692261695862,0.0,0.0,0.0,0.0,0.0,0.0,0.0,0.0,0.0,23.708967208862305,0.2127399742603302,0.2570072114467621,0.0,0.0,0.0,0.0,0.0,0.0,0.0,0.0,0.0,-0.013420183211565018,0.009953620843589306,0.31787264347076416,0.0,0.0,0.0,0.0,0.0,0.0,0.0,0.0,0.0
1606827728528501131,1732814,1606827728519555410,imu_link,0.0018135970458388329,0.002277638530358672,0.20542185008525848,0.9786692261695862,0.0,0.0,0.0,0.0,0.0,0.0,0.0,0.0,0.0,23.708967208862305,0.2127399742603302,0.2570072114467621,0.0,0.0,0.0,0.0,0.0,0.0,0.0,0.0,0.0,-0.013420183211565018,0.009953620843589306,0.31787264347076416,0.0,0.0,0.0,0.0,0.0,0.0,0.0,0.0,0.0
1606827728528511225,1732815,1606827728519643444,imu_link,0.0018135624704882503,0.002277370309457183,0.20542077720165253,0.9786694645881653,0.0,0.0,0.0,0.0,0.0,0.0,0.0,0.0,0.0,23.70884132385254,0.21271097660064697,0.256996750831604,0.0,0.0,0.0,0.0,0.0,0.0,0.0,0.0,0.0,-0.005860736593604088,-0.004887404851615429,0.31475526094436646,0.0,0.0,0.0,0.0,0.0,0.0,0.0,0.0,0.0
1606827728528521055,1732816,1606827728519721303,imu_link,0.0018135624704882503,0.002277370309457183,0.20542077720165253,0.9786694645881653,0.0,0.0,0.0,0.0,0.0,0.0,0.0,0.0,0.0,23.70884132385254,0.21271097660064697,0.256996750831604,0.0,0.0,0.0,0.0,0.0,0.0,0.0,0.0,0.0,-0.005860736593604088,-0.004887404851615429,0.31475526094436646,0.0,0.0,0.0,0.0,0.0,0.0,0.0,0.0,0.0
1606827728530211125,1732817,1606827728519797735,imu_link,0.001813100534491241,0.002277383580803871,0.20542635023593903,0.9786683320999146,0.0,0.0,0.0,0.0,0.0,0.0,0.0,0.0,0.0,23.709491729736328,0.21272191405296326,0.25694650411605835,0.0,0.0,0.0,0.0,0.0,0.0,0.0,0.0,0.0,0.0012380201369524002,-0.017160579562187195,0.3212273418903351,0.0,0.0,0.0,0.0,0.0,0.0,0.0,0.0,0.0
1606827728530263571,1732818,1606827728519915572,imu_link,0.001813100534491241,0.002277383580803871,0.20542635023593903,0.9786683320999146,0.0,0.0,0.0,0.0,0.0,0.0,0.0,0.0,0.0,23.709491729736328,0.21272191405296326,0.25694650411605835,0.0,0.0,0.0,0.0,0.0,0.0,0.0,0.0,0.0,0.0012380201369524002,-0.017160579562187195,0.3212273418903351,0.0,0.0,0.0,0.0,0.0,0.0,0.0,0.0,0.0
1606827728530279635,1732819,1606827728519997581,imu_link,0.0018135320860892534,0.0022781062871217728,0.2054283618927002,0.9786677956581116,0.0,0.0,0.0,0.0,0.0,0.0,0.0,0.0,0.0,23.70973014831543,0.21279221773147583,0.25701236724853516,0.0,0.0,0.0,0.0,0.0,0.0,0.0,0.0,0.0,0.016520297154784203,-0.01476399227976799,0.32945215702056885,0.0,0.0,0.0,0.0,0.0,0.0,0.0,0.0,0.0
1606827728530302512,1732820,1606827728520083043,imu_link,0.0018135320860892534,0.0022781062871217728,0.2054283618927002,0.9786677956581116,0.0,0.0,0.0,0.0,0.0,0.0,0.0,0.0,0.0,23.70973014831543,0.21279221773147583,0.25701236724853516,0.0,0.0,0.0,0.0,0.0,0.0,0.0,0.0,0.0,0.016520297154784203,-0.01476399227976799,0.32945215702056885,0.0,0.0,0.0,0.0,0.0,0.0,0.0,0.0,0.0
1606827728530313461,1732821,1606827728520170214,imu_link,0.0018167357193306088,0.0022818087600171566,0.20543360710144043,0.9786667823791504,0.0,0.0,0.0,0.0,0.0,0.0,0.0,0.0,0.0,23.710342407226562,0.21313068270683289,0.25745993852615356,0.0,0.0,0.0,0.0,0.0,0.0,0.0,0.0,0.0,0.04178621247410774,-0.003860622411593795,0.3127639889717102,0.0,0.0,0.0,0.0,0.0,0.0,0.0,0.0,0.0
1606827728530322829,1732822,1606827728520256303,imu_link,0.0018167357193306088,0.0022818087600171566,0.20543360710144043,0.9786667823791504,0.0,0.0,0.0,0.0,0.0,0.0,0.0,0.0,0.0,23.710342407226562,0.21313068270683289,0.25745993852615356,0.0,0.0,0.0,0.0,0.0,0.0,0.0,0.0,0.0,0.04178621247410774,-0.003860622411593795,0.3127639889717102,0.0,0.0,0.0,0.0,0.0,0.0,0.0,0.0,0.0
1606827728540715359,1732823,1606827728532638457,imu_link,0.0018153585260733962,0.002283034846186638,0.20543353259563446,0.9786667823791504,0.0,0.0,0.0,0.0,0.0,0.0,0.0,0.0,0.0,23.710336685180664,0.21330061554908752,0.25733432173728943,0.0,0.0,0.0,0.0,0.0,0.0,0.0,0.0,0.0,0.028172623366117477,0.006108403205871582,0.3148230016231537,0.0,0.0,0.0,0.0,0.0,0.0,0.0,0.0,0.0
1606827728540974818,1732824,1606827728532773443,imu_link,0.0018153585260733962,0.002283034846186638,0.20543353259563446,0.9786667823791504,0.0,0.0,0.0,0.0,0.0,0.0,0.0,0.0,0.0,23.710336685180664,0.21330061554908752,0.25733432173728943,0.0,0.0,0.0,0.0,0.0,0.0,0.0,0.0,0.0,0.028172623366117477,0.006108403205871582,0.3148230016231537,0.0,0.0,0.0,0.0,0.0,0.0,0.0,0.0,0.0
1606827728540999338,1732825,1606827728532956180,imu_link,0.0018130217213183641,0.002289160620421171,0.2054370790719986,0.9786660075187683,0.0,0.0,0.0,0.0,0.0,0.0,0.0,0.0,0.0,23.71075439453125,0.21404168009757996,0.25721728801727295,0.0,0.0,0.0,0.0,0.0,0.0,0.0,0.0,0.0,0.0018711835145950317,0.01063081156462431,0.34505125880241394,0.0,0.0,0.0,0.0,0.0,0.0,0.0,0.0,0.0
1606827728541011793,1732826,1606827728533048297,imu_link,0.0018130217213183641,0.002289160620421171,0.2054370790719986,0.9786660075187683,0.0,0.0,0.0,0.0,0.0,0.0,0.0,0.0,0.0,23.71075439453125,0.21404168009757996,0.25721728801727295,0.0,0.0,0.0,0.0,0.0,0.0,0.0,0.0,0.0,0.0018711835145950317,0.01063081156462431,0.34505125880241394,0.0,0.0,0.0,0.0,0.0,0.0,0.0,0.0,0.0
1606827728541017069,1732827,1606827728533126929,imu_link,0.0018140807515010238,0.0022910593543201685,0.20543625950813293,0.9786661863327026,0.0,0.0,0.0,0.0,0.0,0.0,0.0,0.0,0.0,23.71065902709961,0.21422991156578064,0.25738057494163513,0.0,0.0,0.0,0.0,0.0,0.0,0.0,0.0,0.0,0.003917578607797623,0.018446102738380432,0.3221151828765869,0.0,0.0,0.0,0.0,0.0,0.0,0.0,0.0,0.0
1606827728541495588,1732828,1606827728533227712,imu_link,0.0018140807515010238,0.0022910593543201685,0.20543625950813293,0.9786661863327026,0.0,0.0,0.0,0.0,0.0,0.0,0.0,0.0,0.0,23.71065902709961,0.21422991156578064,0.25738057494163513,0.0,0.0,0.0,0.0,0.0,0.0,0.0,0.0,0.0,0.003917578607797623,0.018446102738380432,0.3221151828765869,0.0,0.0,0.0,0.0,0.0,0.0,0.0,0.0,0.0
1606827728541514843,1732829,1606827728533316807,imu_link,0.0018100383458659053,0.0022914453875273466,0.20543980598449707,0.9786654710769653,0.0,0.0,0.0,0.0,0.0,0.0,0.0,0.0,0.0,23.71107292175293,0.21436741948127747,0.25693705677986145,0.0,0.0,0.0,0.0,0.0,0.0,0.0,0.0,0.0,-0.0021554511040449142,0.008866578340530396,0.3011763393878937,0.0,0.0,0.0,0.0,0.0,0.0,0.0,0.0,0.0
1606827728541541783,1732830,1606827728533394005,imu_link,0.0018100383458659053,0.0022914453875273466,0.20543980598449707,0.9786654710769653,0.0,0.0,0.0,0.0,0.0,0.0,0.0,0.0,0.0,23.71107292175293,0.21436741948127747,0.25693705677986145,0.0,0.0,0.0,0.0,0.0,0.0,0.0,0.0,0.0,-0.0021554511040449142,0.008866578340530396,0.3011763393878937,0.0,0.0,0.0,0.0,0.0,0.0,0.0,0.0,0.0
1606827728541553104,1732831,1606827728533554696,imu_link,0.0018110530218109488,0.002290395088493824,0.20544026792049408,0.9786653518676758,0.0,0.0,0.0,0.0,0.0,0.0,0.0,0.0,0.0,23.71112632751465,0.2142256200313568,0.2570262551307678,0.0,0.0,0.0,0.0,0.0,0.0,0.0,0.0,0.0,-0.004049751441925764,0.0034043453633785248,0.314284086227417,0.0,0.0,0.0,0.0,0.0,0.0,0.0,0.0,0.0
1606827728543151958,1732832,1606827728533639617,imu_link,0.0018110530218109488,0.002290395088493824,0.20544026792049408,0.9786653518676758,0.0,0.0,0.0,0.0,0.0,0.0,0.0,0.0,0.0,23.71112632751465,0.2142256200313568,0.2570262551307678,0.0,0.0,0.0,0.0,0.0,0.0,0.0,0.0,0.0,-0.004049751441925764,0.0034043453633785248,0.314284086227417,0.0,0.0,0.0,0.0,0.0,0.0,0.0,0.0,0.0
1606827728543167163,1732833,1606827728533719632,imu_link,0.0018102213507518172,0.0022890635300427675,0.20543506741523743,0.9786664247512817,0.0,0.0,0.0,0.0,0.0,0.0,0.0,0.0,0.0,23.71051788330078,0.21409724652767181,0.25690048933029175,0.0,0.0,0.0,0.0,0.0,0.0,0.0,0.0,0.0,-0.012657253071665764,0.01705501228570938,0.31529131531715393,0.0,0.0,0.0,0.0,0.0,0.0,0.0,0.0,0.0
1606827728554577422,1732834,1606827728545628443,imu_link,0.0018102213507518172,0.0022890635300427675,0.20543506741523743,0.9786664247512817,0.0,0.0,0.0,0.0,0.0,0.0,0.0,0.0,0.0,23.71051788330078,0.21409724652767181,0.25690048933029175,0.0,0.0,0.0,0.0,0.0,0.0,0.0,0.0,0.0,-0.012657253071665764,0.01705501228570938,0.31529131531715393,0.0,0.0,0.0,0.0,0.0,0.0,0.0,0.0,0.0
1606827728554600433,1732835,1606827728545764117,imu_link,0.0018093205289915204,0.002289461437612772,0.20543348789215088,0.9786667823791504,0.0,0.0,0.0,0.0,0.0,0.0,0.0,0.0,0.0,23.7103328704834,0.21416349709033966,0.25680848956108093,0.0,0.0,0.0,0.0,0.0,0.0,0.0,0.0,0.0,-0.016725590452551842,0.014061646535992622,0.3268682658672333,0.0,0.0,0.0,0.0,0.0,0.0,0.0,0.0,0.0
1606827728554608528,1732836,1606827728545945941,imu_link,0.0018093205289915204,0.002289461437612772,0.20543348789215088,0.9786667823791504,0.0,0.0,0.0,0.0,0.0,0.0,0.0,0.0,0.0,23.7103328704834,0.21416349709033966,0.25680848956108093,0.0,0.0,0.0,0.0,0.0,0.0,0.0,0.0,0.0,-0.016725590452551842,0.014061646535992622,0.3268682658672333,0.0,0.0,0.0,0.0,0.0,0.0,0.0,0.0,0.0
1606827728554618870,1732837,1606827728546037322,imu_link,0.0018075588159263134,0.002283903770148754,0.2054300308227539,0.9786674976348877,0.0,0.0,0.0,0.0,0.0,0.0,0.0,0.0,0.0,23.709924697875977,0.2135825753211975,0.25647932291030884,0.0,0.0,0.0,0.0,0.0,0.0,0.0,0.0,0.0,-0.008825881406664848,-0.004473002161830664,0.34879180788993835,0.0,0.0,0.0,0.0,0.0,0.0,0.0,0.0,0.0
1606827728554633170,1732838,1606827728546116339,imu_link,0.0018075588159263134,0.002283903770148754,0.2054300308227539,0.9786674976348877,0.0,0.0,0.0,0.0,0.0,0.0,0.0,0.0,0.0,23.709924697875977,0.2135825753211975,0.25647932291030884,0.0,0.0,0.0,0.0,0.0,0.0,0.0,0.0,0.0,-0.008825881406664848,-0.004473002161830664,0.34879180788993835,0.0,0.0,0.0,0.0,0.0,0.0,0.0,0.0,0.0
1606827728555432575,1732839,1606827728546215764,imu_link,0.001805830397643149,0.0022833619732409716,0.20543020963668823,0.9786674380302429,0.0,0.0,0.0,0.0,0.0,0.0,0.0,0.0,0.0,23.70994758605957,0.21356245875358582,0.2562727630138397,0.0,0.0,0.0,0.0,0.0,0.0,0.0,0.0,0.0,-0.02288864180445671,-0.0055492958053946495,0.3622102737426758,0.0,0.0,0.0,0.0,0.0,0.0,0.0,0.0,0.0
1606827728555447870,1732840,1606827728546305180,imu_link,0.001805830397643149,0.0022833619732409716,0.20543020963668823,0.9786674380302429,0.0,0.0,0.0,0.0,0.0,0.0,0.0,0.0,0.0,23.70994758605957,0.21356245875358582,0.2562727630138397,0.0,0.0,0.0,0.0,0.0,0.0,0.0,0.0,0.0,-0.02288864180445671,-0.0055492958053946495,0.3622102737426758,0.0,0.0,0.0,0.0,0.0,0.0,0.0,0.0,0.0
1606827728555457593,1732841,1606827728546382810,imu_link,0.0018085362389683723,0.002278678584843874,0.2054252177476883,0.9786685109138489,0.0,0.0,0.0,0.0,0.0,0.0,0.0,0.0,0.0,23.709360122680664,0.21297484636306763,0.2564648985862732,0.0,0.0,0.0,0.0,0.0,0.0,0.0,0.0,0.0,-0.02697562240064144,-0.005469256546348333,0.35366326570510864,0.0,0.0,0.0,0.0,0.0,0.0,0.0,0.0,0.0
1606827728555483832,1732842,1606827728546499830,imu_link,0.0018085362389683723,0.002278678584843874,0.2054252177476883,0.9786685109138489,0.0,0.0,0.0,0.0,0.0,0.0,0.0,0.0,0.0,23.709360122680664,0.21297484636306763,0.2564648985862732,0.0,0.0,0.0,0.0,0.0,0.0,0.0,0.0,0.0,-0.02697562240064144,-0.005469256546348333,0.35366326570510864,0.0,0.0,0.0,0.0,0.0,0.0,0.0,0.0,0.0
1606827728555493923,1732843,1606827728546586475,imu_link,0.0018090002704411745,0.002277993829920888,0.20542654395103455,0.9786682724952698,0.0,0.0,0.0,0.0,0.0,0.0,0.0,0.0,0.0,23.709516525268555,0.21288679540157318,0.25650110840797424,0.0,0.0,0.0,0.0,0.0,0.0,0.0,0.0,0.0,-0.009557023644447327,0.016883153468370438,0.34243929386138916,0.0,0.0,0.0,0.0,0.0,0.0,0.0,0.0,0.0
1606827728566876852,1732844,1606827728559347342,imu_link,0.0018090002704411745,0.002277993829920888,0.20542654395103455,0.9786682724952698,0.0,0.0,0.0,0.0,0.0,0.0,0.0,0.0,0.0,23.709516525268555,0.21288679540157318,0.25650110840797424,0.0,0.0,0.0,0.0,0.0,0.0,0.0,0.0,0.0,-0.009557023644447327,0.016883153468370438,0.34243929386138916,0.0,0.0,0.0,0.0,0.0,0.0,0.0,0.0,0.0
1606827728579814047,1732845,1606827728559489049,imu_link,0.0018058579880744219,0.0022752725053578615,0.20542152225971222,0.978669285774231,0.0,0.0,0.0,0.0,0.0,0.0,0.0,0.0,0.0,23.708925247192383,0.2126569002866745,0.25608351826667786,0.0,0.0,0.0,0.0,0.0,0.0,0.0,0.0,0.0,-0.007328633219003677,0.027987675741314888,0.32745659351348877,0.0,0.0,0.0,0.0,0.0,0.0,0.0,0.0,0.0
1606827728579836882,1732846,1606827728559663307,imu_link,0.0018058579880744219,0.0022752725053578615,0.20542152225971222,0.978669285774231,0.0,0.0,0.0,0.0,0.0,0.0,0.0,0.0,0.0,23.708925247192383,0.2126569002866745,0.25608351826667786,0.0,0.0,0.0,0.0,0.0,0.0,0.0,0.0,0.0,-0.007328633219003677,0.027987675741314888,0.32745659351348877,0.0,0.0,0.0,0.0,0.0,0.0,0.0,0.0,0.0
1606827728579856946,1732847,1606827728559751059,imu_link,0.0018044261960312724,0.002275259932503104,0.20541836321353912,0.9786699414253235,0.0,0.0,0.0,0.0,0.0,0.0,0.0,0.0,0.0,23.70855712890625,0.21268999576568604,0.25592195987701416,0.0,0.0,0.0,0.0,0.0,0.0,0.0,0.0,0.0,-0.013723023235797882,-0.001102641923353076,0.3086549639701843,0.0,0.0,0.0,0.0,0.0,0.0,0.0,0.0,0.0
1606827728579865862,1732848,1606827728559824935,imu_link,0.0018044261960312724,0.002275259932503104,0.20541836321353912,0.9786699414253235,0.0,0.0,0.0,0.0,0.0,0.0,0.0,0.0,0.0,23.70855712890625,0.21268999576568604,0.25592195987701416,0.0,0.0,0.0,0.0,0.0,0.0,0.0,0.0,0.0,-0.013723023235797882,-0.001102641923353076,0.3086549639701843,0.0,0.0,0.0,0.0,0.0,0.0,0.0,0.0,0.0
1606827728579877653,1732849,1606827728559919142,imu_link,0.0018069966463372111,0.0022714384831488132,0.20541852712631226,0.9786699414253235,0.0,0.0,0.0,0.0,0.0,0.0,0.0,0.0,0.0,23.708574295043945,0.21220088005065918,0.25612032413482666,0.0,0.0,0.0,0.0,0.0,0.0,0.0,0.0,0.0,-0.009382088668644428,-0.007125910837203264,0.30633389949798584,0.0,0.0,0.0,0.0,0.0,0.0,0.0,0.0,0.0
1606827728579889405,1732850,1606827728560029121,imu_link,0.0018069966463372111,0.0022714384831488132,0.20541852712631226,0.9786699414253235,0.0,0.0,0.0,0.0,0.0,0.0,0.0,0.0,0.0,23.708574295043945,0.21220088005065918,0.25612032413482666,0.0,0.0,0.0,0.0,0.0,0.0,0.0,0.0,0.0,-0.009382088668644428,-0.007125910837203264,0.30633389949798584,0.0,0.0,0.0,0.0,0.0,0.0,0.0,0.0,0.0
1606827728579903113,1732851,1606827728560118763,imu_link,0.0018074919935315847,0.0022696859668940306,0.20541779696941376,0.978670060634613,0.0,0.0,0.0,0.0,0.0,0.0,0.0,0.0,0.0,23.70848846435547,0.21199285984039307,0.2561344504356384,0.0,0.0,0.0,0.0,0.0,0.0,0.0,0.0,0.0,0.0037260695826262236,0.0014118205290287733,0.3235497772693634,0.0,0.0,0.0,0.0,0.0,0.0,0.0,0.0,0.0
1606827728579910826,1732852,1606827728560204040,imu_link,0.0018074919935315847,0.0022696859668940306,0.20541779696941376,0.978670060634613,0.0,0.0,0.0,0.0,0.0,0.0,0.0,0.0,0.0,23.70848846435547,0.21199285984039307,0.2561344504356384,0.0,0.0,0.0,0.0,0.0,0.0,0.0,0.0,0.0,0.0037260695826262236,0.0014118205290287733,0.3235497772693634,0.0,0.0,0.0,0.0,0.0,0.0,0.0,0.0,0.0
1606827728580549732,1732853,1606827728560290845,imu_link,0.001806218409910798,0.0022699867840856314,0.20541724562644958,0.9786701798439026,0.0,0.0,0.0,0.0,0.0,0.0,0.0,0.0,0.0,23.708423614501953,0.2120567411184311,0.2559986114501953,0.0,0.0,0.0,0.0,0.0,0.0,0.0,0.0,0.0,0.0026684151962399483,0.0027341998647898436,0.32729464769363403,0.0,0.0,0.0,0.0,0.0,0.0,0.0,0.0,0.0
1606827728580572861,1732854,1606827728560369832,imu_link,0.001806218409910798,0.0022699867840856314,0.20541724562644958,0.9786701798439026,0.0,0.0,0.0,0.0,0.0,0.0,0.0,0.0,0.0,23.708423614501953,0.2120567411184311,0.2559986114501953,0.0,0.0,0.0,0.0,0.0,0.0,0.0,0.0,0.0,0.0026684151962399483,0.0027341998647898436,0.32729464769363403,0.0,0.0,0.0,0.0,0.0,0.0,0.0,0.0,0.0
1606827728580583812,1732855,1606827728572715978,imu_link,0.001807246939279139,0.0022708841133862734,0.20541751384735107,0.9786701202392578,0.0,0.0,0.0,0.0,0.0,0.0,0.0,0.0,0.0,23.708454132080078,0.21213307976722717,0.25613513588905334,0.0,0.0,0.0,0.0,0.0,0.0,0.0,0.0,0.0,-0.0001818714663386345,0.010117401368916035,0.3140176832675934,0.0,0.0,0.0,0.0,0.0,0.0,0.0,0.0,0.0
1606827728580596955,1732856,1606827728572842365,imu_link,0.001807246939279139,0.0022708841133862734,0.20541751384735107,0.9786701202392578,0.0,0.0,0.0,0.0,0.0,0.0,0.0,0.0,0.0,23.708454132080078,0.21213307976722717,0.25613513588905334,0.0,0.0,0.0,0.0,0.0,0.0,0.0,0.0,0.0,-0.0001818714663386345,0.010117401368916035,0.3140176832675934,0.0,0.0,0.0,0.0,0.0,0.0,0.0,0.0,0.0
1606827728580603918,1732857,1606827728573004444,imu_link,0.001805846462957561,0.0022718932013958693,0.2054244875907898,0.9786686897277832,0.0,0.0,0.0,0.0,0.0,0.0,0.0,0.0,0.0,23.709270477294922,0.2122773826122284,0.25600332021713257,0.0,0.0,0.0,0.0,0.0,0.0,0.0,0.0,0.0,-0.0017483900301158428,0.008084365166723728,0.336232453584671,0.0,0.0,0.0,0.0,0.0,0.0,0.0,0.0,0.0
1606827728581300986,1732858,1606827728573098927,imu_link,0.001805846462957561,0.0022718932013958693,0.2054244875907898,0.9786686897277832,0.0,0.0,0.0,0.0,0.0,0.0,0.0,0.0,0.0,23.709270477294922,0.2122773826122284,0.25600332021713257,0.0,0.0,0.0,0.0,0.0,0.0,0.0,0.0,0.0,-0.0017483900301158428,0.008084365166723728,0.336232453584671,0.0,0.0,0.0,0.0,0.0,0.0,0.0,0.0,0.0
1606827728581318342,1732859,1606827728573190208,imu_link,0.0018069454235956073,0.0022726019378751516,0.20542384684085846,0.9786688089370728,0.0,0.0,0.0,0.0,0.0,0.0,0.0,0.0,0.0,23.709197998046875,0.21233119070529938,0.25614309310913086,0.0,0.0,0.0,0.0,0.0,0.0,0.0,0.0,0.0,-0.011019572615623474,0.010014262050390244,0.36103975772857666,0.0,0.0,0.0,0.0,0.0,0.0,0.0,0.0,0.0
1606827728581326553,1732860,1606827728573268949,imu_link,0.0018069454235956073,0.0022726019378751516,0.20542384684085846,0.9786688089370728,0.0,0.0,0.0,0.0,0.0,0.0,0.0,0.0,0.0,23.709197998046875,0.21233119070529938,0.25614309310913086,0.0,0.0,0.0,0.0,0.0,0.0,0.0,0.0,0.0,-0.011019572615623474,0.010014262050390244,0.36103975772857666,0.0,0.0,0.0,0.0,0.0,0.0,0.0,0.0,0.0
1606827728581333953,1732861,1606827728573402147,imu_link,0.0018055832479149103,0.0022712561767548323,0.205430269241333,0.9786674380302429,0.0,0.0,0.0,0.0,0.0,0.0,0.0,0.0,0.0,23.709949493408203,0.21221061050891876,0.255960077047348,0.0,0.0,0.0,0.0,0.0,0.0,0.0,0.0,0.0,-0.014529811218380928,0.02583944983780384,0.33667799830436707,0.0,0.0,0.0,0.0,0.0,0.0,0.0,0.0,0.0
1606827728584552628,1732862,1606827728573494174,imu_link,0.0018055832479149103,0.0022712561767548323,0.205430269241333,0.9786674380302429,0.0,0.0,0.0,0.0,0.0,0.0,0.0,0.0,0.0,23.709949493408203,0.21221061050891876,0.255960077047348,0.0,0.0,0.0,0.0,0.0,0.0,0.0,0.0,0.0,-0.014529811218380928,0.02583944983780384,0.33667799830436707,0.0,0.0,0.0,0.0,0.0,0.0,0.0,0.0,0.0
1606827728584578112,1732863,1606827728573570921,imu_link,0.001805472420528531,0.002272724872455001,0.20542795956134796,0.9786679148674011,0.0,0.0,0.0,0.0,0.0,0.0,0.0,0.0,0.0,23.70967674255371,0.21237856149673462,0.2559817135334015,0.0,0.0,0.0,0.0,0.0,0.0,0.0,0.0,0.0,-0.00762920081615448,0.012020925059914589,0.3118024170398712,0.0,0.0,0.0,0.0,0.0,0.0,0.0,0.0,0.0
1606827728584589658,1732864,1606827728573647152,imu_link,0.001805472420528531,0.002272724872455001,0.20542795956134796,0.9786679148674011,0.0,0.0,0.0,0.0,0.0,0.0,0.0,0.0,0.0,23.70967674255371,0.21237856149673462,0.2559817135334015,0.0,0.0,0.0,0.0,0.0,0.0,0.0,0.0,0.0,-0.00762920081615448,0.012020925059914589,0.3118024170398712,0.0,0.0,0.0,0.0,0.0,0.0,0.0,0.0,0.0
1606827728584599857,1732865,1606827728573726596,imu_link,0.0018030815990641713,0.002270429627969861,0.20543117821216583,0.9786672592163086,0.0,0.0,0.0,0.0,0.0,0.0,0.0,0.0,0.0,23.71005630493164,0.2121765911579132,0.2556602358818054,0.0,0.0,0.0,0.0,0.0,0.0,0.0,0.0,0.0,0.01311665028333664,-0.01390529703348875,0.3047870397567749,0.0,0.0,0.0,0.0,0.0,0.0,0.0,0.0,0.0
1606827728594170360,1732866,1606827728586687533,imu_link,0.0018030815990641713,0.002270429627969861,0.20543117821216583,0.9786672592163086,0.0,0.0,0.0,0.0,0.0,0.0,0.0,0.0,0.0,23.71005630493164,0.2121765911579132,0.2556602358818054,0.0,0.0,0.0,0.0,0.0,0.0,0.0,0.0,0.0,0.01311665028333664,-0.01390529703348875,0.3047870397567749,0.0,0.0,0.0,0.0,0.0,0.0,0.0,0.0,0.0
1606827728594704277,1732867,1606827728586809254,imu_link,0.0018046809127554297,0.0022704899311065674,0.205433189868927,0.9786668419837952,0.0,0.0,0.0,0.0,0.0,0.0,0.0,0.0,0.0,23.710290908813477,0.21214517951011658,0.255841463804245,0.0,0.0,0.0,0.0,0.0,0.0,0.0,0.0,0.0,0.015843424946069717,-0.015202212147414684,0.32281240820884705,0.0,0.0,0.0,0.0,0.0,0.0,0.0,0.0,0.0
1606827728594724106,1732868,1606827728586976716,imu_link,0.0018046809127554297,0.0022704899311065674,0.205433189868927,0.9786668419837952,0.0,0.0,0.0,0.0,0.0,0.0,0.0,0.0,0.0,23.710290908813477,0.21214517951011658,0.255841463804245,0.0,0.0,0.0,0.0,0.0,0.0,0.0,0.0,0.0,0.015843424946069717,-0.015202212147414684,0.32281240820884705,0.0,0.0,0.0,0.0,0.0,0.0,0.0,0.0,0.0
1606827728594738030,1732869,1606827728587079068,imu_link,0.0018075288971886039,0.0022762292064726353,0.20543859899044037,0.9786657094955444,0.0,0.0,0.0,0.0,0.0,0.0,0.0,0.0,0.0,23.710926055908203,0.2127203792333603,0.25629714131355286,0.0,0.0,0.0,0.0,0.0,0.0,0.0,0.0,0.0,-0.0013426345540210605,0.01060615573078394,0.3224484622478485,0.0,0.0,0.0,0.0,0.0,0.0,0.0,0.0,0.0
1606827728594751392,1732870,1606827728587164117,imu_link,0.0018075288971886039,0.0022762292064726353,0.20543859899044037,0.9786657094955444,0.0,0.0,0.0,0.0,0.0,0.0,0.0,0.0,0.0,23.710926055908203,0.2127203792333603,0.25629714131355286,0.0,0.0,0.0,0.0,0.0,0.0,0.0,0.0,0.0,-0.0013426345540210605,0.01060615573078394,0.3224484622478485,0.0,0.0,0.0,0.0,0.0,0.0,0.0,0.0,0.0
1606827728595927277,1732871,1606827728587238440,imu_link,0.0018068758072331548,0.0022756520193070173,0.2054370641708374,0.9786660671234131,0.0,0.0,0.0,0.0,0.0,0.0,0.0,0.0,0.0,23.71074676513672,0.2126714289188385,0.25620996952056885,0.0,0.0,0.0,0.0,0.0,0.0,0.0,0.0,0.0,0.00679033761844039,0.019012488424777985,0.31037503480911255,0.0,0.0,0.0,0.0,0.0,0.0,0.0,0.0,0.0
1606827728595943820,1732872,1606827728587381909,imu_link,0.0018068758072331548,0.0022756520193070173,0.2054370641708374,0.9786660671234131,0.0,0.0,0.0,0.0,0.0,0.0,0.0,0.0,0.0,23.71074676513672,0.2126714289188385,0.25620996952056885,0.0,0.0,0.0,0.0,0.0,0.0,0.0,0.0,0.0,0.00679033761844039,0.019012488424777985,0.31037503480911255,0.0,0.0,0.0,0.0,0.0,0.0,0.0,0.0,0.0
1606827728595952716,1732873,1606827728587457626,imu_link,0.0018034548265859485,0.0022757279220968485,0.2054416537284851,0.9786651134490967,0.0,0.0,0.0,0.0,0.0,0.0,0.0,0.0,0.0,23.711280822753906,0.21275927126407623,0.2558290958404541,0.0,0.0,0.0,0.0,0.0,0.0,0.0,0.0,0.0,-0.009980141185224056,-0.021817371249198914,0.3276253938674927,0.0,0.0,0.0,0.0,0.0,0.0,0.0,0.0,0.0
1606827728595962630,1732874,1606827728587530662,imu_link,0.0018034548265859485,0.0022757279220968485,0.2054416537284851,0.9786651134490967,0.0,0.0,0.0,0.0,0.0,0.0,0.0,0.0,0.0,23.711280822753906,0.21275927126407623,0.2558290958404541,0.0,0.0,0.0,0.0,0.0,0.0,0.0,0.0,0.0,-0.009980141185224056,-0.021817371249198914,0.3276253938674927,0.0,0.0,0.0,0.0,0.0,0.0,0.0,0.0,0.0
1606827728595974214,1732875,1606827728587607011,imu_link,0.0018039369024336338,0.0022751500364392996,0.20544053614139557,0.9786653518676758,0.0,0.0,0.0,0.0,0.0,0.0,0.0,0.0,0.0,23.711151123046875,0.21268340945243835,0.2558693289756775,0.0,0.0,0.0,0.0,0.0,0.0,0.0,0.0,0.0,-0.013645818457007408,-0.03630810230970383,0.34336185455322266,0.0,0.0,0.0,0.0,0.0,0.0,0.0,0.0,0.0
