%time,field.header.seq,field.header.stamp,field.header.frame_id,field.orientation.x,field.orientation.y,field.orientation.z,field.orientation.w,field.orientation_covariance0,field.orientation_covariance1,field.orientation_covariance2,field.orientation_covariance3,field.orientation_covariance4,field.orientation_covariance5,field.orientation_covariance6,field.orientation_covariance7,field.orientation_covariance8,field.angular_velocity.x,field.angular_velocity.y,field.angular_velocity.z,field.angular_velocity_covariance0,field.angular_velocity_covariance1,field.angular_velocity_covariance2,field.angular_velocity_covariance3,field.angular_velocity_covariance4,field.angular_velocity_covariance5,field.angular_velocity_covariance6,field.angular_velocity_covariance7,field.angular_velocity_covariance8,field.linear_acceleration.x,field.linear_acceleration.y,field.linear_acceleration.z,field.linear_acceleration_covariance0,field.linear_acceleration_covariance1,field.linear_acceleration_covariance2,field.linear_acceleration_covariance3,field.linear_acceleration_covariance4,field.linear_acceleration_covariance5,field.linear_acceleration_covariance6,field.linear_acceleration_covariance7,field.linear_acceleration_covariance8
1606827792130117439,1783695,1606827792122364589,imu_link,0.08101553469896317,0.012964547611773014,0.20940904319286346,0.9743799567222595,0.0,0.0,0.0,0.0,0.0,0.0,0.0,0.0,0.0,24.217647552490234,-0.49653029441833496,9.399406433105469,0.0,0.0,0.0,0.0,0.0,0.0,0.0,0.0,0.0,-0.005133349914103746,0.08478238433599472,0.31837740540504456,0.0,0.0,0.0,0.0,0.0,0.0,0.0,0.0,0.0
1606827792130798912,1783696,1606827792122444978,imu_link,0.08101553469896317,0.012964547611773014,0.20940904319286346,0.9743799567222595,0.0,0.0,0.0,0.0,0.0,0.0,0.0,0.0,0.0,24.217647552490234,-0.49653029441833496,9.399406433105469,0.0,0.0,0.0,0.0,0.0,0.0,0.0,0.0,0.0,-0.005133349914103746,0.08478238433599472,0.31837740540504456,0.0,0.0,0.0,0.0,0.0,0.0,0.0,0.0,0.0
1606827792130818975,1783697,1606827792122605258,imu_link,0.08100864291191101,0.01296237949281931,0.20940910279750824,0.9743805527687073,0.0,0.0,0.0,0.0,0.0,0.0,0.0,0.0,0.0,24.21763801574707,-0.4966067373752594,9.398577690124512,0.0,0.0,0.0,0.0,0.0,0.0,0.0,0.0,0.0,-0.008398034609854221,0.08978268504142761,0.301026314496994,0.0,0.0,0.0,0.0,0.0,0.0,0.0,0.0,0.0
1606827792130900850,1783698,1606827792122675256,imu_link,0.08100864291191101,0.01296237949281931,0.20940910279750824,0.9743805527687073,0.0,0.0,0.0,0.0,0.0,0.0,0.0,0.0,0.0,24.21763801574707,-0.4966067373752594,9.398577690124512,0.0,0.0,0.0,0.0,0.0,0.0,0.0,0.0,0.0,-0.008398034609854221,0.08978268504142761,0.301026314496994,0.0,0.0,0.0,0.0,0.0,0.0,0.0,0.0,0.0
1606827792130912821,1783699,1606827792122728362,imu_link,0.08100958168506622,0.012962126173079014,0.2094072550535202,0.9743809103965759,0.0,0.0,0.0,0.0,0.0,0.0,0.0,0.0,0.0,24.217416763305664,-0.49663984775543213,9.398679733276367,0.0,0.0,0.0,0.0,0.0,0.0,0.0,0.0,0.0,-0.0012168383691459894,0.06407392024993896,0.32619574666023254,0.0,0.0,0.0,0.0,0.0,0.0,0.0,0.0,0.0
1606827792130920009,1783700,1606827792122803178,imu_link,0.08100958168506622,0.012962126173079014,0.2094072550535202,0.9743809103965759,0.0,0.0,0.0,0.0,0.0,0.0,0.0,0.0,0.0,24.217416763305664,-0.49663984775543213,9.398679733276367,0.0,0.0,0.0,0.0,0.0,0.0,0.0,0.0,0.0,-0.0012168383691459894,0.06407392024993896,0.32619574666023254,0.0,0.0,0.0,0.0,0.0,0.0,0.0,0.0,0.0
1606827792130929450,1783701,1606827792122858352,imu_link,0.08100833743810654,0.012961105443537235,0.20940563082695007,0.9743813872337341,0.0,0.0,0.0,0.0,0.0,0.0,0.0,0.0,0.0,24.21721839904785,-0.4967080354690552,9.398514747619629,0.0,0.0,0.0,0.0,0.0,0.0,0.0,0.0,0.0,-0.011679435148835182,0.052911341190338135,0.3435617685317993,0.0,0.0,0.0,0.0,0.0,0.0,0.0,0.0,0.0
1606827792130936303,1783702,1606827792122911859,imu_link,0.08100833743810654,0.012961105443537235,0.20940563082695007,0.9743813872337341,0.0,0.0,0.0,0.0,0.0,0.0,0.0,0.0,0.0,24.21721839904785,-0.4967080354690552,9.398514747619629,0.0,0.0,0.0,0.0,0.0,0.0,0.0,0.0,0.0,-0.011679435148835182,0.052911341190338135,0.3435617685317993,0.0,0.0,0.0,0.0,0.0,0.0,0.0,0.0,0.0
1606827792130941246,1783703,1606827792122990420,imu_link,0.0810089111328125,0.01296118926256895,0.2094046175479889,0.9743814468383789,0.0,0.0,0.0,0.0,0.0,0.0,0.0,0.0,0.0,24.217103958129883,-0.4967031180858612,9.39858341217041,0.0,0.0,0.0,0.0,0.0,0.0,0.0,0.0,0.0,-0.008617515675723553,0.04958958551287651,0.32758229970932007,0.0,0.0,0.0,0.0,0.0,0.0,0.0,0.0,0.0
1606827792133731697,1783704,1606827792123042540,imu_link,0.0810089111328125,0.01296118926256895,0.2094046175479889,0.9743814468383789,0.0,0.0,0.0,0.0,0.0,0.0,0.0,0.0,0.0,24.217103958129883,-0.4967031180858612,9.39858341217041,0.0,0.0,0.0,0.0,0.0,0.0,0.0,0.0,0.0,-0.008617515675723553,0.04958958551287651,0.32758229970932007,0.0,0.0,0.0,0.0,0.0,0.0,0.0,0.0,0.0
1606827792145807724,1783705,1606827792135765937,imu_link,0.08101047575473785,0.012959513813257217,0.20940400660037994,0.9743815064430237,0.0,0.0,0.0,0.0,0.0,0.0,0.0,0.0,0.0,24.217016220092773,-0.4969218969345093,9.398719787597656,0.0,0.0,0.0,0.0,0.0,0.0,0.0,0.0,0.0,0.012142299674451351,0.049816351383924484,0.30330148339271545,0.0,0.0,0.0,0.0,0.0,0.0,0.0,0.0,0.0
1606827792145843675,1783706,1606827792135860424,imu_link,0.08101047575473785,0.012959513813257217,0.20940400660037994,0.9743815064430237,0.0,0.0,0.0,0.0,0.0,0.0,0.0,0.0,0.0,24.217016220092773,-0.4969218969345093,9.398719787597656,0.0,0.0,0.0,0.0,0.0,0.0,0.0,0.0,0.0,0.012142299674451351,0.049816351383924484,0.30330148339271545,0.0,0.0,0.0,0.0,0.0,0.0,0.0,0.0,0.0
1606827792145878384,1783707,1606827792135918203,imu_link,0.08100950717926025,0.012958595529198647,0.20940305292606354,0.9743818044662476,0.0,0.0,0.0,0.0,0.0,0.0,0.0,0.0,0.0,24.21689796447754,-0.496991902589798,9.398588180541992,0.0,0.0,0.0,0.0,0.0,0.0,0.0,0.0,0.0,0.0031737061217427254,0.06020750105381012,0.32315370440483093,0.0,0.0,0.0,0.0,0.0,0.0,0.0,0.0,0.0
1606827792145892329,1783708,1606827792135966720,imu_link,0.08100950717926025,0.012958595529198647,0.20940305292606354,0.9743818044662476,0.0,0.0,0.0,0.0,0.0,0.0,0.0,0.0,0.0,24.21689796447754,-0.496991902589798,9.398588180541992,0.0,0.0,0.0,0.0,0.0,0.0,0.0,0.0,0.0,0.0031737061217427254,0.06020750105381012,0.32315370440483093,0.0,0.0,0.0,0.0,0.0,0.0,0.0,0.0,0.0
1606827792145916780,1783709,1606827792136044259,imu_link,0.08100853115320206,0.01295845489948988,0.20940326154232025,0.9743818640708923,0.0,0.0,0.0,0.0,0.0,0.0,0.0,0.0,0.0,24.216917037963867,-0.4969860315322876,9.39847469329834,0.0,0.0,0.0,0.0,0.0,0.0,0.0,0.0,0.0,0.0036818047519773245,0.06011906638741493,0.3449133634567261,0.0,0.0,0.0,0.0,0.0,0.0,0.0,0.0,0.0
1606827792146648242,1783710,1606827792136097654,imu_link,0.08100853115320206,0.01295845489948988,0.20940326154232025,0.9743818640708923,0.0,0.0,0.0,0.0,0.0,0.0,0.0,0.0,0.0,24.216917037963867,-0.4969860315322876,9.39847469329834,0.0,0.0,0.0,0.0,0.0,0.0,0.0,0.0,0.0,0.0036818047519773245,0.06011906638741493,0.3449133634567261,0.0,0.0,0.0,0.0,0.0,0.0,0.0,0.0,0.0
1606827792146660450,1783711,1606827792136166201,imu_link,0.08100970834493637,0.01295845303684473,0.20940333604812622,0.9743817448616028,0.0,0.0,0.0,0.0,0.0,0.0,0.0,0.0,0.0,24.216928482055664,-0.4970153868198395,9.39860725402832,0.0,0.0,0.0,0.0,0.0,0.0,0.0,0.0,0.0,0.0045176176354289055,0.04672626778483391,0.3119470179080963,0.0,0.0,0.0,0.0,0.0,0.0,0.0,0.0,0.0
1606827792146681547,1783712,1606827792136216445,imu_link,0.08100970834493637,0.01295845303684473,0.20940333604812622,0.9743817448616028,0.0,0.0,0.0,0.0,0.0,0.0,0.0,0.0,0.0,24.216928482055664,-0.4970153868198395,9.39860725402832,0.0,0.0,0.0,0.0,0.0,0.0,0.0,0.0,0.0,0.0045176176354289055,0.04672626778483391,0.3119470179080963,0.0,0.0,0.0,0.0,0.0,0.0,0.0,0.0,0.0
1606827792146692182,1783713,1606827792136266968,imu_link,0.081010602414608,0.012961256317794323,0.20940729975700378,0.9743807911872864,0.0,0.0,0.0,0.0,0.0,0.0,0.0,0.0,0.0,24.21741485595703,-0.49676212668418884,9.398772239685059,0.0,0.0,0.0,0.0,0.0,0.0,0.0,0.0,0.0,-0.0013239760883152485,0.03758265823125839,0.29813966155052185,0.0,0.0,0.0,0.0,0.0,0.0,0.0,0.0,0.0
1606827792146698763,1783714,1606827792136311823,imu_link,0.081010602414608,0.012961256317794323,0.20940729975700378,0.9743807911872864,0.0,0.0,0.0,0.0,0.0,0.0,0.0,0.0,0.0,24.21741485595703,-0.49676212668418884,9.398772239685059,0.0,0.0,0.0,0.0,0.0,0.0,0.0,0.0,0.0,-0.0013239760883152485,0.03758265823125839,0.29813966155052185,0.0,0.0,0.0,0.0,0.0,0.0,0.0,0.0,0.0
1606827792146704108,1783715,1606827792136361761,imu_link,0.08100944012403488,0.01296236366033554,0.2094065099954605,0.9743810892105103,0.0,0.0,0.0,0.0,0.0,0.0,0.0,0.0,0.0,24.217334747314453,-0.4966028034687042,9.39866828918457,0.0,0.0,0.0,0.0,0.0,0.0,0.0,0.0,0.0,-0.003605532692745328,0.05504031479358673,0.323841392993927,0.0,0.0,0.0,0.0,0.0,0.0,0.0,0.0,0.0
1606827792157151363,1783716,1606827792149575976,imu_link,0.08100944012403488,0.01296236366033554,0.2094065099954605,0.9743810892105103,0.0,0.0,0.0,0.0,0.0,0.0,0.0,0.0,0.0,24.217334747314453,-0.4966028034687042,9.39866828918457,0.0,0.0,0.0,0.0,0.0,0.0,0.0,0.0,0.0,-0.003605532692745328,0.05504031479358673,0.323841392993927,0.0,0.0,0.0,0.0,0.0,0.0,0.0,0.0,0.0
1606827792157887885,1783717,1606827792149664357,imu_link,0.08101038634777069,0.012963356450200081,0.2094084918498993,0.9743805527687073,0.0,0.0,0.0,0.0,0.0,0.0,0.0,0.0,0.0,24.217575073242188,-0.49653369188308716,9.398797035217285,0.0,0.0,0.0,0.0,0.0,0.0,0.0,0.0,0.0,-0.008825681172311306,0.0607621893286705,0.3294275403022766,0.0,0.0,0.0,0.0,0.0,0.0,0.0,0.0,0.0
1606827792157919751,1783718,1606827792149783996,imu_link,0.08101038634777069,0.012963356450200081,0.2094084918498993,0.9743805527687073,0.0,0.0,0.0,0.0,0.0,0.0,0.0,0.0,0.0,24.217575073242188,-0.49653369188308716,9.398797035217285,0.0,0.0,0.0,0.0,0.0,0.0,0.0,0.0,0.0,-0.008825681172311306,0.0607621893286705,0.3294275403022766,0.0,0.0,0.0,0.0,0.0,0.0,0.0,0.0,0.0
1606827792157959375,1783719,1606827792149832554,imu_link,0.08100923150777817,0.01296419557183981,0.2094089686870575,0.9743805527687073,0.0,0.0,0.0,0.0,0.0,0.0,0.0,0.0,0.0,24.21763801574707,-0.49641674757003784,9.398689270019531,0.0,0.0,0.0,0.0,0.0,0.0,0.0,0.0,0.0,-0.0011906216386705637,0.05994559824466705,0.3455968201160431,0.0,0.0,0.0,0.0,0.0,0.0,0.0,0.0,0.0
1606827792157989564,1783720,1606827792149882085,imu_link,0.08100923150777817,0.01296419557183981,0.2094089686870575,0.9743805527687073,0.0,0.0,0.0,0.0,0.0,0.0,0.0,0.0,0.0,24.21763801574707,-0.49641674757003784,9.398689270019531,0.0,0.0,0.0,0.0,0.0,0.0,0.0,0.0,0.0,-0.0011906216386705637,0.05994559824466705,0.3455968201160431,0.0,0.0,0.0,0.0,0.0,0.0,0.0,0.0,0.0
1606827792158015296,1783721,1606827792149940093,imu_link,0.08100862056016922,0.01296264585107565,0.20940913259983063,0.9743805527687073,0.0,0.0,0.0,0.0,0.0,0.0,0.0,0.0,0.0,24.2176456451416,-0.4965767562389374,9.398582458496094,0.0,0.0,0.0,0.0,0.0,0.0,0.0,0.0,0.0,0.013166637159883976,0.05862225964665413,0.3603785037994385,0.0,0.0,0.0,0.0,0.0,0.0,0.0,0.0,0.0
1606827792158082829,1783722,1606827792150003116,imu_link,0.08100862056016922,0.01296264585107565,0.20940913259983063,0.9743805527687073,0.0,0.0,0.0,0.0,0.0,0.0,0.0,0.0,0.0,24.2176456451416,-0.4965767562389374,9.398582458496094,0.0,0.0,0.0,0.0,0.0,0.0,0.0,0.0,0.0,0.013166637159883976,0.05862225964665413,0.3603785037994385,0.0,0.0,0.0,0.0,0.0,0.0,0.0,0.0,0.0
1606827792158093250,1783723,1606827792150051218,imu_link,0.0810091570019722,0.012960468418896198,0.20940746366977692,0.9743809103965759,0.0,0.0,0.0,0.0,0.0,0.0,0.0,0.0,0.0,24.21742820739746,-0.49681657552719116,9.398590087890625,0.0,0.0,0.0,0.0,0.0,0.0,0.0,0.0,0.0,0.008376331999897957,0.054461393505334854,0.3346375823020935,0.0,0.0,0.0,0.0,0.0,0.0,0.0,0.0,0.0
1606827792158125826,1783724,1606827792150111131,imu_link,0.0810091570019722,0.012960468418896198,0.20940746366977692,0.9743809103965759,0.0,0.0,0.0,0.0,0.0,0.0,0.0,0.0,0.0,24.21742820739746,-0.49681657552719116,9.398590087890625,0.0,0.0,0.0,0.0,0.0,0.0,0.0,0.0,0.0,0.008376331999897957,0.054461393505334854,0.3346375823020935,0.0,0.0,0.0,0.0,0.0,0.0,0.0,0.0,0.0
1606827792159175955,1783725,1606827792150173492,imu_link,0.0810086727142334,0.012961343862116337,0.20940856635570526,0.9743806719779968,0.0,0.0,0.0,0.0,0.0,0.0,0.0,0.0,0.0,24.217565536499023,-0.4967179596424103,9.398557662963867,0.0,0.0,0.0,0.0,0.0,0.0,0.0,0.0,0.0,0.010287025012075901,0.06448225677013397,0.3084246516227722,0.0,0.0,0.0,0.0,0.0,0.0,0.0,0.0,0.0
1606827792159188488,1783726,1606827792150224020,imu_link,0.0810086727142334,0.012961343862116337,0.20940856635570526,0.9743806719779968,0.0,0.0,0.0,0.0,0.0,0.0,0.0,0.0,0.0,24.217565536499023,-0.4967179596424103,9.398557662963867,0.0,0.0,0.0,0.0,0.0,0.0,0.0,0.0,0.0,0.010287025012075901,0.06448225677013397,0.3084246516227722,0.0,0.0,0.0,0.0,0.0,0.0,0.0,0.0,0.0
1606827792180566291,1783727,1606827792163089216,imu_link,0.0810074657201767,0.012963240966200829,0.20940926671028137,0.974380612373352,0.0,0.0,0.0,0.0,0.0,0.0,0.0,0.0,0.0,24.21766471862793,-0.4964837431907654,9.398466110229492,0.0,0.0,0.0,0.0,0.0,0.0,0.0,0.0,0.0,-0.001649160636588931,0.06781427562236786,0.31938299536705017,0.0,0.0,0.0,0.0,0.0,0.0,0.0,0.0,0.0
1606827792180583397,1783728,1606827792163174963,imu_link,0.0810074657201767,0.012963240966200829,0.20940926671028137,0.974380612373352,0.0,0.0,0.0,0.0,0.0,0.0,0.0,0.0,0.0,24.21766471862793,-0.4964837431907654,9.398466110229492,0.0,0.0,0.0,0.0,0.0,0.0,0.0,0.0,0.0,-0.001649160636588931,0.06781427562236786,0.31938299536705017,0.0,0.0,0.0,0.0,0.0,0.0,0.0,0.0,0.0
1606827792180608541,1783729,1606827792163261778,imu_link,0.08100636303424835,0.012961442582309246,0.20941437780857086,0.9743795990943909,0.0,0.0,0.0,0.0,0.0,0.0,0.0,0.0,0.0,24.21824836730957,-0.4967069625854492,9.398297309875488,0.0,0.0,0.0,0.0,0.0,0.0,0.0,0.0,0.0,-0.005914375185966492,0.06254840642213821,0.334593266248703,0.0,0.0,0.0,0.0,0.0,0.0,0.0,0.0,0.0
1606827792180615921,1783730,1606827792163339159,imu_link,0.08100636303424835,0.012961442582309246,0.20941437780857086,0.9743795990943909,0.0,0.0,0.0,0.0,0.0,0.0,0.0,0.0,0.0,24.21824836730957,-0.4967069625854492,9.398297309875488,0.0,0.0,0.0,0.0,0.0,0.0,0.0,0.0,0.0,-0.005914375185966492,0.06254840642213821,0.334593266248703,0.0,0.0,0.0,0.0,0.0,0.0,0.0,0.0,0.0
1606827792180623318,1783731,1606827792163390747,imu_link,0.08100558817386627,0.012959920801222324,0.20941518247127533,0.9743795394897461,0.0,0.0,0.0,0.0,0.0,0.0,0.0,0.0,0.0,24.218326568603516,-0.4968658685684204,9.398171424865723,0.0,0.0,0.0,0.0,0.0,0.0,0.0,0.0,0.0,0.028224961832165718,0.0647616758942604,0.3218114674091339,0.0,0.0,0.0,0.0,0.0,0.0,0.0,0.0,0.0
1606827792181370676,1783732,1606827792163450694,imu_link,0.08100558817386627,0.012959920801222324,0.20941518247127533,0.9743795394897461,0.0,0.0,0.0,0.0,0.0,0.0,0.0,0.0,0.0,24.218326568603516,-0.4968658685684204,9.398171424865723,0.0,0.0,0.0,0.0,0.0,0.0,0.0,0.0,0.0,0.028224961832165718,0.0647616758942604,0.3218114674091339,0.0,0.0,0.0,0.0,0.0,0.0,0.0,0.0,0.0
1606827792181393113,1783733,1606827792163503364,imu_link,0.08100317418575287,0.012962376698851585,0.20942233502864838,0.9743781685829163,0.0,0.0,0.0,0.0,0.0,0.0,0.0,0.0,0.0,24.21918487548828,-0.49660205841064453,9.397956848144531,0.0,0.0,0.0,0.0,0.0,0.0,0.0,0.0,0.0,0.02928331308066845,0.04573247209191322,0.3291066884994507,0.0,0.0,0.0,0.0,0.0,0.0,0.0,0.0,0.0
1606827792181404279,1783734,1606827792163552428,imu_link,0.08100317418575287,0.012962376698851585,0.20942233502864838,0.9743781685829163,0.0,0.0,0.0,0.0,0.0,0.0,0.0,0.0,0.0,24.21918487548828,-0.49660205841064453,9.397956848144531,0.0,0.0,0.0,0.0,0.0,0.0,0.0,0.0,0.0,0.02928331308066845,0.04573247209191322,0.3291066884994507,0.0,0.0,0.0,0.0,0.0,0.0,0.0,0.0,0.0
1606827792181411737,1783735,1606827792163599592,imu_link,0.08100377023220062,0.012963343411684036,0.20942020416259766,0.9743785858154297,0.0,0.0,0.0,0.0,0.0,0.0,0.0,0.0,0.0,24.21894645690918,-0.49648812413215637,9.398046493530273,0.0,0.0,0.0,0.0,0.0,0.0,0.0,0.0,0.0,0.006590629927814007,0.037972208112478256,0.3519881069660187,0.0,0.0,0.0,0.0,0.0,0.0,0.0,0.0,0.0
1606827792181424311,1783736,1606827792163648106,imu_link,0.08100377023220062,0.012963343411684036,0.20942020416259766,0.9743785858154297,0.0,0.0,0.0,0.0,0.0,0.0,0.0,0.0,0.0,24.21894645690918,-0.49648812413215637,9.398046493530273,0.0,0.0,0.0,0.0,0.0,0.0,0.0,0.0,0.0,0.006590629927814007,0.037972208112478256,0.3519881069660187,0.0,0.0,0.0,0.0,0.0,0.0,0.0,0.0,0.0
1606827792181431285,1783737,1606827792163702858,imu_link,0.08100751042366028,0.012965909205377102,0.209420308470726,0.974378228187561,0.0,0.0,0.0,0.0,0.0,0.0,0.0,0.0,0.0,24.218982696533203,-0.4962928295135498,9.398530960083008,0.0,0.0,0.0,0.0,0.0,0.0,0.0,0.0,0.0,0.004901579115539789,0.04690557345747948,0.32715675234794617,0.0,0.0,0.0,0.0,0.0,0.0,0.0,0.0,0.0
1606827792184872940,1783738,1606827792176074842,imu_link,0.08100751042366028,0.012965909205377102,0.209420308470726,0.974378228187561,0.0,0.0,0.0,0.0,0.0,0.0,0.0,0.0,0.0,24.218982696533203,-0.4962928295135498,9.398530960083008,0.0,0.0,0.0,0.0,0.0,0.0,0.0,0.0,0.0,0.004901579115539789,0.04690557345747948,0.32715675234794617,0.0,0.0,0.0,0.0,0.0,0.0,0.0,0.0,0.0
1606827792184900908,1783739,1606827792176183621,imu_link,0.081007219851017,0.012965465895831585,0.2094208151102066,0.9743781685829163,0.0,0.0,0.0,0.0,0.0,0.0,0.0,0.0,0.0,24.21903419494629,-0.4963400959968567,9.398487091064453,0.0,0.0,0.0,0.0,0.0,0.0,0.0,0.0,0.0,-0.004630282521247864,0.056055948138237,0.2929638624191284,0.0,0.0,0.0,0.0,0.0,0.0,0.0,0.0,0.0
1606827792184908412,1783740,1606827792176343991,imu_link,0.081007219851017,0.012965465895831585,0.2094208151102066,0.9743781685829163,0.0,0.0,0.0,0.0,0.0,0.0,0.0,0.0,0.0,24.21903419494629,-0.4963400959968567,9.398487091064453,0.0,0.0,0.0,0.0,0.0,0.0,0.0,0.0,0.0,-0.004630282521247864,0.056055948138237,0.2929638624191284,0.0,0.0,0.0,0.0,0.0,0.0,0.0,0.0,0.0
1606827792184921195,1783741,1606827792176415143,imu_link,0.08100628852844238,0.012963990680873394,0.20942038297653198,0.9743783473968506,0.0,0.0,0.0,0.0,0.0,0.0,0.0,0.0,0.0,24.218969345092773,-0.4964783191680908,9.398346900939941,0.0,0.0,0.0,0.0,0.0,0.0,0.0,0.0,0.0,-0.025574585422873497,0.05990711599588394,0.30179738998413086,0.0,0.0,0.0,0.0,0.0,0.0,0.0,0.0,0.0
1606827792184927726,1783742,1606827792176480530,imu_link,0.08100628852844238,0.012963990680873394,0.20942038297653198,0.9743783473968506,0.0,0.0,0.0,0.0,0.0,0.0,0.0,0.0,0.0,24.218969345092773,-0.4964783191680908,9.398346900939941,0.0,0.0,0.0,0.0,0.0,0.0,0.0,0.0,0.0,-0.025574585422873497,0.05990711599588394,0.30179738998413086,0.0,0.0,0.0,0.0,0.0,0.0,0.0,0.0,0.0
1606827792185768475,1783743,1606827792176587838,imu_link,0.08100571483373642,0.01296293456107378,0.2094205617904663,0.9743783473968506,0.0,0.0,0.0,0.0,0.0,0.0,0.0,0.0,0.0,24.218984603881836,-0.49658411741256714,9.398256301879883,0.0,0.0,0.0,0.0,0.0,0.0,0.0,0.0,0.0,0.00036877626553177834,0.037144601345062256,0.33348217606544495,0.0,0.0,0.0,0.0,0.0,0.0,0.0,0.0,0.0
1606827792185781581,1783744,1606827792176663456,imu_link,0.08100571483373642,0.01296293456107378,0.2094205617904663,0.9743783473968506,0.0,0.0,0.0,0.0,0.0,0.0,0.0,0.0,0.0,24.218984603881836,-0.49658411741256714,9.398256301879883,0.0,0.0,0.0,0.0,0.0,0.0,0.0,0.0,0.0,0.00036877626553177834,0.037144601345062256,0.33348217606544495,0.0,0.0,0.0,0.0,0.0,0.0,0.0,0.0,0.0
1606827792185792591,1783745,1606827792176728751,imu_link,0.08100853860378265,0.012962652370333672,0.20941396057605743,0.9743795394897461,0.0,0.0,0.0,0.0,0.0,0.0,0.0,0.0,0.0,24.21820640563965,-0.49662020802497864,9.398569107055664,0.0,0.0,0.0,0.0,0.0,0.0,0.0,0.0,0.0,0.02022489532828331,0.04874284937977791,0.3229749798774719,0.0,0.0,0.0,0.0,0.0,0.0,0.0,0.0,0.0
1606827792185807704,1783746,1606827792176791897,imu_link,0.08100853860378265,0.012962652370333672,0.20941396057605743,0.9743795394897461,0.0,0.0,0.0,0.0,0.0,0.0,0.0,0.0,0.0,24.21820640563965,-0.49662020802497864,9.398569107055664,0.0,0.0,0.0,0.0,0.0,0.0,0.0,0.0,0.0,0.02022489532828331,0.04874284937977791,0.3229749798774719,0.0,0.0,0.0,0.0,0.0,0.0,0.0,0.0,0.0
1606827792187050888,1783747,1606827792176851783,imu_link,0.08100980520248413,0.012961652129888535,0.2094135731458664,0.9743795394897461,0.0,0.0,0.0,0.0,0.0,0.0,0.0,0.0,0.0,24.21815299987793,-0.4967588186264038,9.398689270019531,0.0,0.0,0.0,0.0,0.0,0.0,0.0,0.0,0.0,-0.00047220918349921703,0.06029763072729111,0.3060527443885803,0.0,0.0,0.0,0.0,0.0,0.0,0.0,0.0,0.0
1606827792197489935,1783748,1606827792189879819,imu_link,0.08100980520248413,0.012961652129888535,0.2094135731458664,0.9743795394897461,0.0,0.0,0.0,0.0,0.0,0.0,0.0,0.0,0.0,24.21815299987793,-0.4967588186264038,9.398689270019531,0.0,0.0,0.0,0.0,0.0,0.0,0.0,0.0,0.0,-0.00047220918349921703,0.06029763072729111,0.3060527443885803,0.0,0.0,0.0,0.0,0.0,0.0,0.0,0.0,0.0
1606827792198002165,1783749,1606827792190000276,imu_link,0.0810069739818573,0.012959375977516174,0.20940974354743958,0.974380612373352,0.0,0.0,0.0,0.0,0.0,0.0,0.0,0.0,0.0,24.217683792114258,-0.4969078004360199,9.39831829071045,0.0,0.0,0.0,0.0,0.0,0.0,0.0,0.0,0.0,-0.0016959616914391518,0.04645935446023941,0.31684640049934387,0.0,0.0,0.0,0.0,0.0,0.0,0.0,0.0,0.0
1606827792198020566,1783750,1606827792190158110,imu_link,0.0810069739818573,0.012959375977516174,0.20940974354743958,0.974380612373352,0.0,0.0,0.0,0.0,0.0,0.0,0.0,0.0,0.0,24.217683792114258,-0.4969078004360199,9.39831829071045,0.0,0.0,0.0,0.0,0.0,0.0,0.0,0.0,0.0,-0.0016959616914391518,0.04645935446023941,0.31684640049934387,0.0,0.0,0.0,0.0,0.0,0.0,0.0,0.0,0.0
1606827792198035061,1783751,1606827792190237428,imu_link,0.08100815117359161,0.01295798271894455,0.20941020548343658,0.9743804335594177,0.0,0.0,0.0,0.0,0.0,0.0,0.0,0.0,0.0,24.217727661132812,-0.4970961809158325,9.398415565490723,0.0,0.0,0.0,0.0,0.0,0.0,0.0,0.0,0.0,0.01268978975713253,0.0540030263364315,0.31242620944976807,0.0,0.0,0.0,0.0,0.0,0.0,0.0,0.0,0.0
1606827792198050831,1783752,1606827792190325292,imu_link,0.08100815117359161,0.01295798271894455,0.20941020548343658,0.9743804335594177,0.0,0.0,0.0,0.0,0.0,0.0,0.0,0.0,0.0,24.217727661132812,-0.4970961809158325,9.398415565490723,0.0,0.0,0.0,0.0,0.0,0.0,0.0,0.0,0.0,0.01268978975713253,0.0540030263364315,0.31242620944976807,0.0,0.0,0.0,0.0,0.0,0.0,0.0,0.0,0.0
1606827792198837622,1783753,1606827792190395080,imu_link,0.08100740611553192,0.012959691695868969,0.2094115912914276,0.9743801951408386,0.0,0.0,0.0,0.0,0.0,0.0,0.0,0.0,0.0,24.21790313720703,-0.4969007670879364,9.398372650146484,0.0,0.0,0.0,0.0,0.0,0.0,0.0,0.0,0.0,0.004531035665422678,0.0473567396402359,0.3280945122241974,0.0,0.0,0.0,0.0,0.0,0.0,0.0,0.0,0.0
1606827792198861722,1783754,1606827792190509050,imu_link,0.08100740611553192,0.012959691695868969,0.2094115912914276,0.9743801951408386,0.0,0.0,0.0,0.0,0.0,0.0,0.0,0.0,0.0,24.21790313720703,-0.4969007670879364,9.398372650146484,0.0,0.0,0.0,0.0,0.0,0.0,0.0,0.0,0.0,0.004531035665422678,0.0473567396402359,0.3280945122241974,0.0,0.0,0.0,0.0,0.0,0.0,0.0,0.0,0.0
1606827792198884354,1783755,1606827792190591088,imu_link,0.0810045525431633,0.01295791007578373,0.20941145718097687,0.9743804931640625,0.0,0.0,0.0,0.0,0.0,0.0,0.0,0.0,0.0,24.217872619628906,-0.49702948331832886,9.398008346557617,0.0,0.0,0.0,0.0,0.0,0.0,0.0,0.0,0.0,-0.0024163899943232536,0.035203009843826294,0.34073784947395325,0.0,0.0,0.0,0.0,0.0,0.0,0.0,0.0,0.0
1606827792198890989,1783756,1606827792190662554,imu_link,0.0810045525431633,0.01295791007578373,0.20941145718097687,0.9743804931640625,0.0,0.0,0.0,0.0,0.0,0.0,0.0,0.0,0.0,24.217872619628906,-0.49702948331832886,9.398008346557617,0.0,0.0,0.0,0.0,0.0,0.0,0.0,0.0,0.0,-0.0024163899943232536,0.035203009843826294,0.34073784947395325,0.0,0.0,0.0,0.0,0.0,0.0,0.0,0.0,0.0
1606827792199882849,1783757,1606827792190737318,imu_link,0.081007219851017,0.01295747235417366,0.20941166579723358,0.9743801951408386,0.0,0.0,0.0,0.0,0.0,0.0,0.0,0.0,0.0,24.217891693115234,-0.4971447288990021,9.398299217224121,0.0,0.0,0.0,0.0,0.0,0.0,0.0,0.0,0.0,0.005485839210450649,0.0454966239631176,0.30891329050064087,0.0,0.0,0.0,0.0,0.0,0.0,0.0,0.0,0.0
1606827792199909301,1783758,1606827792190807740,imu_link,0.081007219851017,0.01295747235417366,0.20941166579723358,0.9743801951408386,0.0,0.0,0.0,0.0,0.0,0.0,0.0,0.0,0.0,24.217891693115234,-0.4971447288990021,9.398299217224121,0.0,0.0,0.0,0.0,0.0,0.0,0.0,0.0,0.0,0.005485839210450649,0.0454966239631176,0.30891329050064087,0.0,0.0,0.0,0.0,0.0,0.0,0.0,0.0,0.0
1606827792210915007,1783759,1606827792203230573,imu_link,0.08100805431604385,0.012958968989551067,0.2094103991985321,0.974380373954773,0.0,0.0,0.0,0.0,0.0,0.0,0.0,0.0,0.0,24.217758178710938,-0.4969857335090637,9.398429870605469,0.0,0.0,0.0,0.0,0.0,0.0,0.0,0.0,0.0,0.013777164742350578,0.042186908423900604,0.30098193883895874,0.0,0.0,0.0,0.0,0.0,0.0,0.0,0.0,0.0
1606827792231597580,1783760,1606827792203380148,imu_link,0.08100805431604385,0.012958968989551067,0.2094103991985321,0.974380373954773,0.0,0.0,0.0,0.0,0.0,0.0,0.0,0.0,0.0,24.217758178710938,-0.4969857335090637,9.398429870605469,0.0,0.0,0.0,0.0,0.0,0.0,0.0,0.0,0.0,0.013777164742350578,0.042186908423900604,0.30098193883895874,0.0,0.0,0.0,0.0,0.0,0.0,0.0,0.0,0.0
1606827792231626189,1783761,1606827792203454342,imu_link,0.08100694417953491,0.012959452345967293,0.20940594375133514,0.9743813872337341,0.0,0.0,0.0,0.0,0.0,0.0,0.0,0.0,0.0,24.217243194580078,-0.49686214327812195,9.39831829071045,0.0,0.0,0.0,0.0,0.0,0.0,0.0,0.0,0.0,0.002146535785868764,0.04972726106643677,0.32901838421821594,0.0,0.0,0.0,0.0,0.0,0.0,0.0,0.0,0.0
1606827792231688291,1783762,1606827792203523073,imu_link,0.08100694417953491,0.012959452345967293,0.20940594375133514,0.9743813872337341,0.0,0.0,0.0,0.0,0.0,0.0,0.0,0.0,0.0,24.217243194580078,-0.49686214327812195,9.39831829071045,0.0,0.0,0.0,0.0,0.0,0.0,0.0,0.0,0.0,0.002146535785868764,0.04972726106643677,0.32901838421821594,0.0,0.0,0.0,0.0,0.0,0.0,0.0,0.0,0.0
1606827792231701604,1783763,1606827792203593847,imu_link,0.08100568503141403,0.01295960322022438,0.20940539240837097,0.9743816256523132,0.0,0.0,0.0,0.0,0.0,0.0,0.0,0.0,0.0,24.217178344726562,-0.4968097507953644,9.398181915283203,0.0,0.0,0.0,0.0,0.0,0.0,0.0,0.0,0.0,-0.012834915891289711,0.0573265440762043,0.3406718671321869,0.0,0.0,0.0,0.0,0.0,0.0,0.0,0.0,0.0
1606827792231750920,1783764,1606827792203663211,imu_link,0.08100568503141403,0.01295960322022438,0.20940539240837097,0.9743816256523132,0.0,0.0,0.0,0.0,0.0,0.0,0.0,0.0,0.0,24.217178344726562,-0.4968097507953644,9.398181915283203,0.0,0.0,0.0,0.0,0.0,0.0,0.0,0.0,0.0,-0.012834915891289711,0.0573265440762043,0.3406718671321869,0.0,0.0,0.0,0.0,0.0,0.0,0.0,0.0,0.0
1606827792231764192,1783765,1606827792203747846,imu_link,0.08100489526987076,0.012955449521541595,0.20939962565898895,0.9743829965591431,0.0,0.0,0.0,0.0,0.0,0.0,0.0,0.0,0.0,24.216468811035156,-0.49719884991645813,9.397995948791504,0.0,0.0,0.0,0.0,0.0,0.0,0.0,0.0,0.0,-0.0015938198193907738,0.05253678932785988,0.3280758857727051,0.0,0.0,0.0,0.0,0.0,0.0,0.0,0.0,0.0
1606827792231794196,1783766,1606827792203840847,imu_link,0.08100489526987076,0.012955449521541595,0.20939962565898895,0.9743829965591431,0.0,0.0,0.0,0.0,0.0,0.0,0.0,0.0,0.0,24.216468811035156,-0.49719884991645813,9.397995948791504,0.0,0.0,0.0,0.0,0.0,0.0,0.0,0.0,0.0,-0.0015938198193907738,0.05253678932785988,0.3280758857727051,0.0,0.0,0.0,0.0,0.0,0.0,0.0,0.0,0.0
1606827792231844752,1783767,1606827792203927670,imu_link,0.08100464940071106,0.012956958264112473,0.2094005048274994,0.974382758140564,0.0,0.0,0.0,0.0,0.0,0.0,0.0,0.0,0.0,24.21658706665039,-0.49703311920166016,9.398005485534668,0.0,0.0,0.0,0.0,0.0,0.0,0.0,0.0,0.0,0.019468864426016808,0.07285109907388687,0.31570056080818176,0.0,0.0,0.0,0.0,0.0,0.0,0.0,0.0,0.0
1606827792231857793,1783768,1606827792203993924,imu_link,0.08100464940071106,0.012956958264112473,0.2094005048274994,0.974382758140564,0.0,0.0,0.0,0.0,0.0,0.0,0.0,0.0,0.0,24.21658706665039,-0.49703311920166016,9.398005485534668,0.0,0.0,0.0,0.0,0.0,0.0,0.0,0.0,0.0,0.019468864426016808,0.07285109907388687,0.31570056080818176,0.0,0.0,0.0,0.0,0.0,0.0,0.0,0.0,0.0
1606827792231865645,1783769,1606827792204064078,imu_link,0.08100047707557678,0.012961338274180889,0.20940440893173218,0.9743822813034058,0.0,0.0,0.0,0.0,0.0,0.0,0.0,0.0,0.0,24.217082977294922,-0.49648088216781616,9.397638320922852,0.0,0.0,0.0,0.0,0.0,0.0,0.0,0.0,0.0,0.02176479808986187,0.07419322431087494,0.317825049161911,0.0,0.0,0.0,0.0,0.0,0.0,0.0,0.0,0.0
1606827792231877368,1783770,1606827792217123989,imu_link,0.08100047707557678,0.012961338274180889,0.20940440893173218,0.9743822813034058,0.0,0.0,0.0,0.0,0.0,0.0,0.0,0.0,0.0,24.217082977294922,-0.49648088216781616,9.397638320922852,0.0,0.0,0.0,0.0,0.0,0.0,0.0,0.0,0.0,0.02176479808986187,0.07419322431087494,0.317825049161911,0.0,0.0,0.0,0.0,0.0,0.0,0.0,0.0,0.0
1606827792231891607,1783771,1606827792217258725,imu_link,0.0809996947646141,0.012960453517735004,0.2094031572341919,0.9743825793266296,0.0,0.0,0.0,0.0,0.0,0.0,0.0,0.0,0.0,24.216930389404297,-0.49654874205589294,9.397530555725098,0.0,0.0,0.0,0.0,0.0,0.0,0.0,0.0,0.0,0.014761436730623245,0.058107245713472366,0.3136225640773773,0.0,0.0,0.0,0.0,0.0,0.0,0.0,0.0,0.0
1606827792231901934,1783772,1606827792217438455,imu_link,0.0809996947646141,0.012960453517735004,0.2094031572341919,0.9743825793266296,0.0,0.0,0.0,0.0,0.0,0.0,0.0,0.0,0.0,24.216930389404297,-0.49654874205589294,9.397530555725098,0.0,0.0,0.0,0.0,0.0,0.0,0.0,0.0,0.0,0.014761436730623245,0.058107245713472366,0.3136225640773773,0.0,0.0,0.0,0.0,0.0,0.0,0.0,0.0,0.0
1606827792231911883,1783773,1606827792217538446,imu_link,0.0809982493519783,0.012963037937879562,0.20940729975700378,0.9743818044662476,0.0,0.0,0.0,0.0,0.0,0.0,0.0,0.0,0.0,24.217437744140625,-0.4962652027606964,9.39742660522461,0.0,0.0,0.0,0.0,0.0,0.0,0.0,0.0,0.0,0.004064299166202545,0.07090236991643906,0.3266772925853729,0.0,0.0,0.0,0.0,0.0,0.0,0.0,0.0,0.0
1606827792231945268,1783774,1606827792217619934,imu_link,0.0809982493519783,0.012963037937879562,0.20940729975700378,0.9743818044662476,0.0,0.0,0.0,0.0,0.0,0.0,0.0,0.0,0.0,24.217437744140625,-0.4962652027606964,9.39742660522461,0.0,0.0,0.0,0.0,0.0,0.0,0.0,0.0,0.0,0.004064299166202545,0.07090236991643906,0.3266772925853729,0.0,0.0,0.0,0.0,0.0,0.0,0.0,0.0,0.0
1606827792231956997,1783775,1606827792217702234,imu_link,0.08099948614835739,0.012962080538272858,0.20940712094306946,0.9743817448616028,0.0,0.0,0.0,0.0,0.0,0.0,0.0,0.0,0.0,24.2174072265625,-0.4964000880718231,9.397541046142578,0.0,0.0,0.0,0.0,0.0,0.0,0.0,0.0,0.0,-0.011405051685869694,0.07193037867546082,0.3322506844997406,0.0,0.0,0.0,0.0,0.0,0.0,0.0,0.0,0.0
1606827792231974926,1783776,1606827792217809933,imu_link,0.08099948614835739,0.012962080538272858,0.20940712094306946,0.9743817448616028,0.0,0.0,0.0,0.0,0.0,0.0,0.0,0.0,0.0,24.2174072265625,-0.4964000880718231,9.397541046142578,0.0,0.0,0.0,0.0,0.0,0.0,0.0,0.0,0.0,-0.011405051685869694,0.07193037867546082,0.3322506844997406,0.0,0.0,0.0,0.0,0.0,0.0,0.0,0.0,0.0
1606827792231994881,1783777,1606827792217892228,imu_link,0.08099612593650818,0.012956528924405575,0.2094094157218933,0.9743815660476685,0.0,0.0,0.0,0.0,0.0,0.0,0.0,0.0,0.0,24.217628479003906,-0.49696096777915955,9.3970308303833,0.0,0.0,0.0,0.0,0.0,0.0,0.0,0.0,0.0,-0.004053098149597645,0.047170333564281464,0.32717689871788025,0.0,0.0,0.0,0.0,0.0,0.0,0.0,0.0,0.0
1606827792232005805,1783778,1606827792217969145,imu_link,0.08099612593650818,0.012956528924405575,0.2094094157218933,0.9743815660476685,0.0,0.0,0.0,0.0,0.0,0.0,0.0,0.0,0.0,24.217628479003906,-0.49696096777915955,9.3970308303833,0.0,0.0,0.0,0.0,0.0,0.0,0.0,0.0,0.0,-0.004053098149597645,0.047170333564281464,0.32717689871788025,0.0,0.0,0.0,0.0,0.0,0.0,0.0,0.0,0.0
1606827792232018924,1783779,1606827792218047802,imu_link,0.08099592477083206,0.012957487255334854,0.20941095054149628,0.9743812680244446,0.0,0.0,0.0,0.0,0.0,0.0,0.0,0.0,0.0,24.21781349182129,-0.4968637526035309,9.3970308303833,0.0,0.0,0.0,0.0,0.0,0.0,0.0,0.0,0.0,0.006844469346106052,0.031892113387584686,0.344070166349411,0.0,0.0,0.0,0.0,0.0,0.0,0.0,0.0,0.0
1606827792232025701,1783780,1606827792218130162,imu_link,0.08099592477083206,0.012957487255334854,0.20941095054149628,0.9743812680244446,0.0,0.0,0.0,0.0,0.0,0.0,0.0,0.0,0.0,24.21781349182129,-0.4968637526035309,9.3970308303833,0.0,0.0,0.0,0.0,0.0,0.0,0.0,0.0,0.0,0.006844469346106052,0.031892113387584686,0.344070166349411,0.0,0.0,0.0,0.0,0.0,0.0,0.0,0.0,0.0
1606827792239886262,1783781,1606827792230571327,imu_link,0.08100169152021408,0.012958908453583717,0.20941199362277985,0.9743805527687073,0.0,0.0,0.0,0.0,0.0,0.0,0.0,0.0,0.0,24.21794891357422,-0.4968542456626892,9.397712707519531,0.0,0.0,0.0,0.0,0.0,0.0,0.0,0.0,0.0,0.012108446098864079,0.035788070410490036,0.3403111696243286,0.0,0.0,0.0,0.0,0.0,0.0,0.0,0.0,0.0
1606827792239909849,1783782,1606827792230707882,imu_link,0.08100169152021408,0.012958908453583717,0.20941199362277985,0.9743805527687073,0.0,0.0,0.0,0.0,0.0,0.0,0.0,0.0,0.0,24.21794891357422,-0.4968542456626892,9.397712707519531,0.0,0.0,0.0,0.0,0.0,0.0,0.0,0.0,0.0,0.012108446098864079,0.035788070410490036,0.3403111696243286,0.0,0.0,0.0,0.0,0.0,0.0,0.0,0.0,0.0
1606827792239941262,1783783,1606827792230893185,imu_link,0.08100251853466034,0.012959063053131104,0.20941175520420074,0.9743805527687073,0.0,0.0,0.0,0.0,0.0,0.0,0.0,0.0,0.0,24.217918395996094,-0.4968547821044922,9.397809028625488,0.0,0.0,0.0,0.0,0.0,0.0,0.0,0.0,0.0,-0.00459895096719265,0.03926142677664757,0.32317984104156494,0.0,0.0,0.0,0.0,0.0,0.0,0.0,0.0,0.0
1606827792239956875,1783784,1606827792231014464,imu_link,0.08100251853466034,0.012959063053131104,0.20941175520420074,0.9743805527687073,0.0,0.0,0.0,0.0,0.0,0.0,0.0,0.0,0.0,24.217918395996094,-0.4968547821044922,9.397809028625488,0.0,0.0,0.0,0.0,0.0,0.0,0.0,0.0,0.0,-0.00459895096719265,0.03926142677664757,0.32317984104156494,0.0,0.0,0.0,0.0,0.0,0.0,0.0,0.0,0.0
1606827792239965182,1783785,1606827792231089853,imu_link,0.08100326359272003,0.012960195541381836,0.20941667258739471,0.9743794202804565,0.0,0.0,0.0,0.0,0.0,0.0,0.0,0.0,0.0,24.218505859375,-0.4967934191226959,9.397916793823242,0.0,0.0,0.0,0.0,0.0,0.0,0.0,0.0,0.0,-0.027142789214849472,0.021865079179406166,0.3196442127227783,0.0,0.0,0.0,0.0,0.0,0.0,0.0,0.0,0.0
1606827792240928850,1783786,1606827792231232337,imu_link,0.08100326359272003,0.012960195541381836,0.20941667258739471,0.9743794202804565,0.0,0.0,0.0,0.0,0.0,0.0,0.0,0.0,0.0,24.218505859375,-0.4967934191226959,9.397916793823242,0.0,0.0,0.0,0.0,0.0,0.0,0.0,0.0,0.0,-0.027142789214849472,0.021865079179406166,0.3196442127227783,0.0,0.0,0.0,0.0,0.0,0.0,0.0,0.0,0.0
1606827792240952296,1783787,1606827792231371844,imu_link,0.08100329339504242,0.012958689592778683,0.20941685140132904,0.9743793606758118,0.0,0.0,0.0,0.0,0.0,0.0,0.0,0.0,0.0,24.2185115814209,-0.4969639480113983,9.397884368896484,0.0,0.0,0.0,0.0,0.0,0.0,0.0,0.0,0.0,-0.01059337705373764,0.03652321174740791,0.30212095379829407,0.0,0.0,0.0,0.0,0.0,0.0,0.0,0.0,0.0
1606827792240963820,1783788,1606827792231457998,imu_link,0.08100329339504242,0.012958689592778683,0.20941685140132904,0.9743793606758118,0.0,0.0,0.0,0.0,0.0,0.0,0.0,0.0,0.0,24.2185115814209,-0.4969639480113983,9.397884368896484,0.0,0.0,0.0,0.0,0.0,0.0,0.0,0.0,0.0,-0.01059337705373764,0.03652321174740791,0.30212095379829407,0.0,0.0,0.0,0.0,0.0,0.0,0.0,0.0,0.0
1606827792240971493,1783789,1606827792231543360,imu_link,0.08100474625825882,0.012957745231688023,0.20942135155200958,0.9743782877922058,0.0,0.0,0.0,0.0,0.0,0.0,0.0,0.0,0.0,24.21902847290039,-0.4971476197242737,9.398022651672363,0.0,0.0,0.0,0.0,0.0,0.0,0.0,0.0,0.0,0.009843753650784492,0.06256061792373657,0.2864481210708618,0.0,0.0,0.0,0.0,0.0,0.0,0.0,0.0,0.0
1606827792241308514,1783790,1606827792231629524,imu_link,0.08100474625825882,0.012957745231688023,0.20942135155200958,0.9743782877922058,0.0,0.0,0.0,0.0,0.0,0.0,0.0,0.0,0.0,24.21902847290039,-0.4971476197242737,9.398022651672363,0.0,0.0,0.0,0.0,0.0,0.0,0.0,0.0,0.0,0.009843753650784492,0.06256061792373657,0.2864481210708618,0.0,0.0,0.0,0.0,0.0,0.0,0.0,0.0,0.0
1606827792241327867,1783791,1606827792231706707,imu_link,0.08100271970033646,0.012959358282387257,0.2094200700521469,0.9743787050247192,0.0,0.0,0.0,0.0,0.0,0.0,0.0,0.0,0.0,24.218894958496094,-0.49690642952919006,9.397834777832031,0.0,0.0,0.0,0.0,0.0,0.0,0.0,0.0,0.0,0.01725171133875847,0.06837038695812225,0.3028392493724823,0.0,0.0,0.0,0.0,0.0,0.0,0.0,0.0,0.0
1606827792251171982,1783792,1606827792243552618,imu_link,0.08100271970033646,0.012959358282387257,0.2094200700521469,0.9743787050247192,0.0,0.0,0.0,0.0,0.0,0.0,0.0,0.0,0.0,24.218894958496094,-0.49690642952919006,9.397834777832031,0.0,0.0,0.0,0.0,0.0,0.0,0.0,0.0,0.0,0.01725171133875847,0.06837038695812225,0.3028392493724823,0.0,0.0,0.0,0.0,0.0,0.0,0.0,0.0,0.0
1606827792252379039,1783793,1606827792243687284,imu_link,0.08100025355815887,0.01296050101518631,0.20941807329654694,0.9743793606758118,0.0,0.0,0.0,0.0,0.0,0.0,0.0,0.0,0.0,24.218671798706055,-0.4967002272605896,9.39758586883545,0.0,0.0,0.0,0.0,0.0,0.0,0.0,0.0,0.0,0.0040823109447956085,0.05714736506342888,0.3374488353729248,0.0,0.0,0.0,0.0,0.0,0.0,0.0,0.0,0.0
1606827792252397686,1783794,1606827792243837265,imu_link,0.08100025355815887,0.01296050101518631,0.20941807329654694,0.9743793606758118,0.0,0.0,0.0,0.0,0.0,0.0,0.0,0.0,0.0,24.218671798706055,-0.4967002272605896,9.39758586883545,0.0,0.0,0.0,0.0,0.0,0.0,0.0,0.0,0.0,0.0040823109447956085,0.05714736506342888,0.3374488353729248,0.0,0.0,0.0,0.0,0.0,0.0,0.0,0.0,0.0
1606827792252415158,1783795,1606827792243918217,imu_link,0.08100014179944992,0.012960920110344887,0.20941847562789917,0.9743792414665222,0.0,0.0,0.0,0.0,0.0,0.0,0.0,0.0,0.0,24.21872329711914,-0.4966546595096588,9.3975830078125,0.0,0.0,0.0,0.0,0.0,0.0,0.0,0.0,0.0,-0.012230741791427135,0.04421502724289894,0.3292410671710968,0.0,0.0,0.0,0.0,0.0,0.0,0.0,0.0,0.0
1606827792252441491,1783796,1606827792243994734,imu_link,0.08100014179944992,0.012960920110344887,0.20941847562789917,0.9743792414665222,0.0,0.0,0.0,0.0,0.0,0.0,0.0,0.0,0.0,24.21872329711914,-0.4966546595096588,9.3975830078125,0.0,0.0,0.0,0.0,0.0,0.0,0.0,0.0,0.0,-0.012230741791427135,0.04421502724289894,0.3292410671710968,0.0,0.0,0.0,0.0,0.0,0.0,0.0,0.0,0.0
1606827792252446353,1783797,1606827792244089061,imu_link,0.08100119233131409,0.012960253283381462,0.20941802859306335,0.974379301071167,0.0,0.0,0.0,0.0,0.0,0.0,0.0,0.0,0.0,24.218664169311523,-0.49674996733665466,9.397686004638672,0.0,0.0,0.0,0.0,0.0,0.0,0.0,0.0,0.0,-0.0012112329714000225,0.05395328253507614,0.3112400472164154,0.0,0.0,0.0,0.0,0.0,0.0,0.0,0.0,0.0
1606827792252457782,1783798,1606827792244193517,imu_link,0.08100119233131409,0.012960253283381462,0.20941802859306335,0.974379301071167,0.0,0.0,0.0,0.0,0.0,0.0,0.0,0.0,0.0,24.218664169311523,-0.49674996733665466,9.397686004638672,0.0,0.0,0.0,0.0,0.0,0.0,0.0,0.0,0.0,-0.0012112329714000225,0.05395328253507614,0.3112400472164154,0.0,0.0,0.0,0.0,0.0,0.0,0.0,0.0,0.0
1606827792252480334,1783799,1606827792244295137,imu_link,0.08100154995918274,0.012960121035575867,0.20941969752311707,0.9743788838386536,0.0,0.0,0.0,0.0,0.0,0.0,0.0,0.0,0.0,24.218856811523438,-0.49678945541381836,9.397722244262695,0.0,0.0,0.0,0.0,0.0,0.0,0.0,0.0,0.0,0.00890254508703947,0.0633101761341095,0.337224543094635,0.0,0.0,0.0,0.0,0.0,0.0,0.0,0.0,0.0
1606827792252490002,1783800,1606827792244391364,imu_link,0.08100154995918274,0.012960121035575867,0.20941969752311707,0.9743788838386536,0.0,0.0,0.0,0.0,0.0,0.0,0.0,0.0,0.0,24.218856811523438,-0.49678945541381836,9.397722244262695,0.0,0.0,0.0,0.0,0.0,0.0,0.0,0.0,0.0,0.00890254508703947,0.0633101761341095,0.337224543094635,0.0,0.0,0.0,0.0,0.0,0.0,0.0,0.0,0.0
1606827792252494389,1783801,1606827792244477408,imu_link,0.08099990338087082,0.012958960607647896,0.20941850543022156,0.974379301071167,0.0,0.0,0.0,0.0,0.0,0.0,0.0,0.0,0.0,24.218708038330078,-0.4968678057193756,9.39750862121582,0.0,0.0,0.0,0.0,0.0,0.0,0.0,0.0,0.0,0.016604773700237274,0.07318786531686783,0.33840376138687134,0.0,0.0,0.0,0.0,0.0,0.0,0.0,0.0,0.0
1606827792265058913,1783802,1606827792257335906,imu_link,0.08099990338087082,0.012958960607647896,0.20941850543022156,0.974379301071167,0.0,0.0,0.0,0.0,0.0,0.0,0.0,0.0,0.0,24.218708038330078,-0.4968678057193756,9.39750862121582,0.0,0.0,0.0,0.0,0.0,0.0,0.0,0.0,0.0,0.016604773700237274,0.07318786531686783,0.33840376138687134,0.0,0.0,0.0,0.0,0.0,0.0,0.0,0.0,0.0
1606827792265511947,1783803,1606827792257482665,imu_link,0.08100149780511856,0.012959425337612629,0.2094181329011917,0.9743792414665222,0.0,0.0,0.0,0.0,0.0,0.0,0.0,0.0,0.0,24.218669891357422,-0.4968508183956146,9.397699356079102,0.0,0.0,0.0,0.0,0.0,0.0,0.0,0.0,0.0,0.014784089289605618,0.05197317898273468,0.3145621418952942,0.0,0.0,0.0,0.0,0.0,0.0,0.0,0.0,0.0
1606827792265529336,1783804,1606827792257642278,imu_link,0.08100149780511856,0.012959425337612629,0.2094181329011917,0.9743792414665222,0.0,0.0,0.0,0.0,0.0,0.0,0.0,0.0,0.0,24.218669891357422,-0.4968508183956146,9.397699356079102,0.0,0.0,0.0,0.0,0.0,0.0,0.0,0.0,0.0,0.014784089289605618,0.05197317898273468,0.3145621418952942,0.0,0.0,0.0,0.0,0.0,0.0,0.0,0.0,0.0
1606827792265540789,1783805,1606827792257726924,imu_link,0.08100120723247528,0.012962836772203445,0.20941872894763947,0.9743791222572327,0.0,0.0,0.0,0.0,0.0,0.0,0.0,0.0,0.0,24.218772888183594,-0.4964684844017029,9.397748947143555,0.0,0.0,0.0,0.0,0.0,0.0,0.0,0.0,0.0,-0.005148228257894516,0.04119078814983368,0.31031477451324463,0.0,0.0,0.0,0.0,0.0,0.0,0.0,0.0,0.0
1606827792265553231,1783806,1606827792257807720,imu_link,0.08100120723247528,0.012962836772203445,0.20941872894763947,0.9743791222572327,0.0,0.0,0.0,0.0,0.0,0.0,0.0,0.0,0.0,24.218772888183594,-0.4964684844017029,9.397748947143555,0.0,0.0,0.0,0.0,0.0,0.0,0.0,0.0,0.0,-0.005148228257894516,0.04119078814983368,0.31031477451324463,0.0,0.0,0.0,0.0,0.0,0.0,0.0,0.0,0.0
1606827792266553162,1783807,1606827792257907230,imu_link,0.08100197464227676,0.012961030006408691,0.20942077040672302,0.9743786454200745,0.0,0.0,0.0,0.0,0.0,0.0,0.0,0.0,0.0,24.218992233276367,-0.49670857191085815,9.39778995513916,0.0,0.0,0.0,0.0,0.0,0.0,0.0,0.0,0.0,-0.0222165547311306,0.05576322600245476,0.3046289384365082,0.0,0.0,0.0,0.0,0.0,0.0,0.0,0.0,0.0
1606827792266566265,1783808,1606827792258052690,imu_link,0.08100197464227676,0.012961030006408691,0.20942077040672302,0.9743786454200745,0.0,0.0,0.0,0.0,0.0,0.0,0.0,0.0,0.0,24.218992233276367,-0.49670857191085815,9.39778995513916,0.0,0.0,0.0,0.0,0.0,0.0,0.0,0.0,0.0,-0.0222165547311306,0.05576322600245476,0.3046289384365082,0.0,0.0,0.0,0.0,0.0,0.0,0.0,0.0,0.0
1606827792266585206,1783809,1606827792258146221,imu_link,0.08100103586912155,0.012957002967596054,0.20942091941833496,0.974378764629364,0.0,0.0,0.0,0.0,0.0,0.0,0.0,0.0,0.0,24.218969345092773,-0.4971367418766022,9.397587776184082,0.0,0.0,0.0,0.0,0.0,0.0,0.0,0.0,0.0,-0.008808577433228493,0.05259430408477783,0.2995275557041168,0.0,0.0,0.0,0.0,0.0,0.0,0.0,0.0,0.0
1606827792266605935,1783810,1606827792258224738,imu_link,0.08100103586912155,0.012957002967596054,0.20942091941833496,0.974378764629364,0.0,0.0,0.0,0.0,0.0,0.0,0.0,0.0,0.0,24.218969345092773,-0.4971367418766022,9.397587776184082,0.0,0.0,0.0,0.0,0.0,0.0,0.0,0.0,0.0,-0.008808577433228493,0.05259430408477783,0.2995275557041168,0.0,0.0,0.0,0.0,0.0,0.0,0.0,0.0,0.0
1606827792266620088,1783811,1606827792258309523,imu_link,0.08099956065416336,0.012956485152244568,0.20942136645317078,0.974378764629364,0.0,0.0,0.0,0.0,0.0,0.0,0.0,0.0,0.0,24.219018936157227,-0.49716341495513916,9.397411346435547,0.0,0.0,0.0,0.0,0.0,0.0,0.0,0.0,0.0,0.015789834782481194,0.05120524764060974,0.31410419940948486,0.0,0.0,0.0,0.0,0.0,0.0,0.0,0.0,0.0
1606827792266627450,1783812,1606827792258393898,imu_link,0.08099956065416336,0.012956485152244568,0.20942136645317078,0.974378764629364,0.0,0.0,0.0,0.0,0.0,0.0,0.0,0.0,0.0,24.219018936157227,-0.49716341495513916,9.397411346435547,0.0,0.0,0.0,0.0,0.0,0.0,0.0,0.0,0.0,0.015789834782481194,0.05120524764060974,0.31410419940948486,0.0,0.0,0.0,0.0,0.0,0.0,0.0,0.0,0.0
1606827792279144307,1783813,1606827792270808531,imu_link,0.08099760860204697,0.01296120323240757,0.2094198316335678,0.9743791818618774,0.0,0.0,0.0,0.0,0.0,0.0,0.0,0.0,0.0,24.218887329101562,-0.49657493829727173,9.39730453491211,0.0,0.0,0.0,0.0,0.0,0.0,0.0,0.0,0.0,0.016443045809864998,0.05661951005458832,0.3187802731990814,0.0,0.0,0.0,0.0,0.0,0.0,0.0,0.0,0.0
1606827792279160915,1783814,1606827792270952253,imu_link,0.08099760860204697,0.01296120323240757,0.2094198316335678,0.9743791818618774,0.0,0.0,0.0,0.0,0.0,0.0,0.0,0.0,0.0,24.218887329101562,-0.49657493829727173,9.39730453491211,0.0,0.0,0.0,0.0,0.0,0.0,0.0,0.0,0.0,0.016443045809864998,0.05661951005458832,0.3187802731990814,0.0,0.0,0.0,0.0,0.0,0.0,0.0,0.0,0.0
1606827792279178985,1783815,1606827792271123092,imu_link,0.08099623024463654,0.01296092290431261,0.20941925048828125,0.9743794202804565,0.0,0.0,0.0,0.0,0.0,0.0,0.0,0.0,0.0,24.218814849853516,-0.49656742811203003,9.39714241027832,0.0,0.0,0.0,0.0,0.0,0.0,0.0,0.0,0.0,0.019545238465070724,0.05680305138230324,0.32229939103126526,0.0,0.0,0.0,0.0,0.0,0.0,0.0,0.0,0.0
1606827792279209413,1783816,1606827792271204280,imu_link,0.08099623024463654,0.01296092290431261,0.20941925048828125,0.9743794202804565,0.0,0.0,0.0,0.0,0.0,0.0,0.0,0.0,0.0,24.218814849853516,-0.49656742811203003,9.39714241027832,0.0,0.0,0.0,0.0,0.0,0.0,0.0,0.0,0.0,0.019545238465070724,0.05680305138230324,0.32229939103126526,0.0,0.0,0.0,0.0,0.0,0.0,0.0,0.0,0.0
1606827792279230128,1783817,1606827792271326256,imu_link,0.0809965431690216,0.012965081259608269,0.20941808819770813,0.9743795990943909,0.0,0.0,0.0,0.0,0.0,0.0,0.0,0.0,0.0,24.218719482421875,-0.4960993528366089,9.397279739379883,0.0,0.0,0.0,0.0,0.0,0.0,0.0,0.0,0.0,0.03219998627901077,0.07072348892688751,0.3304949402809143,0.0,0.0,0.0,0.0,0.0,0.0,0.0,0.0,0.0
1606827792280359524,1783818,1606827792271462506,imu_link,0.0809965431690216,0.012965081259608269,0.20941808819770813,0.9743795990943909,0.0,0.0,0.0,0.0,0.0,0.0,0.0,0.0,0.0,24.218719482421875,-0.4960993528366089,9.397279739379883,0.0,0.0,0.0,0.0,0.0,0.0,0.0,0.0,0.0,0.03219998627901077,0.07072348892688751,0.3304949402809143,0.0,0.0,0.0,0.0,0.0,0.0,0.0,0.0,0.0
1606827792280401772,1783819,1606827792271578193,imu_link,0.08099640905857086,0.012964109890162945,0.2094179391860962,0.9743796586990356,0.0,0.0,0.0,0.0,0.0,0.0,0.0,0.0,0.0,24.218690872192383,-0.49620330333709717,9.397239685058594,0.0,0.0,0.0,0.0,0.0,0.0,0.0,0.0,0.0,0.01581013947725296,0.08411846309900284,0.31592851877212524,0.0,0.0,0.0,0.0,0.0,0.0,0.0,0.0,0.0
1606827792280417505,1783820,1606827792271657551,imu_link,0.08099640905857086,0.012964109890162945,0.2094179391860962,0.9743796586990356,0.0,0.0,0.0,0.0,0.0,0.0,0.0,0.0,0.0,24.218690872192383,-0.49620330333709717,9.397239685058594,0.0,0.0,0.0,0.0,0.0,0.0,0.0,0.0,0.0,0.01581013947725296,0.08411846309900284,0.31592851877212524,0.0,0.0,0.0,0.0,0.0,0.0,0.0,0.0,0.0
1606827792280429402,1783821,1606827792271731146,imu_link,0.08099303394556046,0.012965586967766285,0.2094166874885559,0.9743801951408386,0.0,0.0,0.0,0.0,0.0,0.0,0.0,0.0,0.0,24.218563079833984,-0.49594491720199585,9.396897315979004,0.0,0.0,0.0,0.0,0.0,0.0,0.0,0.0,0.0,-0.006395241245627403,0.09081511199474335,0.3135334253311157,0.0,0.0,0.0,0.0,0.0,0.0,0.0,0.0,0.0
1606827792283299082,1783822,1606827792271824637,imu_link,0.08099303394556046,0.012965586967766285,0.2094166874885559,0.9743801951408386,0.0,0.0,0.0,0.0,0.0,0.0,0.0,0.0,0.0,24.218563079833984,-0.49594491720199585,9.396897315979004,0.0,0.0,0.0,0.0,0.0,0.0,0.0,0.0,0.0,-0.006395241245627403,0.09081511199474335,0.3135334253311157,0.0,0.0,0.0,0.0,0.0,0.0,0.0,0.0,0.0
1606827792283355773,1783823,1606827792271906400,imu_link,0.08099120110273361,0.012965709902346134,0.2094189077615738,0.97437983751297,0.0,0.0,0.0,0.0,0.0,0.0,0.0,0.0,0.0,24.21882438659668,-0.4959082007408142,9.396693229675293,0.0,0.0,0.0,0.0,0.0,0.0,0.0,0.0,0.0,0.00807514600455761,0.07240328192710876,0.33068791031837463,0.0,0.0,0.0,0.0,0.0,0.0,0.0,0.0,0.0
1606827792292305483,1783824,1606827792284620742,imu_link,0.08099120110273361,0.012965709902346134,0.2094189077615738,0.97437983751297,0.0,0.0,0.0,0.0,0.0,0.0,0.0,0.0,0.0,24.21882438659668,-0.4959082007408142,9.396693229675293,0.0,0.0,0.0,0.0,0.0,0.0,0.0,0.0,0.0,0.00807514600455761,0.07240328192710876,0.33068791031837463,0.0,0.0,0.0,0.0,0.0,0.0,0.0,0.0,0.0
1606827792294557911,1783825,1606827792284742387,imu_link,0.08098955452442169,0.012965848669409752,0.2094174325466156,0.9743803143501282,0.0,0.0,0.0,0.0,0.0,0.0,0.0,0.0,0.0,24.21865463256836,-0.4958389401435852,9.396512031555176,0.0,0.0,0.0,0.0,0.0,0.0,0.0,0.0,0.0,0.00818098895251751,0.04984717816114426,0.3333013355731964,0.0,0.0,0.0,0.0,0.0,0.0,0.0,0.0,0.0
1606827792294648628,1783826,1606827792284898618,imu_link,0.08098955452442169,0.012965848669409752,0.2094174325466156,0.9743803143501282,0.0,0.0,0.0,0.0,0.0,0.0,0.0,0.0,0.0,24.21865463256836,-0.4958389401435852,9.396512031555176,0.0,0.0,0.0,0.0,0.0,0.0,0.0,0.0,0.0,0.00818098895251751,0.04984717816114426,0.3333013355731964,0.0,0.0,0.0,0.0,0.0,0.0,0.0,0.0,0.0
1606827792294668521,1783827,1606827792284973396,imu_link,0.08098900318145752,0.012967082671821117,0.20941795408725739,0.9743801951408386,0.0,0.0,0.0,0.0,0.0,0.0,0.0,0.0,0.0,24.218727111816406,-0.4956929385662079,9.396479606628418,0.0,0.0,0.0,0.0,0.0,0.0,0.0,0.0,0.0,-0.014492673799395561,0.055202145129442215,0.3234111964702606,0.0,0.0,0.0,0.0,0.0,0.0,0.0,0.0,0.0
1606827792294694576,1783828,1606827792285042305,imu_link,0.08098900318145752,0.012967082671821117,0.20941795408725739,0.9743801951408386,0.0,0.0,0.0,0.0,0.0,0.0,0.0,0.0,0.0,24.218727111816406,-0.4956929385662079,9.396479606628418,0.0,0.0,0.0,0.0,0.0,0.0,0.0,0.0,0.0,-0.014492673799395561,0.055202145129442215,0.3234111964702606,0.0,0.0,0.0,0.0,0.0,0.0,0.0,0.0,0.0
1606827792294707435,1783829,1606827792285133840,imu_link,0.08098837733268738,0.012964298017323017,0.2094208002090454,0.9743796586990356,0.0,0.0,0.0,0.0,0.0,0.0,0.0,0.0,0.0,24.21903419494629,-0.4960159957408905,9.396340370178223,0.0,0.0,0.0,0.0,0.0,0.0,0.0,0.0,0.0,-0.005200373474508524,0.048097092658281326,0.29864972829818726,0.0,0.0,0.0,0.0,0.0,0.0,0.0,0.0,0.0
1606827792294724707,1783830,1606827792285249134,imu_link,0.08098837733268738,0.012964298017323017,0.2094208002090454,0.9743796586990356,0.0,0.0,0.0,0.0,0.0,0.0,0.0,0.0,0.0,24.21903419494629,-0.4960159957408905,9.396340370178223,0.0,0.0,0.0,0.0,0.0,0.0,0.0,0.0,0.0,-0.005200373474508524,0.048097092658281326,0.29864972829818726,0.0,0.0,0.0,0.0,0.0,0.0,0.0,0.0,0.0
1606827792294731932,1783831,1606827792285340447,imu_link,0.08098948746919632,0.012965724803507328,0.20941764116287231,0.9743802547454834,0.0,0.0,0.0,0.0,0.0,0.0,0.0,0.0,0.0,24.21867561340332,-0.4958532452583313,9.396501541137695,0.0,0.0,0.0,0.0,0.0,0.0,0.0,0.0,0.0,0.012411863543093204,0.041825421154499054,0.3139018416404724,0.0,0.0,0.0,0.0,0.0,0.0,0.0,0.0,0.0
1606827792294744529,1783832,1606827792285411040,imu_link,0.08098948746919632,0.012965724803507328,0.20941764116287231,0.9743802547454834,0.0,0.0,0.0,0.0,0.0,0.0,0.0,0.0,0.0,24.21867561340332,-0.4958532452583313,9.396501541137695,0.0,0.0,0.0,0.0,0.0,0.0,0.0,0.0,0.0,0.012411863543093204,0.041825421154499054,0.3139018416404724,0.0,0.0,0.0,0.0,0.0,0.0,0.0,0.0,0.0
1606827792294754887,1783833,1606827792285483854,imu_link,0.08099253475666046,0.012965706177055836,0.20941530168056488,0.9743804931640625,0.0,0.0,0.0,0.0,0.0,0.0,0.0,0.0,0.0,24.218400955200195,-0.49590617418289185,9.396844863891602,0.0,0.0,0.0,0.0,0.0,0.0,0.0,0.0,0.0,0.023465007543563843,0.04743780568242073,0.3403453528881073,0.0,0.0,0.0,0.0,0.0,0.0,0.0,0.0,0.0
1606827792294778798,1783834,1606827792285552554,imu_link,0.08099253475666046,0.012965706177055836,0.20941530168056488,0.9743804931640625,0.0,0.0,0.0,0.0,0.0,0.0,0.0,0.0,0.0,24.218400955200195,-0.49590617418289185,9.396844863891602,0.0,0.0,0.0,0.0,0.0,0.0,0.0,0.0,0.0,0.023465007543563843,0.04743780568242073,0.3403453528881073,0.0,0.0,0.0,0.0,0.0,0.0,0.0,0.0,0.0
1606827792305193157,1783835,1606827792297490911,imu_link,0.08099278807640076,0.012963468208909035,0.20941545069217682,0.9743804931640625,0.0,0.0,0.0,0.0,0.0,0.0,0.0,0.0,0.0,24.21839714050293,-0.49616357684135437,9.396820068359375,0.0,0.0,0.0,0.0,0.0,0.0,0.0,0.0,0.0,0.025464165955781937,0.05314517393708229,0.3302789628505707,0.0,0.0,0.0,0.0,0.0,0.0,0.0,0.0,0.0
1606827792307589190,1783836,1606827792297633871,imu_link,0.08099278807640076,0.012963468208909035,0.20941545069217682,0.9743804931640625,0.0,0.0,0.0,0.0,0.0,0.0,0.0,0.0,0.0,24.21839714050293,-0.49616357684135437,9.396820068359375,0.0,0.0,0.0,0.0,0.0,0.0,0.0,0.0,0.0,0.025464165955781937,0.05314517393708229,0.3302789628505707,0.0,0.0,0.0,0.0,0.0,0.0,0.0,0.0,0.0
1606827792307611364,1783837,1606827792297817710,imu_link,0.08099183440208435,0.012964528985321522,0.20941385626792908,0.9743809103965759,0.0,0.0,0.0,0.0,0.0,0.0,0.0,0.0,0.0,24.21822166442871,-0.49600693583488464,9.396738052368164,0.0,0.0,0.0,0.0,0.0,0.0,0.0,0.0,0.0,0.016346460208296776,0.046750329434871674,0.3389255702495575,0.0,0.0,0.0,0.0,0.0,0.0,0.0,0.0,0.0
1606827792307634231,1783838,1606827792297921149,imu_link,0.08099183440208435,0.012964528985321522,0.20941385626792908,0.9743809103965759,0.0,0.0,0.0,0.0,0.0,0.0,0.0,0.0,0.0,24.21822166442871,-0.49600693583488464,9.396738052368164,0.0,0.0,0.0,0.0,0.0,0.0,0.0,0.0,0.0,0.016346460208296776,0.046750329434871674,0.3389255702495575,0.0,0.0,0.0,0.0,0.0,0.0,0.0,0.0,0.0
1606827792307650943,1783839,1606827792297999470,imu_link,0.08099193871021271,0.01296454668045044,0.20941424369812012,0.9743807315826416,0.0,0.0,0.0,0.0,0.0,0.0,0.0,0.0,0.0,24.2182674407959,-0.4960111975669861,9.396750450134277,0.0,0.0,0.0,0.0,0.0,0.0,0.0,0.0,0.0,0.014228740707039833,0.059340544044971466,0.332589715719223,0.0,0.0,0.0,0.0,0.0,0.0,0.0,0.0,0.0
1606827792307697480,1783840,1606827792298099290,imu_link,0.08099193871021271,0.01296454668045044,0.20941424369812012,0.9743807315826416,0.0,0.0,0.0,0.0,0.0,0.0,0.0,0.0,0.0,24.2182674407959,-0.4960111975669861,9.396750450134277,0.0,0.0,0.0,0.0,0.0,0.0,0.0,0.0,0.0,0.014228740707039833,0.059340544044971466,0.332589715719223,0.0,0.0,0.0,0.0,0.0,0.0,0.0,0.0,0.0
1606827792307708452,1783841,1606827792298228438,imu_link,0.0809907615184784,0.012967607006430626,0.20941254496574402,0.9743812084197998,0.0,0.0,0.0,0.0,0.0,0.0,0.0,0.0,0.0,24.218101501464844,-0.4956248700618744,9.396693229675293,0.0,0.0,0.0,0.0,0.0,0.0,0.0,0.0,0.0,-0.00037570809945464134,0.06560758501291275,0.3182767331600189,0.0,0.0,0.0,0.0,0.0,0.0,0.0,0.0,0.0
1606827792307723669,1783842,1606827792298315083,imu_link,0.0809907615184784,0.012967607006430626,0.20941254496574402,0.9743812084197998,0.0,0.0,0.0,0.0,0.0,0.0,0.0,0.0,0.0,24.218101501464844,-0.4956248700618744,9.396693229675293,0.0,0.0,0.0,0.0,0.0,0.0,0.0,0.0,0.0,-0.00037570809945464134,0.06560758501291275,0.3182767331600189,0.0,0.0,0.0,0.0,0.0,0.0,0.0,0.0,0.0
1606827792307728670,1783843,1606827792298406780,imu_link,0.08098997175693512,0.012967443093657494,0.20940980315208435,0.9743818640708923,0.0,0.0,0.0,0.0,0.0,0.0,0.0,0.0,0.0,24.217777252197266,-0.4955977499485016,9.396601676940918,0.0,0.0,0.0,0.0,0.0,0.0,0.0,0.0,0.0,0.0021383126731961966,0.05094383656978607,0.2993573844432831,0.0,0.0,0.0,0.0,0.0,0.0,0.0,0.0,0.0
1606827792307737532,1783844,1606827792298489040,imu_link,0.08098997175693512,0.012967443093657494,0.20940980315208435,0.9743818640708923,0.0,0.0,0.0,0.0,0.0,0.0,0.0,0.0,0.0,24.217777252197266,-0.4955977499485016,9.396601676940918,0.0,0.0,0.0,0.0,0.0,0.0,0.0,0.0,0.0,0.0021383126731961966,0.05094383656978607,0.2993573844432831,0.0,0.0,0.0,0.0,0.0,0.0,0.0,0.0,0.0
1606827792308916430,1783845,1606827792298621967,imu_link,0.08098886907100677,0.012969215400516987,0.20940794050693512,0.9743823409080505,0.0,0.0,0.0,0.0,0.0,0.0,0.0,0.0,0.0,24.217578887939453,-0.49535539746284485,9.396520614624023,0.0,0.0,0.0,0.0,0.0,0.0,0.0,0.0,0.0,0.008505330421030521,0.048571497201919556,0.2860436737537384,0.0,0.0,0.0,0.0,0.0,0.0,0.0,0.0,0.0
1606827792318894428,1783846,1606827792310985658,imu_link,0.08098886907100677,0.012969215400516987,0.20940794050693512,0.9743823409080505,0.0,0.0,0.0,0.0,0.0,0.0,0.0,0.0,0.0,24.217578887939453,-0.49535539746284485,9.396520614624023,0.0,0.0,0.0,0.0,0.0,0.0,0.0,0.0,0.0,0.008505330421030521,0.048571497201919556,0.2860436737537384,0.0,0.0,0.0,0.0,0.0,0.0,0.0,0.0,0.0
1606827792320811491,1783847,1606827792311122379,imu_link,0.08098877966403961,0.01297103613615036,0.20940826833248138,0.9743822813034058,0.0,0.0,0.0,0.0,0.0,0.0,0.0,0.0,0.0,24.217632293701172,-0.4951530396938324,9.396553993225098,0.0,0.0,0.0,0.0,0.0,0.0,0.0,0.0,0.0,0.0030466588214039803,0.06021294370293617,0.2876489460468292,0.0,0.0,0.0,0.0,0.0,0.0,0.0,0.0,0.0
1606827792320840023,1783848,1606827792311340076,imu_link,0.08098877966403961,0.01297103613615036,0.20940826833248138,0.9743822813034058,0.0,0.0,0.0,0.0,0.0,0.0,0.0,0.0,0.0,24.217632293701172,-0.4951530396938324,9.396553993225098,0.0,0.0,0.0,0.0,0.0,0.0,0.0,0.0,0.0,0.0030466588214039803,0.06021294370293617,0.2876489460468292,0.0,0.0,0.0,0.0,0.0,0.0,0.0,0.0,0.0
1606827792320860306,1783849,1606827792311423749,imu_link,0.08098726719617844,0.01297004148364067,0.2094051092863083,0.9743831157684326,0.0,0.0,0.0,0.0,0.0,0.0,0.0,0.0,0.0,24.217252731323242,-0.4951973259449005,9.396360397338867,0.0,0.0,0.0,0.0,0.0,0.0,0.0,0.0,0.0,0.005645744036883116,0.05184340476989746,0.2958592176437378,0.0,0.0,0.0,0.0,0.0,0.0,0.0,0.0,0.0
1606827792320866061,1783850,1606827792311504025,imu_link,0.08098726719617844,0.01297004148364067,0.2094051092863083,0.9743831157684326,0.0,0.0,0.0,0.0,0.0,0.0,0.0,0.0,0.0,24.217252731323242,-0.4951973259449005,9.396360397338867,0.0,0.0,0.0,0.0,0.0,0.0,0.0,0.0,0.0,0.005645744036883116,0.05184340476989746,0.2958592176437378,0.0,0.0,0.0,0.0,0.0,0.0,0.0,0.0,0.0
1606827792320879340,1783851,1606827792311625991,imu_link,0.08098603785037994,0.012970579788088799,0.2094038873910904,0.9743834733963013,0.0,0.0,0.0,0.0,0.0,0.0,0.0,0.0,0.0,24.217117309570312,-0.4950958788394928,9.396236419677734,0.0,0.0,0.0,0.0,0.0,0.0,0.0,0.0,0.0,-0.00196463568136096,0.04473879933357239,0.29652056097984314,0.0,0.0,0.0,0.0,0.0,0.0,0.0,0.0,0.0
1606827792320966412,1783852,1606827792311709153,imu_link,0.08098603785037994,0.012970579788088799,0.2094038873910904,0.9743834733963013,0.0,0.0,0.0,0.0,0.0,0.0,0.0,0.0,0.0,24.217117309570312,-0.4950958788394928,9.396236419677734,0.0,0.0,0.0,0.0,0.0,0.0,0.0,0.0,0.0,-0.00196463568136096,0.04473879933357239,0.29652056097984314,0.0,0.0,0.0,0.0,0.0,0.0,0.0,0.0,0.0
1606827792320986318,1783853,1606827792311788526,imu_link,0.08098595589399338,0.012969471514225006,0.20940187573432922,0.9743838906288147,0.0,0.0,0.0,0.0,0.0,0.0,0.0,0.0,0.0,24.21687126159668,-0.4951982796192169,9.396202087402344,0.0,0.0,0.0,0.0,0.0,0.0,0.0,0.0,0.0,0.005849254317581654,0.05280255898833275,0.29301905632019043,0.0,0.0,0.0,0.0,0.0,0.0,0.0,0.0,0.0
1606827792320995025,1783854,1606827792311933130,imu_link,0.08098595589399338,0.012969471514225006,0.20940187573432922,0.9743838906288147,0.0,0.0,0.0,0.0,0.0,0.0,0.0,0.0,0.0,24.21687126159668,-0.4951982796192169,9.396202087402344,0.0,0.0,0.0,0.0,0.0,0.0,0.0,0.0,0.0,0.005849254317581654,0.05280255898833275,0.29301905632019043,0.0,0.0,0.0,0.0,0.0,0.0,0.0,0.0,0.0
1606827792321013134,1783855,1606827792312022682,imu_link,0.08098528534173965,0.012968023307621479,0.20940159261226654,0.974384069442749,0.0,0.0,0.0,0.0,0.0,0.0,0.0,0.0,0.0,24.21682357788086,-0.4953409731388092,9.396092414855957,0.0,0.0,0.0,0.0,0.0,0.0,0.0,0.0,0.0,0.0026789058465510607,0.04349691420793533,0.3166947066783905,0.0,0.0,0.0,0.0,0.0,0.0,0.0,0.0,0.0
1606827792360941627,1783856,1606827792324830803,imu_link,0.08098528534173965,0.012968023307621479,0.20940159261226654,0.974384069442749,0.0,0.0,0.0,0.0,0.0,0.0,0.0,0.0,0.0,24.21682357788086,-0.4953409731388092,9.396092414855957,0.0,0.0,0.0,0.0,0.0,0.0,0.0,0.0,0.0,0.0026789058465510607,0.04349691420793533,0.3166947066783905,0.0,0.0,0.0,0.0,0.0,0.0,0.0,0.0,0.0
1606827792360978997,1783857,1606827792324959054,imu_link,0.0809866189956665,0.012970752082765102,0.20940668880939484,0.974382758140564,0.0,0.0,0.0,0.0,0.0,0.0,0.0,0.0,0.0,24.21744728088379,-0.49511754512786865,9.396305084228516,0.0,0.0,0.0,0.0,0.0,0.0,0.0,0.0,0.0,-0.0033514564856886864,0.05363382771611214,0.34403470158576965,0.0,0.0,0.0,0.0,0.0,0.0,0.0,0.0,0.0
1606827792361001626,1783858,1606827792325132059,imu_link,0.0809866189956665,0.012970752082765102,0.20940668880939484,0.974382758140564,0.0,0.0,0.0,0.0,0.0,0.0,0.0,0.0,0.0,24.21744728088379,-0.49511754512786865,9.396305084228516,0.0,0.0,0.0,0.0,0.0,0.0,0.0,0.0,0.0,-0.0033514564856886864,0.05363382771611214,0.34403470158576965,0.0,0.0,0.0,0.0,0.0,0.0,0.0,0.0,0.0
1606827792361019551,1783859,1606827792325212870,imu_link,0.08098724484443665,0.012971417978405952,0.209406316280365,0.9743828177452087,0.0,0.0,0.0,0.0,0.0,0.0,0.0,0.0,0.0,24.217405319213867,-0.495054692029953,9.396390914916992,0.0,0.0,0.0,0.0,0.0,0.0,0.0,0.0,0.0,0.008270494639873505,0.055944088846445084,0.349159300327301,0.0,0.0,0.0,0.0,0.0,0.0,0.0,0.0,0.0
1606827792361107750,1783860,1606827792325290123,imu_link,0.08098724484443665,0.012971417978405952,0.209406316280365,0.9743828177452087,0.0,0.0,0.0,0.0,0.0,0.0,0.0,0.0,0.0,24.217405319213867,-0.495054692029953,9.396390914916992,0.0,0.0,0.0,0.0,0.0,0.0,0.0,0.0,0.0,0.008270494639873505,0.055944088846445084,0.349159300327301,0.0,0.0,0.0,0.0,0.0,0.0,0.0,0.0,0.0
1606827792361128578,1783861,1606827792325386917,imu_link,0.08098910003900528,0.012973956763744354,0.20940928161144257,0.9743819832801819,0.0,0.0,0.0,0.0,0.0,0.0,0.0,0.0,0.0,24.217777252197266,-0.49484434723854065,9.396660804748535,0.0,0.0,0.0,0.0,0.0,0.0,0.0,0.0,0.0,0.006448741070926189,0.05427848547697067,0.3321676254272461,0.0,0.0,0.0,0.0,0.0,0.0,0.0,0.0,0.0
1606827792361147173,1783862,1606827792325486877,imu_link,0.08098910003900528,0.012973956763744354,0.20940928161144257,0.9743819832801819,0.0,0.0,0.0,0.0,0.0,0.0,0.0,0.0,0.0,24.217777252197266,-0.49484434723854065,9.396660804748535,0.0,0.0,0.0,0.0,0.0,0.0,0.0,0.0,0.0,0.006448741070926189,0.05427848547697067,0.3321676254272461,0.0,0.0,0.0,0.0,0.0,0.0,0.0,0.0,0.0
1606827792361180787,1783863,1606827792325564046,imu_link,0.08098902553319931,0.012972963973879814,0.20940867066383362,0.9743821620941162,0.0,0.0,0.0,0.0,0.0,0.0,0.0,0.0,0.0,24.217697143554688,-0.49494776129722595,9.396628379821777,0.0,0.0,0.0,0.0,0.0,0.0,0.0,0.0,0.0,0.003495106240734458,0.062035903334617615,0.32353100180625916,0.0,0.0,0.0,0.0,0.0,0.0,0.0,0.0,0.0
1606827792361195065,1783864,1606827792325650034,imu_link,0.08098902553319931,0.012972963973879814,0.20940867066383362,0.9743821620941162,0.0,0.0,0.0,0.0,0.0,0.0,0.0,0.0,0.0,24.217697143554688,-0.49494776129722595,9.396628379821777,0.0,0.0,0.0,0.0,0.0,0.0,0.0,0.0,0.0,0.003495106240734458,0.062035903334617615,0.32353100180625916,0.0,0.0,0.0,0.0,0.0,0.0,0.0,0.0,0.0
1606827792361202632,1783865,1606827792325729157,imu_link,0.08098851889371872,0.012971794232726097,0.20941071212291718,0.9743817448616028,0.0,0.0,0.0,0.0,0.0,0.0,0.0,0.0,0.0,24.217924118041992,-0.49508553743362427,9.396541595458984,0.0,0.0,0.0,0.0,0.0,0.0,0.0,0.0,0.0,-0.0021958162542432547,0.044685665518045425,0.3058772683143616,0.0,0.0,0.0,0.0,0.0,0.0,0.0,0.0,0.0
1606827792361223457,1783866,1606827792325811507,imu_link,0.08098851889371872,0.012971794232726097,0.20941071212291718,0.9743817448616028,0.0,0.0,0.0,0.0,0.0,0.0,0.0,0.0,0.0,24.217924118041992,-0.49508553743362427,9.396541595458984,0.0,0.0,0.0,0.0,0.0,0.0,0.0,0.0,0.0,-0.0021958162542432547,0.044685665518045425,0.3058772683143616,0.0,0.0,0.0,0.0,0.0,0.0,0.0,0.0,0.0
1606827792361232018,1783867,1606827792338329123,imu_link,0.08098749071359634,0.012975751422345638,0.20941056311130524,0.9743818044662476,0.0,0.0,0.0,0.0,0.0,0.0,0.0,0.0,0.0,24.217945098876953,-0.4946175515651703,9.396520614624023,0.0,0.0,0.0,0.0,0.0,0.0,0.0,0.0,0.0,-0.005014912690967321,0.04275454953312874,0.30301111936569214,0.0,0.0,0.0,0.0,0.0,0.0,0.0,0.0,0.0
1606827792361240029,1783868,1606827792338493934,imu_link,0.08098749071359634,0.012975751422345638,0.20941056311130524,0.9743818044662476,0.0,0.0,0.0,0.0,0.0,0.0,0.0,0.0,0.0,24.217945098876953,-0.4946175515651703,9.396520614624023,0.0,0.0,0.0,0.0,0.0,0.0,0.0,0.0,0.0,-0.005014912690967321,0.04275454953312874,0.30301111936569214,0.0,0.0,0.0,0.0,0.0,0.0,0.0,0.0,0.0
1606827792361247518,1783869,1606827792338591193,imu_link,0.0809876099228859,0.012974193319678307,0.20941261947155,0.9743813872337341,0.0,0.0,0.0,0.0,0.0,0.0,0.0,0.0,0.0,24.218170166015625,-0.4948141574859619,9.396495819091797,0.0,0.0,0.0,0.0,0.0,0.0,0.0,0.0,0.0,0.001709211035631597,0.05098806321620941,0.32305392622947693,0.0,0.0,0.0,0.0,0.0,0.0,0.0,0.0,0.0
1606827792363643404,1783870,1606827792338672025,imu_link,0.0809876099228859,0.012974193319678307,0.20941261947155,0.9743813872337341,0.0,0.0,0.0,0.0,0.0,0.0,0.0,0.0,0.0,24.218170166015625,-0.4948141574859619,9.396495819091797,0.0,0.0,0.0,0.0,0.0,0.0,0.0,0.0,0.0,0.001709211035631597,0.05098806321620941,0.32305392622947693,0.0,0.0,0.0,0.0,0.0,0.0,0.0,0.0,0.0
1606827792363658859,1783871,1606827792338752736,imu_link,0.08098715543746948,0.012973255477845669,0.20941253006458282,0.9743814468383789,0.0,0.0,0.0,0.0,0.0,0.0,0.0,0.0,0.0,24.218149185180664,-0.49490711092948914,9.39642333984375,0.0,0.0,0.0,0.0,0.0,0.0,0.0,0.0,0.0,0.00820712186396122,0.044446010142564774,0.33136066794395447,0.0,0.0,0.0,0.0,0.0,0.0,0.0,0.0,0.0
1606827792363675734,1783872,1606827792338838138,imu_link,0.08098715543746948,0.012973255477845669,0.20941253006458282,0.9743814468383789,0.0,0.0,0.0,0.0,0.0,0.0,0.0,0.0,0.0,24.218149185180664,-0.49490711092948914,9.39642333984375,0.0,0.0,0.0,0.0,0.0,0.0,0.0,0.0,0.0,0.00820712186396122,0.044446010142564774,0.33136066794395447,0.0,0.0,0.0,0.0,0.0,0.0,0.0,0.0,0.0
1606827792363684530,1783873,1606827792339006372,imu_link,0.080990269780159,0.012974911369383335,0.20941275358200073,0.974381148815155,0.0,0.0,0.0,0.0,0.0,0.0,0.0,0.0,0.0,24.218191146850586,-0.49479940533638,9.39681339263916,0.0,0.0,0.0,0.0,0.0,0.0,0.0,0.0,0.0,0.00912092812359333,0.028046954423189163,0.3418388068675995,0.0,0.0,0.0,0.0,0.0,0.0,0.0,0.0,0.0
1606827792363750704,1783874,1606827792339094515,imu_link,0.080990269780159,0.012974911369383335,0.20941275358200073,0.974381148815155,0.0,0.0,0.0,0.0,0.0,0.0,0.0,0.0,0.0,24.218191146850586,-0.49479940533638,9.39681339263916,0.0,0.0,0.0,0.0,0.0,0.0,0.0,0.0,0.0,0.00912092812359333,0.028046954423189163,0.3418388068675995,0.0,0.0,0.0,0.0,0.0,0.0,0.0,0.0,0.0
1606827792363848687,1783875,1606827792339178098,imu_link,0.0809902548789978,0.012975217774510384,0.20941366255283356,0.9743809103965759,0.0,0.0,0.0,0.0,0.0,0.0,0.0,0.0,0.0,24.218299865722656,-0.4947736859321594,9.396818161010742,0.0,0.0,0.0,0.0,0.0,0.0,0.0,0.0,0.0,0.011879848316311836,0.0410313755273819,0.31308791041374207,0.0,0.0,0.0,0.0,0.0,0.0,0.0,0.0,0.0
1606827792363902196,1783876,1606827792339265049,imu_link,0.0809902548789978,0.012975217774510384,0.20941366255283356,0.9743809103965759,0.0,0.0,0.0,0.0,0.0,0.0,0.0,0.0,0.0,24.218299865722656,-0.4947736859321594,9.396818161010742,0.0,0.0,0.0,0.0,0.0,0.0,0.0,0.0,0.0,0.011879848316311836,0.0410313755273819,0.31308791041374207,0.0,0.0,0.0,0.0,0.0,0.0,0.0,0.0,0.0
1606827792363918233,1783877,1606827792339381718,imu_link,0.0809900164604187,0.012978562153875828,0.20941530168056488,0.9743805527687073,0.0,0.0,0.0,0.0,0.0,0.0,0.0,0.0,0.0,24.218523025512695,-0.4944102168083191,9.396870613098145,0.0,0.0,0.0,0.0,0.0,0.0,0.0,0.0,0.0,0.02643659897148609,0.06721433252096176,0.29096531867980957,0.0,0.0,0.0,0.0,0.0,0.0,0.0,0.0,0.0
1606827792363946816,1783878,1606827792352086145,imu_link,0.0809900164604187,0.012978562153875828,0.20941530168056488,0.9743805527687073,0.0,0.0,0.0,0.0,0.0,0.0,0.0,0.0,0.0,24.218523025512695,-0.4944102168083191,9.396870613098145,0.0,0.0,0.0,0.0,0.0,0.0,0.0,0.0,0.0,0.02643659897148609,0.06721433252096176,0.29096531867980957,0.0,0.0,0.0,0.0,0.0,0.0,0.0,0.0,0.0
1606827792363986189,1783879,1606827792352226900,imu_link,0.0809895247220993,0.012979638762772083,0.20941443741321564,0.9743807315826416,0.0,0.0,0.0,0.0,0.0,0.0,0.0,0.0,0.0,24.218433380126953,-0.49426987767219543,9.396841049194336,0.0,0.0,0.0,0.0,0.0,0.0,0.0,0.0,0.0,0.021842313930392265,0.05576398968696594,0.32551634311676025,0.0,0.0,0.0,0.0,0.0,0.0,0.0,0.0,0.0
1606827792364003063,1783880,1606827792352405147,imu_link,0.0809895247220993,0.012979638762772083,0.20941443741321564,0.9743807315826416,0.0,0.0,0.0,0.0,0.0,0.0,0.0,0.0,0.0,24.218433380126953,-0.49426987767219543,9.396841049194336,0.0,0.0,0.0,0.0,0.0,0.0,0.0,0.0,0.0,0.021842313930392265,0.05576398968696594,0.32551634311676025,0.0,0.0,0.0,0.0,0.0,0.0,0.0,0.0,0.0
1606827792364019833,1783881,1606827792352504491,imu_link,0.08098969608545303,0.012980885803699493,0.20941053330898285,0.9743815660476685,0.0,0.0,0.0,0.0,0.0,0.0,0.0,0.0,0.0,24.217988967895508,-0.49409741163253784,9.396892547607422,0.0,0.0,0.0,0.0,0.0,0.0,0.0,0.0,0.0,0.0017669226508587599,0.04090641066431999,0.33336013555526733,0.0,0.0,0.0,0.0,0.0,0.0,0.0,0.0,0.0
1606827792364049772,1783882,1606827792352598914,imu_link,0.08098969608545303,0.012980885803699493,0.20941053330898285,0.9743815660476685,0.0,0.0,0.0,0.0,0.0,0.0,0.0,0.0,0.0,24.217988967895508,-0.49409741163253784,9.396892547607422,0.0,0.0,0.0,0.0,0.0,0.0,0.0,0.0,0.0,0.0017669226508587599,0.04090641066431999,0.33336013555526733,0.0,0.0,0.0,0.0,0.0,0.0,0.0,0.0,0.0
1606827792364064835,1783883,1606827792352703966,imu_link,0.08099116384983063,0.012981701642274857,0.20940932631492615,0.974381685256958,0.0,0.0,0.0,0.0,0.0,0.0,0.0,0.0,0.0,24.217853546142578,-0.49403005838394165,9.397076606750488,0.0,0.0,0.0,0.0,0.0,0.0,0.0,0.0,0.0,-0.00497724674642086,0.05704975500702858,0.33263054490089417,0.0,0.0,0.0,0.0,0.0,0.0,0.0,0.0,0.0
1606827792364082821,1783884,1606827792352779175,imu_link,0.08099116384983063,0.012981701642274857,0.20940932631492615,0.974381685256958,0.0,0.0,0.0,0.0,0.0,0.0,0.0,0.0,0.0,24.217853546142578,-0.49403005838394165,9.397076606750488,0.0,0.0,0.0,0.0,0.0,0.0,0.0,0.0,0.0,-0.00497724674642086,0.05704975500702858,0.33263054490089417,0.0,0.0,0.0,0.0,0.0,0.0,0.0,0.0,0.0
1606827792364103776,1783885,1606827792352863605,imu_link,0.08099227398633957,0.012980028986930847,0.20940472185611725,0.9743826389312744,0.0,0.0,0.0,0.0,0.0,0.0,0.0,0.0,0.0,24.21729850769043,-0.49419933557510376,9.397164344787598,0.0,0.0,0.0,0.0,0.0,0.0,0.0,0.0,0.0,-0.014075564220547676,0.06689975410699844,0.34779974818229675,0.0,0.0,0.0,0.0,0.0,0.0,0.0,0.0,0.0
1606827792364120251,1783886,1606827792352943635,imu_link,0.08099227398633957,0.012980028986930847,0.20940472185611725,0.9743826389312744,0.0,0.0,0.0,0.0,0.0,0.0,0.0,0.0,0.0,24.21729850769043,-0.49419933557510376,9.397164344787598,0.0,0.0,0.0,0.0,0.0,0.0,0.0,0.0,0.0,-0.014075564220547676,0.06689975410699844,0.34779974818229675,0.0,0.0,0.0,0.0,0.0,0.0,0.0,0.0,0.0
1606827792365043829,1783887,1606827792353032404,imu_link,0.08099209517240524,0.012979792430996895,0.2094048708677292,0.9743825793266296,0.0,0.0,0.0,0.0,0.0,0.0,0.0,0.0,0.0,24.217317581176758,-0.4942229092121124,9.397139549255371,0.0,0.0,0.0,0.0,0.0,0.0,0.0,0.0,0.0,-0.023065978661179543,0.0504646971821785,0.3271900713443756,0.0,0.0,0.0,0.0,0.0,0.0,0.0,0.0,0.0
1606827792365073433,1783888,1606827792353116769,imu_link,0.08099209517240524,0.012979792430996895,0.2094048708677292,0.9743825793266296,0.0,0.0,0.0,0.0,0.0,0.0,0.0,0.0,0.0,24.217317581176758,-0.4942229092121124,9.397139549255371,0.0,0.0,0.0,0.0,0.0,0.0,0.0,0.0,0.0,-0.023065978661179543,0.0504646971821785,0.3271900713443756,0.0,0.0,0.0,0.0,0.0,0.0,0.0,0.0,0.0
1606827792372843149,1783889,1606827792365135143,imu_link,0.08099424093961716,0.01297244057059288,0.20940609276294708,0.9743822813034058,0.0,0.0,0.0,0.0,0.0,0.0,0.0,0.0,0.0,24.21738624572754,-0.4951072037220001,9.397202491760254,0.0,0.0,0.0,0.0,0.0,0.0,0.0,0.0,0.0,-0.015188420191407204,0.04720229282975197,0.3006155788898468,0.0,0.0,0.0,0.0,0.0,0.0,0.0,0.0,0.0
1606827792374042791,1783890,1606827792365298776,imu_link,0.08099424093961716,0.01297244057059288,0.20940609276294708,0.9743822813034058,0.0,0.0,0.0,0.0,0.0,0.0,0.0,0.0,0.0,24.21738624572754,-0.4951072037220001,9.397202491760254,0.0,0.0,0.0,0.0,0.0,0.0,0.0,0.0,0.0,-0.015188420191407204,0.04720229282975197,0.3006155788898468,0.0,0.0,0.0,0.0,0.0,0.0,0.0,0.0,0.0
1606827792374077368,1783891,1606827792365429643,imu_link,0.08099453151226044,0.012972302734851837,0.20940618216991425,0.974382221698761,0.0,0.0,0.0,0.0,0.0,0.0,0.0,0.0,0.0,24.217397689819336,-0.49513036012649536,9.397232055664062,0.0,0.0,0.0,0.0,0.0,0.0,0.0,0.0,0.0,-0.0060788290575146675,0.043052539229393005,0.305186927318573,0.0,0.0,0.0,0.0,0.0,0.0,0.0,0.0,0.0
1606827792374096879,1783892,1606827792365523284,imu_link,0.08099453151226044,0.012972302734851837,0.20940618216991425,0.974382221698761,0.0,0.0,0.0,0.0,0.0,0.0,0.0,0.0,0.0,24.217397689819336,-0.49513036012649536,9.397232055664062,0.0,0.0,0.0,0.0,0.0,0.0,0.0,0.0,0.0,-0.0060788290575146675,0.043052539229393005,0.305186927318573,0.0,0.0,0.0,0.0,0.0,0.0,0.0,0.0,0.0
1606827792374119371,1783893,1606827792365603564,imu_link,0.08099522441625595,0.012970657087862492,0.20940625667572021,0.9743821620941162,0.0,0.0,0.0,0.0,0.0,0.0,0.0,0.0,0.0,24.217388153076172,-0.4953314960002899,9.397272109985352,0.0,0.0,0.0,0.0,0.0,0.0,0.0,0.0,0.0,-0.007281429134309292,0.04143304005265236,0.3110954761505127,0.0,0.0,0.0,0.0,0.0,0.0,0.0,0.0,0.0
1606827792374162363,1783894,1606827792365704618,imu_link,0.08099522441625595,0.012970657087862492,0.20940625667572021,0.9743821620941162,0.0,0.0,0.0,0.0,0.0,0.0,0.0,0.0,0.0,24.217388153076172,-0.4953314960002899,9.397272109985352,0.0,0.0,0.0,0.0,0.0,0.0,0.0,0.0,0.0,-0.007281429134309292,0.04143304005265236,0.3110954761505127,0.0,0.0,0.0,0.0,0.0,0.0,0.0,0.0,0.0
1606827792374202163,1783895,1606827792365795603,imu_link,0.08099593967199326,0.012973327189683914,0.2094050794839859,0.9743823409080505,0.0,0.0,0.0,0.0,0.0,0.0,0.0,0.0,0.0,24.21727752685547,-0.4950394332408905,9.397415161132812,0.0,0.0,0.0,0.0,0.0,0.0,0.0,0.0,0.0,-0.011933616362512112,0.04775039851665497,0.31461280584335327,0.0,0.0,0.0,0.0,0.0,0.0,0.0,0.0,0.0
1606827792374221041,1783896,1606827792365911255,imu_link,0.08099593967199326,0.012973327189683914,0.2094050794839859,0.9743823409080505,0.0,0.0,0.0,0.0,0.0,0.0,0.0,0.0,0.0,24.21727752685547,-0.4950394332408905,9.397415161132812,0.0,0.0,0.0,0.0,0.0,0.0,0.0,0.0,0.0,-0.011933616362512112,0.04775039851665497,0.31461280584335327,0.0,0.0,0.0,0.0,0.0,0.0,0.0,0.0,0.0
1606827792374238064,1783897,1606827792365988503,imu_link,0.0809970274567604,0.012971690855920315,0.20940671861171722,0.9743819236755371,0.0,0.0,0.0,0.0,0.0,0.0,0.0,0.0,0.0,24.217453002929688,-0.4952640235424042,9.39749813079834,0.0,0.0,0.0,0.0,0.0,0.0,0.0,0.0,0.0,-0.017307795584201813,0.048759639263153076,0.3147462010383606,0.0,0.0,0.0,0.0,0.0,0.0,0.0,0.0,0.0
1606827792374254230,1783898,1606827792366079613,imu_link,0.0809970274567604,0.012971690855920315,0.20940671861171722,0.9743819236755371,0.0,0.0,0.0,0.0,0.0,0.0,0.0,0.0,0.0,24.217453002929688,-0.4952640235424042,9.39749813079834,0.0,0.0,0.0,0.0,0.0,0.0,0.0,0.0,0.0,-0.017307795584201813,0.048759639263153076,0.3147462010383606,0.0,0.0,0.0,0.0,0.0,0.0,0.0,0.0,0.0
1606827792386036093,1783899,1606827792378417866,imu_link,0.08099836856126785,0.012970158830285072,0.209404855966568,0.974382221698761,0.0,0.0,0.0,0.0,0.0,0.0,0.0,0.0,0.0,24.217220306396484,-0.49544963240623474,9.397612571716309,0.0,0.0,0.0,0.0,0.0,0.0,0.0,0.0,0.0,0.00018141139298677444,0.06610048562288284,0.3037613332271576,0.0,0.0,0.0,0.0,0.0,0.0,0.0,0.0,0.0
1606827792387807809,1783900,1606827792378549574,imu_link,0.08099836856126785,0.012970158830285072,0.209404855966568,0.974382221698761,0.0,0.0,0.0,0.0,0.0,0.0,0.0,0.0,0.0,24.217220306396484,-0.49544963240623474,9.397612571716309,0.0,0.0,0.0,0.0,0.0,0.0,0.0,0.0,0.0,0.00018141139298677444,0.06610048562288284,0.3037613332271576,0.0,0.0,0.0,0.0,0.0,0.0,0.0,0.0,0.0
1606827792387823424,1783901,1606827792378717352,imu_link,0.08099563419818878,0.012970366515219212,0.2094050943851471,0.9743824005126953,0.0,0.0,0.0,0.0,0.0,0.0,0.0,0.0,0.0,24.21725082397461,-0.4953627586364746,9.397311210632324,0.0,0.0,0.0,0.0,0.0,0.0,0.0,0.0,0.0,0.018635187298059464,0.07582737505435944,0.27699050307273865,0.0,0.0,0.0,0.0,0.0,0.0,0.0,0.0,0.0
1606827792387861397,1783902,1606827792378802052,imu_link,0.08099563419818878,0.012970366515219212,0.2094050943851471,0.9743824005126953,0.0,0.0,0.0,0.0,0.0,0.0,0.0,0.0,0.0,24.21725082397461,-0.4953627586364746,9.397311210632324,0.0,0.0,0.0,0.0,0.0,0.0,0.0,0.0,0.0,0.018635187298059464,0.07582737505435944,0.27699050307273865,0.0,0.0,0.0,0.0,0.0,0.0,0.0,0.0,0.0
1606827792387870362,1783903,1606827792378898455,imu_link,0.08099659532308578,0.01297014020383358,0.20940515398979187,0.9743822813034058,0.0,0.0,0.0,0.0,0.0,0.0,0.0,0.0,0.0,24.217256546020508,-0.49541184306144714,9.39741325378418,0.0,0.0,0.0,0.0,0.0,0.0,0.0,0.0,0.0,0.005594574846327305,0.0720338299870491,0.29738619923591614,0.0,0.0,0.0,0.0,0.0,0.0,0.0,0.0,0.0
1606827792387878574,1783904,1606827792378983301,imu_link,0.08099659532308578,0.01297014020383358,0.20940515398979187,0.9743822813034058,0.0,0.0,0.0,0.0,0.0,0.0,0.0,0.0,0.0,24.217256546020508,-0.49541184306144714,9.39741325378418,0.0,0.0,0.0,0.0,0.0,0.0,0.0,0.0,0.0,0.005594574846327305,0.0720338299870491,0.29738619923591614,0.0,0.0,0.0,0.0,0.0,0.0,0.0,0.0,0.0
1606827792387886838,1783905,1606827792379114208,imu_link,0.0809924378991127,0.012971000745892525,0.20939750969409943,0.9743842482566833,0.0,0.0,0.0,0.0,0.0,0.0,0.0,0.0,0.0,24.216371536254883,-0.4951421022415161,9.396970748901367,0.0,0.0,0.0,0.0,0.0,0.0,0.0,0.0,0.0,-0.005532875657081604,0.06746794283390045,0.34521833062171936,0.0,0.0,0.0,0.0,0.0,0.0,0.0,0.0,0.0
1606827792387893468,1783906,1606827792379208365,imu_link,0.0809924378991127,0.012971000745892525,0.20939750969409943,0.9743842482566833,0.0,0.0,0.0,0.0,0.0,0.0,0.0,0.0,0.0,24.216371536254883,-0.4951421022415161,9.396970748901367,0.0,0.0,0.0,0.0,0.0,0.0,0.0,0.0,0.0,-0.005532875657081604,0.06746794283390045,0.34521833062171936,0.0,0.0,0.0,0.0,0.0,0.0,0.0,0.0,0.0
1606827792390027287,1783907,1606827792379322554,imu_link,0.08099247515201569,0.012971348129212856,0.20939704775810242,0.9743843674659729,0.0,0.0,0.0,0.0,0.0,0.0,0.0,0.0,0.0,24.21632194519043,-0.49509963393211365,9.396981239318848,0.0,0.0,0.0,0.0,0.0,0.0,0.0,0.0,0.0,0.0004958740901201963,0.06180673465132713,0.3534076511859894,0.0,0.0,0.0,0.0,0.0,0.0,0.0,0.0,0.0
1606827792390038566,1783908,1606827792379473291,imu_link,0.08099247515201569,0.012971348129212856,0.20939704775810242,0.9743843674659729,0.0,0.0,0.0,0.0,0.0,0.0,0.0,0.0,0.0,24.21632194519043,-0.49509963393211365,9.396981239318848,0.0,0.0,0.0,0.0,0.0,0.0,0.0,0.0,0.0,0.0004958740901201963,0.06180673465132713,0.3534076511859894,0.0,0.0,0.0,0.0,0.0,0.0,0.0,0.0,0.0
1606827792390042816,1783909,1606827792379572490,imu_link,0.08099233359098434,0.01296926662325859,0.20939300954341888,0.9743852615356445,0.0,0.0,0.0,0.0,0.0,0.0,0.0,0.0,0.0,24.21582794189453,-0.4952898621559143,9.396918296813965,0.0,0.0,0.0,0.0,0.0,0.0,0.0,0.0,0.0,0.002921066014096141,0.07184267789125443,0.3308422863483429,0.0,0.0,0.0,0.0,0.0,0.0,0.0,0.0,0.0
1606827792399831118,1783910,1606827792392160570,imu_link,0.08099233359098434,0.01296926662325859,0.20939300954341888,0.9743852615356445,0.0,0.0,0.0,0.0,0.0,0.0,0.0,0.0,0.0,24.21582794189453,-0.4952898621559143,9.396918296813965,0.0,0.0,0.0,0.0,0.0,0.0,0.0,0.0,0.0,0.002921066014096141,0.07184267789125443,0.3308422863483429,0.0,0.0,0.0,0.0,0.0,0.0,0.0,0.0,0.0
1606827792401592147,1783911,1606827792392301756,imu_link,0.08099184185266495,0.012969530187547207,0.2093919813632965,0.9743854999542236,0.0,0.0,0.0,0.0,0.0,0.0,0.0,0.0,0.0,24.215715408325195,-0.4952387511730194,9.396870613098145,0.0,0.0,0.0,0.0,0.0,0.0,0.0,0.0,0.0,-0.000606214627623558,0.07589559257030487,0.3075908124446869,0.0,0.0,0.0,0.0,0.0,0.0,0.0,0.0,0.0
1606827792401613715,1783912,1606827792392470325,imu_link,0.08099184185266495,0.012969530187547207,0.2093919813632965,0.9743854999542236,0.0,0.0,0.0,0.0,0.0,0.0,0.0,0.0,0.0,24.215715408325195,-0.4952387511730194,9.396870613098145,0.0,0.0,0.0,0.0,0.0,0.0,0.0,0.0,0.0,-0.000606214627623558,0.07589559257030487,0.3075908124446869,0.0,0.0,0.0,0.0,0.0,0.0,0.0,0.0,0.0
1606827792401625019,1783913,1606827792392553993,imu_link,0.08099044859409332,0.012968942523002625,0.20939865708351135,0.9743842482566833,0.0,0.0,0.0,0.0,0.0,0.0,0.0,0.0,0.0,24.21648597717285,-0.49533480405807495,9.396696090698242,0.0,0.0,0.0,0.0,0.0,0.0,0.0,0.0,0.0,0.0179066713899374,0.07301665842533112,0.28948405385017395,0.0,0.0,0.0,0.0,0.0,0.0,0.0,0.0,0.0
1606827792401653010,1783914,1606827792392648651,imu_link,0.08099044859409332,0.012968942523002625,0.20939865708351135,0.9743842482566833,0.0,0.0,0.0,0.0,0.0,0.0,0.0,0.0,0.0,24.21648597717285,-0.49533480405807495,9.396696090698242,0.0,0.0,0.0,0.0,0.0,0.0,0.0,0.0,0.0,0.0179066713899374,0.07301665842533112,0.28948405385017395,0.0,0.0,0.0,0.0,0.0,0.0,0.0,0.0,0.0
1606827792401665535,1783915,1606827792392728982,imu_link,0.08099260181188583,0.012969003058969975,0.2093983292579651,0.9743841290473938,0.0,0.0,0.0,0.0,0.0,0.0,0.0,0.0,0.0,24.216449737548828,-0.4953768253326416,9.39693832397461,0.0,0.0,0.0,0.0,0.0,0.0,0.0,0.0,0.0,0.0185899306088686,0.06357165426015854,0.27897974848747253,0.0,0.0,0.0,0.0,0.0,0.0,0.0,0.0,0.0
1606827792401675598,1783916,1606827792392868053,imu_link,0.08099260181188583,0.012969003058969975,0.2093983292579651,0.9743841290473938,0.0,0.0,0.0,0.0,0.0,0.0,0.0,0.0,0.0,24.216449737548828,-0.4953768253326416,9.39693832397461,0.0,0.0,0.0,0.0,0.0,0.0,0.0,0.0,0.0,0.0185899306088686,0.06357165426015854,0.27897974848747253,0.0,0.0,0.0,0.0,0.0,0.0,0.0,0.0,0.0
1606827792401689541,1783917,1606827792392965382,imu_link,0.08098789304494858,0.012971479445695877,0.20940428972244263,0.9743831753730774,0.0,0.0,0.0,0.0,0.0,0.0,0.0,0.0,0.0,24.217172622680664,-0.49504414200782776,9.396466255187988,0.0,0.0,0.0,0.0,0.0,0.0,0.0,0.0,0.0,-0.0049946061335504055,0.05164476856589317,0.3085443675518036,0.0,0.0,0.0,0.0,0.0,0.0,0.0,0.0,0.0
1606827792401697089,1783918,1606827792393047136,imu_link,0.08098789304494858,0.012971479445695877,0.20940428972244263,0.9743831753730774,0.0,0.0,0.0,0.0,0.0,0.0,0.0,0.0,0.0,24.217172622680664,-0.49504414200782776,9.396466255187988,0.0,0.0,0.0,0.0,0.0,0.0,0.0,0.0,0.0,-0.0049946061335504055,0.05164476856589317,0.3085443675518036,0.0,0.0,0.0,0.0,0.0,0.0,0.0,0.0,0.0
1606827792403976930,1783919,1606827792393154609,imu_link,0.08098725229501724,0.012968652881681919,0.2094041258096695,0.9743832945823669,0.0,0.0,0.0,0.0,0.0,0.0,0.0,0.0,0.0,24.217126846313477,-0.4953427016735077,9.396327018737793,0.0,0.0,0.0,0.0,0.0,0.0,0.0,0.0,0.0,-0.0012239699717611074,0.059200357645750046,0.3238821029663086,0.0,0.0,0.0,0.0,0.0,0.0,0.0,0.0,0.0
1606827792403989417,1783920,1606827792393280785,imu_link,0.08098725229501724,0.012968652881681919,0.2094041258096695,0.9743832945823669,0.0,0.0,0.0,0.0,0.0,0.0,0.0,0.0,0.0,24.217126846313477,-0.4953427016735077,9.396327018737793,0.0,0.0,0.0,0.0,0.0,0.0,0.0,0.0,0.0,-0.0012239699717611074,0.059200357645750046,0.3238821029663086,0.0,0.0,0.0,0.0,0.0,0.0,0.0,0.0,0.0
1606827792413508835,1783921,1606827792405814985,imu_link,0.08098752796649933,0.012969323433935642,0.20940899848937988,0.974382221698761,0.0,0.0,0.0,0.0,0.0,0.0,0.0,0.0,0.0,24.217702865600586,-0.495321124792099,9.39637279510498,0.0,0.0,0.0,0.0,0.0,0.0,0.0,0.0,0.0,0.0063588619232177734,0.05155062675476074,0.3114891052246094,0.0,0.0,0.0,0.0,0.0,0.0,0.0,0.0,0.0
1606827792414085412,1783922,1606827792405955113,imu_link,0.08098752796649933,0.012969323433935642,0.20940899848937988,0.974382221698761,0.0,0.0,0.0,0.0,0.0,0.0,0.0,0.0,0.0,24.217702865600586,-0.495321124792099,9.39637279510498,0.0,0.0,0.0,0.0,0.0,0.0,0.0,0.0,0.0,0.0063588619232177734,0.05155062675476074,0.3114891052246094,0.0,0.0,0.0,0.0,0.0,0.0,0.0,0.0,0.0
1606827792414101478,1783923,1606827792406130964,imu_link,0.08098620921373367,0.012969941832125187,0.20941239595413208,0.9743816256523132,0.0,0.0,0.0,0.0,0.0,0.0,0.0,0.0,0.0,24.218103408813477,-0.49525293707847595,9.396236419677734,0.0,0.0,0.0,0.0,0.0,0.0,0.0,0.0,0.0,0.007091006264090538,0.04107605665922165,0.3107597231864929,0.0,0.0,0.0,0.0,0.0,0.0,0.0,0.0,0.0
1606827792414111724,1783924,1606827792406213389,imu_link,0.08098620921373367,0.012969941832125187,0.20941239595413208,0.9743816256523132,0.0,0.0,0.0,0.0,0.0,0.0,0.0,0.0,0.0,24.218103408813477,-0.49525293707847595,9.396236419677734,0.0,0.0,0.0,0.0,0.0,0.0,0.0,0.0,0.0,0.007091006264090538,0.04107605665922165,0.3107597231864929,0.0,0.0,0.0,0.0,0.0,0.0,0.0,0.0,0.0
1606827792414124803,1783925,1606827792406290176,imu_link,0.08098774403333664,0.012970165349543095,0.2094162553548813,0.974380612373352,0.0,0.0,0.0,0.0,0.0,0.0,0.0,0.0,0.0,24.218557357788086,-0.4953020215034485,9.39641284942627,0.0,0.0,0.0,0.0,0.0,0.0,0.0,0.0,0.0,-0.014394202269613743,0.05045628175139427,0.3222525417804718,0.0,0.0,0.0,0.0,0.0,0.0,0.0,0.0,0.0
1606827792415248590,1783926,1606827792406369966,imu_link,0.08098774403333664,0.012970165349543095,0.2094162553548813,0.974380612373352,0.0,0.0,0.0,0.0,0.0,0.0,0.0,0.0,0.0,24.218557357788086,-0.4953020215034485,9.39641284942627,0.0,0.0,0.0,0.0,0.0,0.0,0.0,0.0,0.0,-0.014394202269613743,0.05045628175139427,0.3222525417804718,0.0,0.0,0.0,0.0,0.0,0.0,0.0,0.0,0.0
1606827792415263886,1783927,1606827792406517015,imu_link,0.08098715543746948,0.012971792370080948,0.20941701531410217,0.9743804931640625,0.0,0.0,0.0,0.0,0.0,0.0,0.0,0.0,0.0,24.218660354614258,-0.4951134920120239,9.396384239196777,0.0,0.0,0.0,0.0,0.0,0.0,0.0,0.0,0.0,-0.02471298910677433,0.04671541973948479,0.3276561498641968,0.0,0.0,0.0,0.0,0.0,0.0,0.0,0.0,0.0
1606827792415271906,1783928,1606827792406617487,imu_link,0.08098715543746948,0.012971792370080948,0.20941701531410217,0.9743804931640625,0.0,0.0,0.0,0.0,0.0,0.0,0.0,0.0,0.0,24.218660354614258,-0.4951134920120239,9.396384239196777,0.0,0.0,0.0,0.0,0.0,0.0,0.0,0.0,0.0,-0.02471298910677433,0.04671541973948479,0.3276561498641968,0.0,0.0,0.0,0.0,0.0,0.0,0.0,0.0,0.0
1606827792415290794,1783929,1606827792406703180,imu_link,0.08098773658275604,0.01296916976571083,0.20942196249961853,0.9743794202804565,0.0,0.0,0.0,0.0,0.0,0.0,0.0,0.0,0.0,24.219213485717773,-0.495467871427536,9.396385192871094,0.0,0.0,0.0,0.0,0.0,0.0,0.0,0.0,0.0,-0.004208293743431568,0.03301502764225006,0.32656532526016235,0.0,0.0,0.0,0.0,0.0,0.0,0.0,0.0,0.0
1606827792416464530,1783930,1606827792406776800,imu_link,0.08098773658275604,0.01296916976571083,0.20942196249961853,0.9743794202804565,0.0,0.0,0.0,0.0,0.0,0.0,0.0,0.0,0.0,24.219213485717773,-0.495467871427536,9.396385192871094,0.0,0.0,0.0,0.0,0.0,0.0,0.0,0.0,0.0,-0.004208293743431568,0.03301502764225006,0.32656532526016235,0.0,0.0,0.0,0.0,0.0,0.0,0.0,0.0,0.0
1606827792416476543,1783931,1606827792406858333,imu_link,0.08098763227462769,0.012968865223228931,0.20942115783691406,0.9743795990943909,0.0,0.0,0.0,0.0,0.0,0.0,0.0,0.0,0.0,24.2191162109375,-0.4954916834831238,9.396366119384766,0.0,0.0,0.0,0.0,0.0,0.0,0.0,0.0,0.0,0.008731172420084476,0.04282859340310097,0.31039538979530334,0.0,0.0,0.0,0.0,0.0,0.0,0.0,0.0,0.0
1606827792427326701,1783932,1606827792419455072,imu_link,0.08098763227462769,0.012968865223228931,0.20942115783691406,0.9743795990943909,0.0,0.0,0.0,0.0,0.0,0.0,0.0,0.0,0.0,24.2191162109375,-0.4954916834831238,9.396366119384766,0.0,0.0,0.0,0.0,0.0,0.0,0.0,0.0,0.0,0.008731172420084476,0.04282859340310097,0.31039538979530334,0.0,0.0,0.0,0.0,0.0,0.0,0.0,0.0,0.0
1606827792427770813,1783933,1606827792419590555,imu_link,0.08098749816417694,0.01296986173838377,0.20942436158657074,0.9743789434432983,0.0,0.0,0.0,0.0,0.0,0.0,0.0,0.0,0.0,24.21950340270996,-0.4954077899456024,9.396373748779297,0.0,0.0,0.0,0.0,0.0,0.0,0.0,0.0,0.0,0.007234259508550167,0.05771489813923836,0.30764830112457275,0.0,0.0,0.0,0.0,0.0,0.0,0.0,0.0,0.0
1606827792427791581,1783934,1606827792419715754,imu_link,0.08098749816417694,0.01296986173838377,0.20942436158657074,0.9743789434432983,0.0,0.0,0.0,0.0,0.0,0.0,0.0,0.0,0.0,24.21950340270996,-0.4954077899456024,9.396373748779297,0.0,0.0,0.0,0.0,0.0,0.0,0.0,0.0,0.0,0.007234259508550167,0.05771489813923836,0.30764830112457275,0.0,0.0,0.0,0.0,0.0,0.0,0.0,0.0,0.0
1606827792427805496,1783935,1606827792419794476,imu_link,0.08098778128623962,0.012968745082616806,0.20942582190036774,0.9743786454200745,0.0,0.0,0.0,0.0,0.0,0.0,0.0,0.0,0.0,24.219661712646484,-0.49555325508117676,9.396377563476562,0.0,0.0,0.0,0.0,0.0,0.0,0.0,0.0,0.0,0.009583848528563976,0.05838734656572342,0.32743486762046814,0.0,0.0,0.0,0.0,0.0,0.0,0.0,0.0,0.0
1606827792427815177,1783936,1606827792419872090,imu_link,0.08098778128623962,0.012968745082616806,0.20942582190036774,0.9743786454200745,0.0,0.0,0.0,0.0,0.0,0.0,0.0,0.0,0.0,24.219661712646484,-0.49555325508117676,9.396377563476562,0.0,0.0,0.0,0.0,0.0,0.0,0.0,0.0,0.0,0.009583848528563976,0.05838734656572342,0.32743486762046814,0.0,0.0,0.0,0.0,0.0,0.0,0.0,0.0,0.0
1606827792428701361,1783937,1606827792419967580,imu_link,0.08098553866147995,0.012968628667294979,0.20942337810993195,0.974379301071167,0.0,0.0,0.0,0.0,0.0,0.0,0.0,0.0,0.0,24.219375610351562,-0.4954887926578522,9.396123886108398,0.0,0.0,0.0,0.0,0.0,0.0,0.0,0.0,0.0,0.023727161809802055,0.0573807992041111,0.33986935019493103,0.0,0.0,0.0,0.0,0.0,0.0,0.0,0.0,0.0
1606827792428718079,1783938,1606827792420051975,imu_link,0.08098553866147995,0.012968628667294979,0.20942337810993195,0.974379301071167,0.0,0.0,0.0,0.0,0.0,0.0,0.0,0.0,0.0,24.219375610351562,-0.4954887926578522,9.396123886108398,0.0,0.0,0.0,0.0,0.0,0.0,0.0,0.0,0.0,0.023727161809802055,0.0573807992041111,0.33986935019493103,0.0,0.0,0.0,0.0,0.0,0.0,0.0,0.0,0.0
1606827792428723983,1783939,1606827792420130516,imu_link,0.08098514378070831,0.012969216331839561,0.2094220519065857,0.9743795990943909,0.0,0.0,0.0,0.0,0.0,0.0,0.0,0.0,0.0,24.219226837158203,-0.49540096521377563,9.396095275878906,0.0,0.0,0.0,0.0,0.0,0.0,0.0,0.0,0.0,0.023981301113963127,0.053015582263469696,0.32089725136756897,0.0,0.0,0.0,0.0,0.0,0.0,0.0,0.0,0.0
1606827792428733603,1783940,1606827792420245687,imu_link,0.08098514378070831,0.012969216331839561,0.2094220519065857,0.9743795990943909,0.0,0.0,0.0,0.0,0.0,0.0,0.0,0.0,0.0,24.219226837158203,-0.49540096521377563,9.396095275878906,0.0,0.0,0.0,0.0,0.0,0.0,0.0,0.0,0.0,0.023981301113963127,0.053015582263469696,0.32089725136756897,0.0,0.0,0.0,0.0,0.0,0.0,0.0,0.0,0.0
1606827792428758635,1783941,1606827792420349537,imu_link,0.08098390698432922,0.012972780503332615,0.20941831171512604,0.9743804931640625,0.0,0.0,0.0,0.0,0.0,0.0,0.0,0.0,0.0,24.218822479248047,-0.4949372112751007,9.396041870117188,0.0,0.0,0.0,0.0,0.0,0.0,0.0,0.0,0.0,0.02294987067580223,0.05223993957042694,0.31188327074050903,0.0,0.0,0.0,0.0,0.0,0.0,0.0,0.0,0.0
1606827792428775822,1783942,1606827792420439319,imu_link,0.08098390698432922,0.012972780503332615,0.20941831171512604,0.9743804931640625,0.0,0.0,0.0,0.0,0.0,0.0,0.0,0.0,0.0,24.218822479248047,-0.4949372112751007,9.396041870117188,0.0,0.0,0.0,0.0,0.0,0.0,0.0,0.0,0.0,0.02294987067580223,0.05223993957042694,0.31188327074050903,0.0,0.0,0.0,0.0,0.0,0.0,0.0,0.0,0.0
1606827792440344015,1783943,1606827792432442352,imu_link,0.08098332583904266,0.012974032200872898,0.2094181925058365,0.9743805527687073,0.0,0.0,0.0,0.0,0.0,0.0,0.0,0.0,0.0,24.218820571899414,-0.49478235840797424,9.396008491516113,0.0,0.0,0.0,0.0,0.0,0.0,0.0,0.0,0.0,0.01377885602414608,0.040711164474487305,0.3024355471134186,0.0,0.0,0.0,0.0,0.0,0.0,0.0,0.0,0.0
1606827792441290117,1783944,1606827792432578361,imu_link,0.08098332583904266,0.012974032200872898,0.2094181925058365,0.9743805527687073,0.0,0.0,0.0,0.0,0.0,0.0,0.0,0.0,0.0,24.218820571899414,-0.49478235840797424,9.396008491516113,0.0,0.0,0.0,0.0,0.0,0.0,0.0,0.0,0.0,0.01377885602414608,0.040711164474487305,0.3024355471134186,0.0,0.0,0.0,0.0,0.0,0.0,0.0,0.0,0.0
1606827792441309742,1783945,1606827792432750454,imu_link,0.08098428696393967,0.012975377030670643,0.2094128131866455,0.9743816256523132,0.0,0.0,0.0,0.0,0.0,0.0,0.0,0.0,0.0,24.218202590942383,-0.49460369348526,9.396150588989258,0.0,0.0,0.0,0.0,0.0,0.0,0.0,0.0,0.0,-0.002598477527499199,0.044448815286159515,0.3129061162471771,0.0,0.0,0.0,0.0,0.0,0.0,0.0,0.0,0.0
1606827792441326403,1783946,1606827792432834898,imu_link,0.08098428696393967,0.012975377030670643,0.2094128131866455,0.9743816256523132,0.0,0.0,0.0,0.0,0.0,0.0,0.0,0.0,0.0,24.218202590942383,-0.49460369348526,9.396150588989258,0.0,0.0,0.0,0.0,0.0,0.0,0.0,0.0,0.0,-0.002598477527499199,0.044448815286159515,0.3129061162471771,0.0,0.0,0.0,0.0,0.0,0.0,0.0,0.0,0.0
1606827792441342844,1783947,1606827792432913665,imu_link,0.08098503202199936,0.012974814511835575,0.20941480994224548,0.974381148815155,0.0,0.0,0.0,0.0,0.0,0.0,0.0,0.0,0.0,24.21843147277832,-0.49470359086990356,9.396220207214355,0.0,0.0,0.0,0.0,0.0,0.0,0.0,0.0,0.0,-0.002836354775354266,0.06183277443051338,0.31636425852775574,0.0,0.0,0.0,0.0,0.0,0.0,0.0,0.0,0.0
1606827792441791528,1783948,1606827792433019530,imu_link,0.08098503202199936,0.012974814511835575,0.20941480994224548,0.974381148815155,0.0,0.0,0.0,0.0,0.0,0.0,0.0,0.0,0.0,24.21843147277832,-0.49470359086990356,9.396220207214355,0.0,0.0,0.0,0.0,0.0,0.0,0.0,0.0,0.0,-0.002836354775354266,0.06183277443051338,0.31636425852775574,0.0,0.0,0.0,0.0,0.0,0.0,0.0,0.0,0.0
1606827792441831193,1783949,1606827792433107307,imu_link,0.08098410815000534,0.012973486445844173,0.20941102504730225,0.9743820428848267,0.0,0.0,0.0,0.0,0.0,0.0,0.0,0.0,0.0,24.217979431152344,-0.4947933256626129,9.396086692810059,0.0,0.0,0.0,0.0,0.0,0.0,0.0,0.0,0.0,0.008760897442698479,0.06939028948545456,0.2788921296596527,0.0,0.0,0.0,0.0,0.0,0.0,0.0,0.0,0.0
1606827792441854666,1783950,1606827792433187096,imu_link,0.08098410815000534,0.012973486445844173,0.20941102504730225,0.9743820428848267,0.0,0.0,0.0,0.0,0.0,0.0,0.0,0.0,0.0,24.217979431152344,-0.4947933256626129,9.396086692810059,0.0,0.0,0.0,0.0,0.0,0.0,0.0,0.0,0.0,0.008760897442698479,0.06939028948545456,0.2788921296596527,0.0,0.0,0.0,0.0,0.0,0.0,0.0,0.0,0.0
1606827792441860714,1783951,1606827792433299466,imu_link,0.0809827670454979,0.012973557226359844,0.20941084623336792,0.974382221698761,0.0,0.0,0.0,0.0,0.0,0.0,0.0,0.0,0.0,24.217958450317383,-0.4947513937950134,9.395936965942383,0.0,0.0,0.0,0.0,0.0,0.0,0.0,0.0,0.0,0.006932546384632587,0.06695881485939026,0.28972071409225464,0.0,0.0,0.0,0.0,0.0,0.0,0.0,0.0,0.0
1606827792441877916,1783952,1606827792433387744,imu_link,0.0809827670454979,0.012973557226359844,0.20941084623336792,0.974382221698761,0.0,0.0,0.0,0.0,0.0,0.0,0.0,0.0,0.0,24.217958450317383,-0.4947513937950134,9.395936965942383,0.0,0.0,0.0,0.0,0.0,0.0,0.0,0.0,0.0,0.006932546384632587,0.06695881485939026,0.28972071409225464,0.0,0.0,0.0,0.0,0.0,0.0,0.0,0.0,0.0
1606827792453607668,1783953,1606827792445934518,imu_link,0.08097939938306808,0.012974116019904613,0.20941261947155,0.9743821024894714,0.0,0.0,0.0,0.0,0.0,0.0,0.0,0.0,0.0,24.218172073364258,-0.49462470412254333,9.395570755004883,0.0,0.0,0.0,0.0,0.0,0.0,0.0,0.0,0.0,-0.015213723294436932,0.05161972716450691,0.331472784280777,0.0,0.0,0.0,0.0,0.0,0.0,0.0,0.0,0.0
1606827792456315131,1783954,1606827792446068788,imu_link,0.08097939938306808,0.012974116019904613,0.20941261947155,0.9743821024894714,0.0,0.0,0.0,0.0,0.0,0.0,0.0,0.0,0.0,24.218172073364258,-0.49462470412254333,9.395570755004883,0.0,0.0,0.0,0.0,0.0,0.0,0.0,0.0,0.0,-0.015213723294436932,0.05161972716450691,0.331472784280777,0.0,0.0,0.0,0.0,0.0,0.0,0.0,0.0,0.0
1606827792456359593,1783955,1606827792446223225,imu_link,0.08097851276397705,0.012973199598491192,0.209412083029747,0.974382221698761,0.0,0.0,0.0,0.0,0.0,0.0,0.0,0.0,0.0,24.218103408813477,-0.4947006106376648,9.395450592041016,0.0,0.0,0.0,0.0,0.0,0.0,0.0,0.0,0.0,-0.01806505024433136,0.03501325100660324,0.3336026966571808,0.0,0.0,0.0,0.0,0.0,0.0,0.0,0.0,0.0
1606827792456384874,1783956,1606827792446311619,imu_link,0.08097851276397705,0.012973199598491192,0.209412083029747,0.974382221698761,0.0,0.0,0.0,0.0,0.0,0.0,0.0,0.0,0.0,24.218103408813477,-0.4947006106376648,9.395450592041016,0.0,0.0,0.0,0.0,0.0,0.0,0.0,0.0,0.0,-0.01806505024433136,0.03501325100660324,0.3336026966571808,0.0,0.0,0.0,0.0,0.0,0.0,0.0,0.0,0.0
1606827792456396520,1783957,1606827792446396620,imu_link,0.08098135888576508,0.012970036827027798,0.20941303670406342,0.9743818640708923,0.0,0.0,0.0,0.0,0.0,0.0,0.0,0.0,0.0,24.218183517456055,-0.49513131380081177,9.395692825317383,0.0,0.0,0.0,0.0,0.0,0.0,0.0,0.0,0.0,-0.0027611684054136276,0.03666112571954727,0.3217768669128418,0.0,0.0,0.0,0.0,0.0,0.0,0.0,0.0,0.0
1606827792456409031,1783958,1606827792446508268,imu_link,0.08098135888576508,0.012970036827027798,0.20941303670406342,0.9743818640708923,0.0,0.0,0.0,0.0,0.0,0.0,0.0,0.0,0.0,24.218183517456055,-0.49513131380081177,9.395692825317383,0.0,0.0,0.0,0.0,0.0,0.0,0.0,0.0,0.0,-0.0027611684054136276,0.03666112571954727,0.3217768669128418,0.0,0.0,0.0,0.0,0.0,0.0,0.0,0.0,0.0
1606827792456421414,1783959,1606827792446657883,imu_link,0.08097948133945465,0.012971392832696438,0.2094113528728485,0.9743823409080505,0.0,0.0,0.0,0.0,0.0,0.0,0.0,0.0,0.0,24.218000411987305,-0.4949186146259308,9.395515441894531,0.0,0.0,0.0,0.0,0.0,0.0,0.0,0.0,0.0,-0.010103801265358925,0.04979725554585457,0.3004653751850128,0.0,0.0,0.0,0.0,0.0,0.0,0.0,0.0,0.0
1606827792456464707,1783960,1606827792446750181,imu_link,0.08097948133945465,0.012971392832696438,0.2094113528728485,0.9743823409080505,0.0,0.0,0.0,0.0,0.0,0.0,0.0,0.0,0.0,24.218000411987305,-0.4949186146259308,9.395515441894531,0.0,0.0,0.0,0.0,0.0,0.0,0.0,0.0,0.0,-0.010103801265358925,0.04979725554585457,0.3004653751850128,0.0,0.0,0.0,0.0,0.0,0.0,0.0,0.0,0.0
1606827792456474812,1783961,1606827792446827640,imu_link,0.08098026365041733,0.012968377210199833,0.20941343903541565,0.9743819236755371,0.0,0.0,0.0,0.0,0.0,0.0,0.0,0.0,0.0,24.21821403503418,-0.4952942430973053,9.395528793334961,0.0,0.0,0.0,0.0,0.0,0.0,0.0,0.0,0.0,-0.02752874605357647,0.04938370734453201,0.2773509621620178,0.0,0.0,0.0,0.0,0.0,0.0,0.0,0.0,0.0
1606827792456485176,1783962,1606827792446913623,imu_link,0.08098026365041733,0.012968377210199833,0.20941343903541565,0.9743819236755371,0.0,0.0,0.0,0.0,0.0,0.0,0.0,0.0,0.0,24.21821403503418,-0.4952942430973053,9.395528793334961,0.0,0.0,0.0,0.0,0.0,0.0,0.0,0.0,0.0,-0.02752874605357647,0.04938370734453201,0.2773509621620178,0.0,0.0,0.0,0.0,0.0,0.0,0.0,0.0,0.0
1606827792456550749,1783963,1606827792446995617,imu_link,0.08098065108060837,0.01296905241906643,0.20941367745399475,0.9743818044662476,0.0,0.0,0.0,0.0,0.0,0.0,0.0,0.0,0.0,24.21824836730957,-0.4952305257320404,9.395589828491211,0.0,0.0,0.0,0.0,0.0,0.0,0.0,0.0,0.0,-0.006140465382486582,0.0447087287902832,0.2907543182373047,0.0,0.0,0.0,0.0,0.0,0.0,0.0,0.0,0.0
1606827792467305715,1783964,1606827792459724787,imu_link,0.08098065108060837,0.01296905241906643,0.20941367745399475,0.9743818044662476,0.0,0.0,0.0,0.0,0.0,0.0,0.0,0.0,0.0,24.21824836730957,-0.4952305257320404,9.395589828491211,0.0,0.0,0.0,0.0,0.0,0.0,0.0,0.0,0.0,-0.006140465382486582,0.0447087287902832,0.2907543182373047,0.0,0.0,0.0,0.0,0.0,0.0,0.0,0.0,0.0
1606827792469230924,1783965,1606827792459923320,imu_link,0.08098028600215912,0.012969570234417915,0.20941567420959473,0.9743813872337341,0.0,0.0,0.0,0.0,0.0,0.0,0.0,0.0,0.0,24.218486785888672,-0.49518293142318726,9.395561218261719,0.0,0.0,0.0,0.0,0.0,0.0,0.0,0.0,0.0,0.024235496297478676,0.04676153138279915,0.3177655041217804,0.0,0.0,0.0,0.0,0.0,0.0,0.0,0.0,0.0
1606827792469259156,1783966,1606827792460032026,imu_link,0.08098028600215912,0.012969570234417915,0.20941567420959473,0.9743813872337341,0.0,0.0,0.0,0.0,0.0,0.0,0.0,0.0,0.0,24.218486785888672,-0.49518293142318726,9.395561218261719,0.0,0.0,0.0,0.0,0.0,0.0,0.0,0.0,0.0,0.024235496297478676,0.04676153138279915,0.3177655041217804,0.0,0.0,0.0,0.0,0.0,0.0,0.0,0.0,0.0
1606827792469284489,1783967,1606827792460111495,imu_link,0.08098100125789642,0.01297171413898468,0.20941680669784546,0.9743810892105103,0.0,0.0,0.0,0.0,0.0,0.0,0.0,0.0,0.0,24.218637466430664,-0.4949716627597809,9.395691871643066,0.0,0.0,0.0,0.0,0.0,0.0,0.0,0.0,0.0,0.03214452043175697,0.05166320502758026,0.3348635733127594,0.0,0.0,0.0,0.0,0.0,0.0,0.0,0.0,0.0
1606827792469300532,1783968,1606827792460184383,imu_link,0.08098100125789642,0.01297171413898468,0.20941680669784546,0.9743810892105103,0.0,0.0,0.0,0.0,0.0,0.0,0.0,0.0,0.0,24.218637466430664,-0.4949716627597809,9.395691871643066,0.0,0.0,0.0,0.0,0.0,0.0,0.0,0.0,0.0,0.03214452043175697,0.05166320502758026,0.3348635733127594,0.0,0.0,0.0,0.0,0.0,0.0,0.0,0.0,0.0
1606827792469309880,1783969,1606827792460263871,imu_link,0.0809810683131218,0.012975701130926609,0.2094203531742096,0.9743802547454834,0.0,0.0,0.0,0.0,0.0,0.0,0.0,0.0,0.0,24.21908950805664,-0.4945622980594635,9.395793914794922,0.0,0.0,0.0,0.0,0.0,0.0,0.0,0.0,0.0,0.013954013586044312,0.05192175135016441,0.3261041045188904,0.0,0.0,0.0,0.0,0.0,0.0,0.0,0.0,0.0
1606827792469325318,1783970,1606827792460405969,imu_link,0.0809810683131218,0.012975701130926609,0.2094203531742096,0.9743802547454834,0.0,0.0,0.0,0.0,0.0,0.0,0.0,0.0,0.0,24.21908950805664,-0.4945622980594635,9.395793914794922,0.0,0.0,0.0,0.0,0.0,0.0,0.0,0.0,0.0,0.013954013586044312,0.05192175135016441,0.3261041045188904,0.0,0.0,0.0,0.0,0.0,0.0,0.0,0.0,0.0
1606827792469333327,1783971,1606827792460502748,imu_link,0.08098307996988297,0.012974240817129612,0.2094213217496872,0.9743798971176147,0.0,0.0,0.0,0.0,0.0,0.0,0.0,0.0,0.0,24.219188690185547,-0.49478310346603394,9.395984649658203,0.0,0.0,0.0,0.0,0.0,0.0,0.0,0.0,0.0,0.00043315463699400425,0.04894888028502464,0.3390878736972809,0.0,0.0,0.0,0.0,0.0,0.0,0.0,0.0,0.0
1606827792469346168,1783972,1606827792460580798,imu_link,0.08098307996988297,0.012974240817129612,0.2094213217496872,0.9743798971176147,0.0,0.0,0.0,0.0,0.0,0.0,0.0,0.0,0.0,24.219188690185547,-0.49478310346603394,9.395984649658203,0.0,0.0,0.0,0.0,0.0,0.0,0.0,0.0,0.0,0.00043315463699400425,0.04894888028502464,0.3390878736972809,0.0,0.0,0.0,0.0,0.0,0.0,0.0,0.0,0.0
1606827792470997274,1783973,1606827792460665809,imu_link,0.08098519593477249,0.012977366335690022,0.20942345261573792,0.9743791818618774,0.0,0.0,0.0,0.0,0.0,0.0,0.0,0.0,0.0,24.219467163085938,-0.4945058226585388,9.396295547485352,0.0,0.0,0.0,0.0,0.0,0.0,0.0,0.0,0.0,-0.006257200613617897,0.04930340126156807,0.3482586145401001,0.0,0.0,0.0,0.0,0.0,0.0,0.0,0.0,0.0
1606827792471015813,1783974,1606827792460794561,imu_link,0.08098519593477249,0.012977366335690022,0.20942345261573792,0.9743791818618774,0.0,0.0,0.0,0.0,0.0,0.0,0.0,0.0,0.0,24.219467163085938,-0.4945058226585388,9.396295547485352,0.0,0.0,0.0,0.0,0.0,0.0,0.0,0.0,0.0,-0.006257200613617897,0.04930340126156807,0.3482586145401001,0.0,0.0,0.0,0.0,0.0,0.0,0.0,0.0,0.0
1606827792480959486,1783975,1606827792473306985,imu_link,0.0809847041964531,0.01297734770923853,0.2094239592552185,0.9743791222572327,0.0,0.0,0.0,0.0,0.0,0.0,0.0,0.0,0.0,24.219526290893555,-0.4945008158683777,9.396240234375,0.0,0.0,0.0,0.0,0.0,0.0,0.0,0.0,0.0,-0.019940868020057678,0.04676003009080887,0.30514395236968994,0.0,0.0,0.0,0.0,0.0,0.0,0.0,0.0,0.0
1606827792482564644,1783976,1606827792473449860,imu_link,0.0809847041964531,0.01297734770923853,0.2094239592552185,0.9743791222572327,0.0,0.0,0.0,0.0,0.0,0.0,0.0,0.0,0.0,24.219526290893555,-0.4945008158683777,9.396240234375,0.0,0.0,0.0,0.0,0.0,0.0,0.0,0.0,0.0,-0.019940868020057678,0.04676003009080887,0.30514395236968994,0.0,0.0,0.0,0.0,0.0,0.0,0.0,0.0,0.0
1606827792482594052,1783977,1606827792473633965,imu_link,0.08098752051591873,0.012972761876881123,0.20942442119121552,0.9743788838386536,0.0,0.0,0.0,0.0,0.0,0.0,0.0,0.0,0.0,24.21953582763672,-0.49508512020111084,9.396445274353027,0.0,0.0,0.0,0.0,0.0,0.0,0.0,0.0,0.0,0.0048373001627624035,0.0403733029961586,0.2914074957370758,0.0,0.0,0.0,0.0,0.0,0.0,0.0,0.0,0.0
1606827792482667960,1783978,1606827792473719327,imu_link,0.08098752051591873,0.012972761876881123,0.20942442119121552,0.9743788838386536,0.0,0.0,0.0,0.0,0.0,0.0,0.0,0.0,0.0,24.21953582763672,-0.49508512020111084,9.396445274353027,0.0,0.0,0.0,0.0,0.0,0.0,0.0,0.0,0.0,0.0048373001627624035,0.0403733029961586,0.2914074957370758,0.0,0.0,0.0,0.0,0.0,0.0,0.0,0.0,0.0
1606827792482681588,1783979,1606827792473792371,imu_link,0.08098729699850082,0.012971887364983559,0.20942433178424835,0.9743789434432983,0.0,0.0,0.0,0.0,0.0,0.0,0.0,0.0,0.0,24.21951675415039,-0.4951765239238739,9.396400451660156,0.0,0.0,0.0,0.0,0.0,0.0,0.0,0.0,0.0,0.0018646918470039964,0.05212743952870369,0.32540157437324524,0.0,0.0,0.0,0.0,0.0,0.0,0.0,0.0,0.0
1606827792482691978,1783980,1606827792473910378,imu_link,0.08098729699850082,0.012971887364983559,0.20942433178424835,0.9743789434432983,0.0,0.0,0.0,0.0,0.0,0.0,0.0,0.0,0.0,24.21951675415039,-0.4951765239238739,9.396400451660156,0.0,0.0,0.0,0.0,0.0,0.0,0.0,0.0,0.0,0.0018646918470039964,0.05212743952870369,0.32540157437324524,0.0,0.0,0.0,0.0,0.0,0.0,0.0,0.0,0.0
1606827792482697098,1783981,1606827792474034485,imu_link,0.08098647743463516,0.012971365824341774,0.2094256728887558,0.9743787050247192,0.0,0.0,0.0,0.0,0.0,0.0,0.0,0.0,0.0,24.219669342041016,-0.4952278435230255,9.396294593811035,0.0,0.0,0.0,0.0,0.0,0.0,0.0,0.0,0.0,-0.014610880054533482,0.05924634262919426,0.31998297572135925,0.0,0.0,0.0,0.0,0.0,0.0,0.0,0.0,0.0
1606827792482705467,1783982,1606827792474116163,imu_link,0.08098647743463516,0.012971365824341774,0.2094256728887558,0.9743787050247192,0.0,0.0,0.0,0.0,0.0,0.0,0.0,0.0,0.0,24.219669342041016,-0.4952278435230255,9.396294593811035,0.0,0.0,0.0,0.0,0.0,0.0,0.0,0.0,0.0,-0.014610880054533482,0.05924634262919426,0.31998297572135925,0.0,0.0,0.0,0.0,0.0,0.0,0.0,0.0,0.0
1606827792482720955,1783983,1606827792474208992,imu_link,0.08098728954792023,0.012970712967216969,0.2094249725341797,0.9743788242340088,0.0,0.0,0.0,0.0,0.0,0.0,0.0,0.0,0.0,24.219581604003906,-0.4953135550022125,9.396370887756348,0.0,0.0,0.0,0.0,0.0,0.0,0.0,0.0,0.0,-0.00033545237965881824,0.04595760628581047,0.3145478069782257,0.0,0.0,0.0,0.0,0.0,0.0,0.0,0.0,0.0
1606827792483722315,1783984,1606827792474319197,imu_link,0.08098728954792023,0.012970712967216969,0.2094249725341797,0.9743788242340088,0.0,0.0,0.0,0.0,0.0,0.0,0.0,0.0,0.0,24.219581604003906,-0.4953135550022125,9.396370887756348,0.0,0.0,0.0,0.0,0.0,0.0,0.0,0.0,0.0,-0.00033545237965881824,0.04595760628581047,0.3145478069782257,0.0,0.0,0.0,0.0,0.0,0.0,0.0,0.0,0.0
1606827792483734464,1783985,1606827792474458654,imu_link,0.08098892122507095,0.012969719246029854,0.20942606031894684,0.9743784666061401,0.0,0.0,0.0,0.0,0.0,0.0,0.0,0.0,0.0,24.219694137573242,-0.49547436833381653,9.396529197692871,0.0,0.0,0.0,0.0,0.0,0.0,0.0,0.0,0.0,-0.0019117773044854403,0.04426959156990051,0.30759575963020325,0.0,0.0,0.0,0.0,0.0,0.0,0.0,0.0,0.0
1606827792493819357,1783986,1606827792486179170,imu_link,0.08098892122507095,0.012969719246029854,0.20942606031894684,0.9743784666061401,0.0,0.0,0.0,0.0,0.0,0.0,0.0,0.0,0.0,24.219694137573242,-0.49547436833381653,9.396529197692871,0.0,0.0,0.0,0.0,0.0,0.0,0.0,0.0,0.0,-0.0019117773044854403,0.04426959156990051,0.30759575963020325,0.0,0.0,0.0,0.0,0.0,0.0,0.0,0.0,0.0
1606827792494412636,1783987,1606827792486316818,imu_link,0.08098926395177841,0.012969196774065495,0.2094251811504364,0.9743786454200745,0.0,0.0,0.0,0.0,0.0,0.0,0.0,0.0,0.0,24.219589233398438,-0.49553245306015015,9.39655590057373,0.0,0.0,0.0,0.0,0.0,0.0,0.0,0.0,0.0,0.0010983838001266122,0.05064984783530235,0.3088354766368866,0.0,0.0,0.0,0.0,0.0,0.0,0.0,0.0,0.0
1606827792494432529,1783988,1606827792486497244,imu_link,0.08098926395177841,0.012969196774065495,0.2094251811504364,0.9743786454200745,0.0,0.0,0.0,0.0,0.0,0.0,0.0,0.0,0.0,24.219589233398438,-0.49553245306015015,9.39655590057373,0.0,0.0,0.0,0.0,0.0,0.0,0.0,0.0,0.0,0.0010983838001266122,0.05064984783530235,0.3088354766368866,0.0,0.0,0.0,0.0,0.0,0.0,0.0,0.0,0.0
1606827792494442915,1783989,1606827792486578853,imu_link,0.08098924160003662,0.012970061972737312,0.2094280868768692,0.9743779897689819,0.0,0.0,0.0,0.0,0.0,0.0,0.0,0.0,0.0,24.219938278198242,-0.4954632818698883,9.396573066711426,0.0,0.0,0.0,0.0,0.0,0.0,0.0,0.0,0.0,0.008130703121423721,0.05448705703020096,0.32113003730773926,0.0,0.0,0.0,0.0,0.0,0.0,0.0,0.0,0.0
1606827792494455232,1783990,1606827792486675471,imu_link,0.08098924160003662,0.012970061972737312,0.2094280868768692,0.9743779897689819,0.0,0.0,0.0,0.0,0.0,0.0,0.0,0.0,0.0,24.219938278198242,-0.4954632818698883,9.396573066711426,0.0,0.0,0.0,0.0,0.0,0.0,0.0,0.0,0.0,0.008130703121423721,0.05448705703020096,0.32113003730773926,0.0,0.0,0.0,0.0,0.0,0.0,0.0,0.0,0.0
1606827792495556629,1783991,1606827792486776810,imu_link,0.08098939061164856,0.012971533462405205,0.20942550897598267,0.9743785262107849,0.0,0.0,0.0,0.0,0.0,0.0,0.0,0.0,0.0,24.219650268554688,-0.49527791142463684,9.396625518798828,0.0,0.0,0.0,0.0,0.0,0.0,0.0,0.0,0.0,0.00899319164454937,0.07618115097284317,0.3232348561286926,0.0,0.0,0.0,0.0,0.0,0.0,0.0,0.0,0.0
1606827792495617122,1783992,1606827792486895869,imu_link,0.08098939061164856,0.012971533462405205,0.20942550897598267,0.9743785262107849,0.0,0.0,0.0,0.0,0.0,0.0,0.0,0.0,0.0,24.219650268554688,-0.49527791142463684,9.396625518798828,0.0,0.0,0.0,0.0,0.0,0.0,0.0,0.0,0.0,0.00899319164454937,0.07618115097284317,0.3232348561286926,0.0,0.0,0.0,0.0,0.0,0.0,0.0,0.0,0.0
1606827792495627251,1783993,1606827792486988278,imu_link,0.08098503202199936,0.012972026132047176,0.20942118763923645,0.9743797779083252,0.0,0.0,0.0,0.0,0.0,0.0,0.0,0.0,0.0,24.219152450561523,-0.4950762689113617,9.396150588989258,0.0,0.0,0.0,0.0,0.0,0.0,0.0,0.0,0.0,0.02758314460515976,0.08196292072534561,0.33765384554862976,0.0,0.0,0.0,0.0,0.0,0.0,0.0,0.0,0.0
1606827792495637393,1783994,1606827792487077343,imu_link,0.08098503202199936,0.012972026132047176,0.20942118763923645,0.9743797779083252,0.0,0.0,0.0,0.0,0.0,0.0,0.0,0.0,0.0,24.219152450561523,-0.4950762689113617,9.396150588989258,0.0,0.0,0.0,0.0,0.0,0.0,0.0,0.0,0.0,0.02758314460515976,0.08196292072534561,0.33765384554862976,0.0,0.0,0.0,0.0,0.0,0.0,0.0,0.0,0.0
1606827792495647949,1783995,1606827792487167080,imu_link,0.08098641037940979,0.012970547191798687,0.20941969752311707,0.9743800163269043,0.0,0.0,0.0,0.0,0.0,0.0,0.0,0.0,0.0,24.218965530395508,-0.4952602982521057,9.396269798278809,0.0,0.0,0.0,0.0,0.0,0.0,0.0,0.0,0.0,0.012421995401382446,0.060759298503398895,0.3415950536727905,0.0,0.0,0.0,0.0,0.0,0.0,0.0,0.0,0.0
1606827792508369179,1783996,1606827792499880905,imu_link,0.08098641037940979,0.012970547191798687,0.20941969752311707,0.9743800163269043,0.0,0.0,0.0,0.0,0.0,0.0,0.0,0.0,0.0,24.218965530395508,-0.4952602982521057,9.396269798278809,0.0,0.0,0.0,0.0,0.0,0.0,0.0,0.0,0.0,0.012421995401382446,0.060759298503398895,0.3415950536727905,0.0,0.0,0.0,0.0,0.0,0.0,0.0,0.0,0.0
1606827792508395616,1783997,1606827792500027604,imu_link,0.08098600059747696,0.01297333650290966,0.2094164341688156,0.9743807315826416,0.0,0.0,0.0,0.0,0.0,0.0,0.0,0.0,0.0,24.218608856201172,-0.4949076473712921,9.396292686462402,0.0,0.0,0.0,0.0,0.0,0.0,0.0,0.0,0.0,-0.009907752275466919,0.05042277276515961,0.3393734395503998,0.0,0.0,0.0,0.0,0.0,0.0,0.0,0.0,0.0
1606827792508410507,1783998,1606827792500206186,imu_link,0.08098600059747696,0.01297333650290966,0.2094164341688156,0.9743807315826416,0.0,0.0,0.0,0.0,0.0,0.0,0.0,0.0,0.0,24.218608856201172,-0.4949076473712921,9.396292686462402,0.0,0.0,0.0,0.0,0.0,0.0,0.0,0.0,0.0,-0.009907752275466919,0.05042277276515961,0.3393734395503998,0.0,0.0,0.0,0.0,0.0,0.0,0.0,0.0,0.0
1606827792508422724,1783999,1606827792500288711,imu_link,0.08098476380109787,0.012972679920494556,0.20941667258739471,0.9743807911872864,0.0,0.0,0.0,0.0,0.0,0.0,0.0,0.0,0.0,24.218629837036133,-0.49495330452919006,9.396138191223145,0.0,0.0,0.0,0.0,0.0,0.0,0.0,0.0,0.0,0.013057507574558258,0.04045551270246506,0.3348553776741028,0.0,0.0,0.0,0.0,0.0,0.0,0.0,0.0,0.0
1606827792508437272,1784000,1606827792500362948,imu_link,0.08098476380109787,0.012972679920494556,0.20941667258739471,0.9743807911872864,0.0,0.0,0.0,0.0,0.0,0.0,0.0,0.0,0.0,24.218629837036133,-0.49495330452919006,9.396138191223145,0.0,0.0,0.0,0.0,0.0,0.0,0.0,0.0,0.0,0.013057507574558258,0.04045551270246506,0.3348553776741028,0.0,0.0,0.0,0.0,0.0,0.0,0.0,0.0,0.0
1606827792509599315,1784001,1606827792500456027,imu_link,0.08098670095205307,0.01297550369054079,0.20941780507564545,0.974380373954773,0.0,0.0,0.0,0.0,0.0,0.0,0.0,0.0,0.0,24.218788146972656,-0.4946955740451813,9.396421432495117,0.0,0.0,0.0,0.0,0.0,0.0,0.0,0.0,0.0,0.009177017025649548,0.047289684414863586,0.3332568109035492,0.0,0.0,0.0,0.0,0.0,0.0,0.0,0.0,0.0
1606827792509632640,1784002,1606827792500555688,imu_link,0.08098670095205307,0.01297550369054079,0.20941780507564545,0.974380373954773,0.0,0.0,0.0,0.0,0.0,0.0,0.0,0.0,0.0,24.218788146972656,-0.4946955740451813,9.396421432495117,0.0,0.0,0.0,0.0,0.0,0.0,0.0,0.0,0.0,0.009177017025649548,0.047289684414863586,0.3332568109035492,0.0,0.0,0.0,0.0,0.0,0.0,0.0,0.0,0.0
1606827792509661236,1784003,1606827792500633642,imu_link,0.08098667860031128,0.012975318357348442,0.2094181776046753,0.9743802547454834,0.0,0.0,0.0,0.0,0.0,0.0,0.0,0.0,0.0,24.218830108642578,-0.4947194755077362,9.396415710449219,0.0,0.0,0.0,0.0,0.0,0.0,0.0,0.0,0.0,-0.006384972482919693,0.051069486886262894,0.33968019485473633,0.0,0.0,0.0,0.0,0.0,0.0,0.0,0.0,0.0
1606827792509680816,1784004,1606827792500720272,imu_link,0.08098667860031128,0.012975318357348442,0.2094181776046753,0.9743802547454834,0.0,0.0,0.0,0.0,0.0,0.0,0.0,0.0,0.0,24.218830108642578,-0.4947194755077362,9.396415710449219,0.0,0.0,0.0,0.0,0.0,0.0,0.0,0.0,0.0,-0.006384972482919693,0.051069486886262894,0.33968019485473633,0.0,0.0,0.0,0.0,0.0,0.0,0.0,0.0,0.0
1606827792509688958,1784005,1606827792500804848,imu_link,0.08098834753036499,0.012972122058272362,0.20942389965057373,0.9743789434432983,0.0,0.0,0.0,0.0,0.0,0.0,0.0,0.0,0.0,24.21946907043457,-0.4951713979244232,9.396523475646973,0.0,0.0,0.0,0.0,0.0,0.0,0.0,0.0,0.0,-0.0011720911134034395,0.042999301105737686,0.3379405438899994,0.0,0.0,0.0,0.0,0.0,0.0,0.0,0.0,0.0
1606827792509712141,1784006,1606827792500889889,imu_link,0.08098834753036499,0.012972122058272362,0.20942389965057373,0.9743789434432983,0.0,0.0,0.0,0.0,0.0,0.0,0.0,0.0,0.0,24.21946907043457,-0.4951713979244232,9.396523475646973,0.0,0.0,0.0,0.0,0.0,0.0,0.0,0.0,0.0,-0.0011720911134034395,0.042999301105737686,0.3379405438899994,0.0,0.0,0.0,0.0,0.0,0.0,0.0,0.0,0.0
1606827792531816354,1784007,1606827792513331956,imu_link,0.080989308655262,0.012970336712896824,0.20942366123199463,0.9743789434432983,0.0,0.0,0.0,0.0,0.0,0.0,0.0,0.0,0.0,24.219423294067383,-0.4953916668891907,9.396588325500488,0.0,0.0,0.0,0.0,0.0,0.0,0.0,0.0,0.0,-0.0036906569730490446,0.04181375354528427,0.3298299312591553,0.0,0.0,0.0,0.0,0.0,0.0,0.0,0.0,0.0
1606827792540962217,1784008,1606827792513479616,imu_link,0.080989308655262,0.012970336712896824,0.20942366123199463,0.9743789434432983,0.0,0.0,0.0,0.0,0.0,0.0,0.0,0.0,0.0,24.219423294067383,-0.4953916668891907,9.396588325500488,0.0,0.0,0.0,0.0,0.0,0.0,0.0,0.0,0.0,-0.0036906569730490446,0.04181375354528427,0.3298299312591553,0.0,0.0,0.0,0.0,0.0,0.0,0.0,0.0,0.0
1606827792541001514,1784009,1606827792513624200,imu_link,0.08099188655614853,0.012968625873327255,0.20942477881908417,0.9743785262107849,0.0,0.0,0.0,0.0,0.0,0.0,0.0,0.0,0.0,24.219533920288086,-0.49565571546554565,9.396836280822754,0.0,0.0,0.0,0.0,0.0,0.0,0.0,0.0,0.0,-0.011311710812151432,0.056753531098365784,0.3350989520549774,0.0,0.0,0.0,0.0,0.0,0.0,0.0,0.0,0.0
1606827792541015408,1784010,1606827792513712108,imu_link,0.08099188655614853,0.012968625873327255,0.20942477881908417,0.9743785262107849,0.0,0.0,0.0,0.0,0.0,0.0,0.0,0.0,0.0,24.219533920288086,-0.49565571546554565,9.396836280822754,0.0,0.0,0.0,0.0,0.0,0.0,0.0,0.0,0.0,-0.011311710812151432,0.056753531098365784,0.3350989520549774,0.0,0.0,0.0,0.0,0.0,0.0,0.0,0.0,0.0
1606827792541049835,1784011,1606827792513788374,imu_link,0.0809922143816948,0.01296890527009964,0.20942465960979462,0.9743785262107849,0.0,0.0,0.0,0.0,0.0,0.0,0.0,0.0,0.0,24.21952247619629,-0.4956311583518982,9.396879196166992,0.0,0.0,0.0,0.0,0.0,0.0,0.0,0.0,0.0,-0.010150069370865822,0.07124616205692291,0.3436186611652374,0.0,0.0,0.0,0.0,0.0,0.0,0.0,0.0,0.0
1606827792541119451,1784012,1606827792513883789,imu_link,0.0809922143816948,0.01296890527009964,0.20942465960979462,0.9743785262107849,0.0,0.0,0.0,0.0,0.0,0.0,0.0,0.0,0.0,24.21952247619629,-0.4956311583518982,9.396879196166992,0.0,0.0,0.0,0.0,0.0,0.0,0.0,0.0,0.0,-0.010150069370865822,0.07124616205692291,0.3436186611652374,0.0,0.0,0.0,0.0,0.0,0.0,0.0,0.0,0.0
1606827792541145315,1784013,1606827792513982703,imu_link,0.08099085092544556,0.012967733666300774,0.20942574739456177,0.9743784070014954,0.0,0.0,0.0,0.0,0.0,0.0,0.0,0.0,0.0,24.219640731811523,-0.49573948979377747,9.396697044372559,0.0,0.0,0.0,0.0,0.0,0.0,0.0,0.0,0.0,-0.01575980708003044,0.07033022493124008,0.33255669474601746,0.0,0.0,0.0,0.0,0.0,0.0,0.0,0.0,0.0
1606827792541171285,1784014,1606827792514071578,imu_link,0.08099085092544556,0.012967733666300774,0.20942574739456177,0.9743784070014954,0.0,0.0,0.0,0.0,0.0,0.0,0.0,0.0,0.0,24.219640731811523,-0.49573948979377747,9.396697044372559,0.0,0.0,0.0,0.0,0.0,0.0,0.0,0.0,0.0,-0.01575980708003044,0.07033022493124008,0.33255669474601746,0.0,0.0,0.0,0.0,0.0,0.0,0.0,0.0,0.0
1606827792541181664,1784015,1606827792514156073,imu_link,0.0809907391667366,0.012968671508133411,0.20942644774913788,0.974378228187561,0.0,0.0,0.0,0.0,0.0,0.0,0.0,0.0,0.0,24.2197322845459,-0.4956388473510742,9.396708488464355,0.0,0.0,0.0,0.0,0.0,0.0,0.0,0.0,0.0,-0.007792376913130283,0.06318167597055435,0.31217464804649353,0.0,0.0,0.0,0.0,0.0,0.0,0.0,0.0,0.0
1606827792541469100,1784016,1606827792514237646,imu_link,0.0809907391667366,0.012968671508133411,0.20942644774913788,0.974378228187561,0.0,0.0,0.0,0.0,0.0,0.0,0.0,0.0,0.0,24.2197322845459,-0.4956388473510742,9.396708488464355,0.0,0.0,0.0,0.0,0.0,0.0,0.0,0.0,0.0,-0.007792376913130283,0.06318167597055435,0.31217464804649353,0.0,0.0,0.0,0.0,0.0,0.0,0.0,0.0,0.0
1606827792541504922,1784017,1606827792514317014,imu_link,0.08098925650119781,0.012966667301952839,0.2094283550977707,0.9743779897689819,0.0,0.0,0.0,0.0,0.0,0.0,0.0,0.0,0.0,24.21993637084961,-0.4958450198173523,9.396492004394531,0.0,0.0,0.0,0.0,0.0,0.0,0.0,0.0,0.0,0.0019458343740552664,0.052178602665662766,0.2976573705673218,0.0,0.0,0.0,0.0,0.0,0.0,0.0,0.0,0.0
1606827792541569743,1784018,1606827792527228986,imu_link,0.08098925650119781,0.012966667301952839,0.2094283550977707,0.9743779897689819,0.0,0.0,0.0,0.0,0.0,0.0,0.0,0.0,0.0,24.21993637084961,-0.4958450198173523,9.396492004394531,0.0,0.0,0.0,0.0,0.0,0.0,0.0,0.0,0.0,0.0019458343740552664,0.052178602665662766,0.2976573705673218,0.0,0.0,0.0,0.0,0.0,0.0,0.0,0.0,0.0
1606827792541581751,1784019,1606827792527397746,imu_link,0.080989308655262,0.012965294532477856,0.20942766964435577,0.9743781685829163,0.0,0.0,0.0,0.0,0.0,0.0,0.0,0.0,0.0,24.2198429107666,-0.4959929287433624,9.396465301513672,0.0,0.0,0.0,0.0,0.0,0.0,0.0,0.0,0.0,-0.003790884278714657,0.06916806101799011,0.29252979159355164,0.0,0.0,0.0,0.0,0.0,0.0,0.0,0.0,0.0
1606827792541594466,1784020,1606827792527537238,imu_link,0.080989308655262,0.012965294532477856,0.20942766964435577,0.9743781685829163,0.0,0.0,0.0,0.0,0.0,0.0,0.0,0.0,0.0,24.2198429107666,-0.4959929287433624,9.396465301513672,0.0,0.0,0.0,0.0,0.0,0.0,0.0,0.0,0.0,-0.003790884278714657,0.06916806101799011,0.29252979159355164,0.0,0.0,0.0,0.0,0.0,0.0,0.0,0.0,0.0
1606827792541613779,1784021,1606827792527631390,imu_link,0.08098521828651428,0.01296283956617117,0.20942682027816772,0.9743787050247192,0.0,0.0,0.0,0.0,0.0,0.0,0.0,0.0,0.0,24.219724655151367,-0.4961603879928589,9.395947456359863,0.0,0.0,0.0,0.0,0.0,0.0,0.0,0.0,0.0,0.0038041977677494287,0.0658801943063736,0.299297571182251,0.0,0.0,0.0,0.0,0.0,0.0,0.0,0.0,0.0
1606827792541644830,1784022,1606827792527719834,imu_link,0.08098521828651428,0.01296283956617117,0.20942682027816772,0.9743787050247192,0.0,0.0,0.0,0.0,0.0,0.0,0.0,0.0,0.0,24.219724655151367,-0.4961603879928589,9.395947456359863,0.0,0.0,0.0,0.0,0.0,0.0,0.0,0.0,0.0,0.0038041977677494287,0.0658801943063736,0.299297571182251,0.0,0.0,0.0,0.0,0.0,0.0,0.0,0.0,0.0
