%time,field.header.seq,field.header.stamp,field.header.frame_id,field.orientation.x,field.orientation.y,field.orientation.z,field.orientation.w,field.orientation_covariance0,field.orientation_covariance1,field.orientation_covariance2,field.orientation_covariance3,field.orientation_covariance4,field.orientation_covariance5,field.orientation_covariance6,field.orientation_covariance7,field.orientation_covariance8,field.angular_velocity.x,field.angular_velocity.y,field.angular_velocity.z,field.angular_velocity_covariance0,field.angular_velocity_covariance1,field.angular_velocity_covariance2,field.angular_velocity_covariance3,field.angular_velocity_covariance4,field.angular_velocity_covariance5,field.angular_velocity_covariance6,field.angular_velocity_covariance7,field.angular_velocity_covariance8,field.linear_acceleration.x,field.linear_acceleration.y,field.linear_acceleration.z,field.linear_acceleration_covariance0,field.linear_acceleration_covariance1,field.linear_acceleration_covariance2,field.linear_acceleration_covariance3,field.linear_acceleration_covariance4,field.linear_acceleration_covariance5,field.linear_acceleration_covariance6,field.linear_acceleration_covariance7,field.linear_acceleration_covariance8
1606826260761331869,558611,1606826260756687407,imu_link,0.0012898005079478025,0.0029138452373445034,0.02915954403579235,0.9995697140693665,0.0,0.0,0.0,0.0,0.0,0.0,0.0,0.0,0.0,3.342381000518799,0.329450398683548,0.15747587382793427,0.0,0.0,0.0,0.0,0.0,0.0,0.0,0.0,0.0,-0.007401134818792343,-0.005639423616230488,0.30107787251472473,0.0,0.0,0.0,0.0,0.0,0.0,0.0,0.0,0.0
1606826260762357687,558612,1606826260756801046,imu_link,0.0012898005079478025,0.0029138452373445034,0.02915954403579235,0.9995697140693665,0.0,0.0,0.0,0.0,0.0,0.0,0.0,0.0,0.0,3.342381000518799,0.329450398683548,0.15747587382793427,0.0,0.0,0.0,0.0,0.0,0.0,0.0,0.0,0.0,-0.007401134818792343,-0.005639423616230488,0.30107787251472473,0.0,0.0,0.0,0.0,0.0,0.0,0.0,0.0,0.0
1606826260762377631,558613,1606826260756952828,imu_link,0.0012916743289679289,0.002912722062319517,0.029156193137168884,0.999569833278656,0.0,0.0,0.0,0.0,0.0,0.0,0.0,0.0,0.0,3.3419971466064453,0.32931602001190186,0.15768565237522125,0.0,0.0,0.0,0.0,0.0,0.0,0.0,0.0,0.0,-0.007876965217292309,-0.0135909179225564,0.31715157628059387,0.0,0.0,0.0,0.0,0.0,0.0,0.0,0.0,0.0
1606826260762394298,558614,1606826260757092840,imu_link,0.0012916743289679289,0.002912722062319517,0.029156193137168884,0.999569833278656,0.0,0.0,0.0,0.0,0.0,0.0,0.0,0.0,0.0,3.3419971466064453,0.32931602001190186,0.15768565237522125,0.0,0.0,0.0,0.0,0.0,0.0,0.0,0.0,0.0,-0.007876965217292309,-0.0135909179225564,0.31715157628059387,0.0,0.0,0.0,0.0,0.0,0.0,0.0,0.0,0.0
1606826260762401231,558615,1606826260757171516,imu_link,0.0012891680235043168,0.0029111644253134727,0.02915612980723381,0.999569833278656,0.0,0.0,0.0,0.0,0.0,0.0,0.0,0.0,0.0,3.3419888019561768,0.32914596796035767,0.15739332139492035,0.0,0.0,0.0,0.0,0.0,0.0,0.0,0.0,0.0,-0.0027224584482610226,-0.0044326516799628735,0.3252022862434387,0.0,0.0,0.0,0.0,0.0,0.0,0.0,0.0,0.0
1606826260762407023,558616,1606826260757237103,imu_link,0.0012891680235043168,0.0029111644253134727,0.02915612980723381,0.999569833278656,0.0,0.0,0.0,0.0,0.0,0.0,0.0,0.0,0.0,3.3419888019561768,0.32914596796035767,0.15739332139492035,0.0,0.0,0.0,0.0,0.0,0.0,0.0,0.0,0.0,-0.0027224584482610226,-0.0044326516799628735,0.3252022862434387,0.0,0.0,0.0,0.0,0.0,0.0,0.0,0.0,0.0
1606826260762424340,558617,1606826260757367875,imu_link,0.001289829844608903,0.0029098803643137217,0.029159845784306526,0.9995697736740112,0.0,0.0,0.0,0.0,0.0,0.0,0.0,0.0,0.0,3.342414617538452,0.32899612188339233,0.15746605396270752,0.0,0.0,0.0,0.0,0.0,0.0,0.0,0.0,0.0,-0.004697137046605349,-0.0007490227581001818,0.3289546072483063,0.0,0.0,0.0,0.0,0.0,0.0,0.0,0.0,0.0
1606826260762433793,558618,1606826260757450024,imu_link,0.001289829844608903,0.0029098803643137217,0.029159845784306526,0.9995697736740112,0.0,0.0,0.0,0.0,0.0,0.0,0.0,0.0,0.0,3.342414617538452,0.32899612188339233,0.15746605396270752,0.0,0.0,0.0,0.0,0.0,0.0,0.0,0.0,0.0,-0.004697137046605349,-0.0007490227581001818,0.3289546072483063,0.0,0.0,0.0,0.0,0.0,0.0,0.0,0.0,0.0
1606826260762441849,558619,1606826260757518913,imu_link,0.0012898845598101616,0.0029110608156770468,0.02915903367102146,0.9995697736740112,0.0,0.0,0.0,0.0,0.0,0.0,0.0,0.0,0.0,3.3423216342926025,0.3291313052177429,0.1574760228395462,0.0,0.0,0.0,0.0,0.0,0.0,0.0,0.0,0.0,-0.01192864403128624,-0.00030438712565228343,0.33325400948524475,0.0,0.0,0.0,0.0,0.0,0.0,0.0,0.0,0.0
1606826260764171989,558620,1606826260757600831,imu_link,0.0012898845598101616,0.0029110608156770468,0.02915903367102146,0.9995697736740112,0.0,0.0,0.0,0.0,0.0,0.0,0.0,0.0,0.0,3.3423216342926025,0.3291313052177429,0.1574760228395462,0.0,0.0,0.0,0.0,0.0,0.0,0.0,0.0,0.0,-0.01192864403128624,-0.00030438712565228343,0.33325400948524475,0.0,0.0,0.0,0.0,0.0,0.0,0.0,0.0,0.0
1606826260764190687,558621,1606826260757673234,imu_link,0.001290652435272932,0.0029096908401697874,0.02916070632636547,0.9995697140693665,0.0,0.0,0.0,0.0,0.0,0.0,0.0,0.0,0.0,3.3425135612487793,0.3289715349674225,0.15755996108055115,0.0,0.0,0.0,0.0,0.0,0.0,0.0,0.0,0.0,0.0021755280904471874,0.009005003608763218,0.3263913094997406,0.0,0.0,0.0,0.0,0.0,0.0,0.0,0.0,0.0
1606826260775034563,558622,1606826260770557244,imu_link,0.001290652435272932,0.0029096908401697874,0.02916070632636547,0.9995697140693665,0.0,0.0,0.0,0.0,0.0,0.0,0.0,0.0,0.0,3.3425135612487793,0.3289715349674225,0.15755996108055115,0.0,0.0,0.0,0.0,0.0,0.0,0.0,0.0,0.0,0.0021755280904471874,0.009005003608763218,0.3263913094997406,0.0,0.0,0.0,0.0,0.0,0.0,0.0,0.0,0.0
1606826260775796212,558623,1606826260770735343,imu_link,0.0012917185667902231,0.0029095818754285574,0.029159555211663246,0.9995697140693665,0.0,0.0,0.0,0.0,0.0,0.0,0.0,0.0,0.0,3.3423821926116943,0.32895565032958984,0.15768133103847504,0.0,0.0,0.0,0.0,0.0,0.0,0.0,0.0,0.0,-0.002135548507794738,0.016258064657449722,0.3108261525630951,0.0,0.0,0.0,0.0,0.0,0.0,0.0,0.0,0.0
1606826260775832345,558624,1606826260770790101,imu_link,0.0012917185667902231,0.0029095818754285574,0.029159555211663246,0.9995697140693665,0.0,0.0,0.0,0.0,0.0,0.0,0.0,0.0,0.0,3.3423821926116943,0.32895565032958984,0.15768133103847504,0.0,0.0,0.0,0.0,0.0,0.0,0.0,0.0,0.0,-0.002135548507794738,0.016258064657449722,0.3108261525630951,0.0,0.0,0.0,0.0,0.0,0.0,0.0,0.0,0.0
1606826260775869095,558625,1606826260770835363,imu_link,0.001289099222049117,0.0029083616100251675,0.029160456731915474,0.9995697140693665,0.0,0.0,0.0,0.0,0.0,0.0,0.0,0.0,0.0,3.34248423576355,0.3288244903087616,0.15737749636173248,0.0,0.0,0.0,0.0,0.0,0.0,0.0,0.0,0.0,-0.017608264461159706,0.010669412091374397,0.31317517161369324,0.0,0.0,0.0,0.0,0.0,0.0,0.0,0.0,0.0
1606826260775887519,558626,1606826260770891194,imu_link,0.001289099222049117,0.0029083616100251675,0.029160456731915474,0.9995697140693665,0.0,0.0,0.0,0.0,0.0,0.0,0.0,0.0,0.0,3.34248423576355,0.3288244903087616,0.15737749636173248,0.0,0.0,0.0,0.0,0.0,0.0,0.0,0.0,0.0,-0.017608264461159706,0.010669412091374397,0.31317517161369324,0.0,0.0,0.0,0.0,0.0,0.0,0.0,0.0,0.0
1606826260775906282,558627,1606826260770939028,imu_link,0.001289567444473505,0.002909499453380704,0.02916133590042591,0.9995696544647217,0.0,0.0,0.0,0.0,0.0,0.0,0.0,0.0,0.0,3.342585325241089,0.3289531171321869,0.15743523836135864,0.0,0.0,0.0,0.0,0.0,0.0,0.0,0.0,0.0,-0.019412240013480186,0.00978635810315609,0.3174588084220886,0.0,0.0,0.0,0.0,0.0,0.0,0.0,0.0,0.0
1606826260775920597,558628,1606826260771003425,imu_link,0.001289567444473505,0.002909499453380704,0.02916133590042591,0.9995696544647217,0.0,0.0,0.0,0.0,0.0,0.0,0.0,0.0,0.0,3.342585325241089,0.3289531171321869,0.15743523836135864,0.0,0.0,0.0,0.0,0.0,0.0,0.0,0.0,0.0,-0.019412240013480186,0.00978635810315609,0.3174588084220886,0.0,0.0,0.0,0.0,0.0,0.0,0.0,0.0,0.0
1606826260775931876,558629,1606826260771055279,imu_link,0.0012896303087472916,0.0029075664933770895,0.0291629396378994,0.9995696544647217,0.0,0.0,0.0,0.0,0.0,0.0,0.0,0.0,0.0,3.342768669128418,0.3287312686443329,0.15743650496006012,0.0,0.0,0.0,0.0,0.0,0.0,0.0,0.0,0.0,-0.001295116962864995,0.023317702114582062,0.3124920725822449,0.0,0.0,0.0,0.0,0.0,0.0,0.0,0.0,0.0
1606826260775947429,558630,1606826260771139276,imu_link,0.0012896303087472916,0.0029075664933770895,0.0291629396378994,0.9995696544647217,0.0,0.0,0.0,0.0,0.0,0.0,0.0,0.0,0.0,3.342768669128418,0.3287312686443329,0.15743650496006012,0.0,0.0,0.0,0.0,0.0,0.0,0.0,0.0,0.0,-0.001295116962864995,0.023317702114582062,0.3124920725822449,0.0,0.0,0.0,0.0,0.0,0.0,0.0,0.0,0.0
1606826260777237610,558631,1606826260771195305,imu_link,0.0012901781592518091,0.002908670110628009,0.0291636623442173,0.9995695948600769,0.0,0.0,0.0,0.0,0.0,0.0,0.0,0.0,0.0,3.3428521156311035,0.3288557231426239,0.1575031727552414,0.0,0.0,0.0,0.0,0.0,0.0,0.0,0.0,0.0,0.015092307701706886,0.022011930122971535,0.29935047030448914,0.0,0.0,0.0,0.0,0.0,0.0,0.0,0.0,0.0
1606826260777261822,558632,1606826260771247912,imu_link,0.0012901781592518091,0.002908670110628009,0.0291636623442173,0.9995695948600769,0.0,0.0,0.0,0.0,0.0,0.0,0.0,0.0,0.0,3.3428521156311035,0.3288557231426239,0.1575031727552414,0.0,0.0,0.0,0.0,0.0,0.0,0.0,0.0,0.0,0.015092307701706886,0.022011930122971535,0.29935047030448914,0.0,0.0,0.0,0.0,0.0,0.0,0.0,0.0,0.0
1606826260789178466,558633,1606826260784157968,imu_link,0.0012870487989857793,0.002911419840529561,0.029168957844376564,0.9995694160461426,0.0,0.0,0.0,0.0,0.0,0.0,0.0,0.0,0.0,3.343458652496338,0.3291803002357483,0.15715567767620087,0.0,0.0,0.0,0.0,0.0,0.0,0.0,0.0,0.0,0.008691134862601757,-0.006038279738277197,0.3044244647026062,0.0,0.0,0.0,0.0,0.0,0.0,0.0,0.0,0.0
1606826260789198570,558634,1606826260784267893,imu_link,0.0012870487989857793,0.002911419840529561,0.029168957844376564,0.9995694160461426,0.0,0.0,0.0,0.0,0.0,0.0,0.0,0.0,0.0,3.343458652496338,0.3291803002357483,0.15715567767620087,0.0,0.0,0.0,0.0,0.0,0.0,0.0,0.0,0.0,0.008691134862601757,-0.006038279738277197,0.3044244647026062,0.0,0.0,0.0,0.0,0.0,0.0,0.0,0.0,0.0
1606826260789209251,558635,1606826260784416817,imu_link,0.0012886801268905401,0.0029099946841597557,0.029169006273150444,0.9995694160461426,0.0,0.0,0.0,0.0,0.0,0.0,0.0,0.0,0.0,3.3434646129608154,0.32901158928871155,0.15733778476715088,0.0,0.0,0.0,0.0,0.0,0.0,0.0,0.0,0.0,0.009152901358902454,-0.01607832871377468,0.2999580204486847,0.0,0.0,0.0,0.0,0.0,0.0,0.0,0.0,0.0
1606826260789225222,558636,1606826260784486013,imu_link,0.0012886801268905401,0.0029099946841597557,0.029169006273150444,0.9995694160461426,0.0,0.0,0.0,0.0,0.0,0.0,0.0,0.0,0.0,3.3434646129608154,0.32901158928871155,0.15733778476715088,0.0,0.0,0.0,0.0,0.0,0.0,0.0,0.0,0.0,0.009152901358902454,-0.01607832871377468,0.2999580204486847,0.0,0.0,0.0,0.0,0.0,0.0,0.0,0.0,0.0
1606826260789238959,558637,1606826260784552310,imu_link,0.0012925873743370175,0.0029121411498636007,0.029173830524086952,0.999569296836853,0.0,0.0,0.0,0.0,0.0,0.0,0.0,0.0,0.0,3.3440191745758057,0.32924365997314453,0.15779410302639008,0.0,0.0,0.0,0.0,0.0,0.0,0.0,0.0,0.0,0.012723701074719429,0.0011644389014691114,0.3002898395061493,0.0,0.0,0.0,0.0,0.0,0.0,0.0,0.0,0.0
1606826260790584652,558638,1606826260784630426,imu_link,0.0012925873743370175,0.0029121411498636007,0.029173830524086952,0.999569296836853,0.0,0.0,0.0,0.0,0.0,0.0,0.0,0.0,0.0,3.3440191745758057,0.32924365997314453,0.15779410302639008,0.0,0.0,0.0,0.0,0.0,0.0,0.0,0.0,0.0,0.012723701074719429,0.0011644389014691114,0.3002898395061493,0.0,0.0,0.0,0.0,0.0,0.0,0.0,0.0,0.0
1606826260790606740,558639,1606826260784711710,imu_link,0.0012912021484225988,0.0029115809593349695,0.029174480587244034,0.999569296836853,0.0,0.0,0.0,0.0,0.0,0.0,0.0,0.0,0.0,3.344093084335327,0.32918402552604675,0.15763376653194427,0.0,0.0,0.0,0.0,0.0,0.0,0.0,0.0,0.0,0.025779614225029945,0.0042738900519907475,0.3278827667236328,0.0,0.0,0.0,0.0,0.0,0.0,0.0,0.0,0.0
1606826260790620787,558640,1606826260784774362,imu_link,0.0012912021484225988,0.0029115809593349695,0.029174480587244034,0.999569296836853,0.0,0.0,0.0,0.0,0.0,0.0,0.0,0.0,0.0,3.344093084335327,0.32918402552604675,0.15763376653194427,0.0,0.0,0.0,0.0,0.0,0.0,0.0,0.0,0.0,0.025779614225029945,0.0042738900519907475,0.3278827667236328,0.0,0.0,0.0,0.0,0.0,0.0,0.0,0.0,0.0
1606826260790636470,558641,1606826260784845691,imu_link,0.0012911385856568813,0.0029145737644284964,0.029173528775572777,0.999569296836853,0.0,0.0,0.0,0.0,0.0,0.0,0.0,0.0,0.0,3.343984603881836,0.3295271396636963,0.15763616561889648,0.0,0.0,0.0,0.0,0.0,0.0,0.0,0.0,0.0,0.02281951531767845,-0.014202914200723171,0.3286644220352173,0.0,0.0,0.0,0.0,0.0,0.0,0.0,0.0,0.0
1606826260795090917,558642,1606826260784914991,imu_link,0.0012911385856568813,0.0029145737644284964,0.029173528775572777,0.999569296836853,0.0,0.0,0.0,0.0,0.0,0.0,0.0,0.0,0.0,3.343984603881836,0.3295271396636963,0.15763616561889648,0.0,0.0,0.0,0.0,0.0,0.0,0.0,0.0,0.0,0.02281951531767845,-0.014202914200723171,0.3286644220352173,0.0,0.0,0.0,0.0,0.0,0.0,0.0,0.0,0.0
1606826260795109903,558643,1606826260784980687,imu_link,0.0012915352126583457,0.0029144345317035913,0.02917485684156418,0.9995692372322083,0.0,0.0,0.0,0.0,0.0,0.0,0.0,0.0,0.0,3.344137191772461,0.3295096755027771,0.15768158435821533,0.0,0.0,0.0,0.0,0.0,0.0,0.0,0.0,0.0,0.017771128565073013,-0.012598145753145218,0.303162544965744,0.0,0.0,0.0,0.0,0.0,0.0,0.0,0.0,0.0
1606826260802577238,558644,1606826260797855304,imu_link,0.0012915352126583457,0.0029144345317035913,0.02917485684156418,0.9995692372322083,0.0,0.0,0.0,0.0,0.0,0.0,0.0,0.0,0.0,3.344137191772461,0.3295096755027771,0.15768158435821533,0.0,0.0,0.0,0.0,0.0,0.0,0.0,0.0,0.0,0.017771128565073013,-0.012598145753145218,0.303162544965744,0.0,0.0,0.0,0.0,0.0,0.0,0.0,0.0,0.0
1606826260804188198,558645,1606826260798031198,imu_link,0.0012942460598424077,0.0029186480678617954,0.02917283959686756,0.999569296836853,0.0,0.0,0.0,0.0,0.0,0.0,0.0,0.0,0.0,3.343907117843628,0.32998356223106384,0.15800553560256958,0.0,0.0,0.0,0.0,0.0,0.0,0.0,0.0,0.0,0.014427263289690018,0.021935544908046722,0.31081995368003845,0.0,0.0,0.0,0.0,0.0,0.0,0.0,0.0,0.0
1606826260804209729,558646,1606826260798107352,imu_link,0.0012942460598424077,0.0029186480678617954,0.02917283959686756,0.999569296836853,0.0,0.0,0.0,0.0,0.0,0.0,0.0,0.0,0.0,3.343907117843628,0.32998356223106384,0.15800553560256958,0.0,0.0,0.0,0.0,0.0,0.0,0.0,0.0,0.0,0.014427263289690018,0.021935544908046722,0.31081995368003845,0.0,0.0,0.0,0.0,0.0,0.0,0.0,0.0,0.0
1606826260804228049,558647,1606826260798176387,imu_link,0.0012957194121554494,0.0029176617972552776,0.029172586277127266,0.9995693564414978,0.0,0.0,0.0,0.0,0.0,0.0,0.0,0.0,0.0,3.3438785076141357,0.3298656940460205,0.1581709086894989,0.0,0.0,0.0,0.0,0.0,0.0,0.0,0.0,0.0,-0.010333052836358547,0.03181902691721916,0.3443402647972107,0.0,0.0,0.0,0.0,0.0,0.0,0.0,0.0,0.0
1606826260804234731,558648,1606826260798262145,imu_link,0.0012957194121554494,0.0029176617972552776,0.029172586277127266,0.9995693564414978,0.0,0.0,0.0,0.0,0.0,0.0,0.0,0.0,0.0,3.3438785076141357,0.3298656940460205,0.1581709086894989,0.0,0.0,0.0,0.0,0.0,0.0,0.0,0.0,0.0,-0.010333052836358547,0.03181902691721916,0.3443402647972107,0.0,0.0,0.0,0.0,0.0,0.0,0.0,0.0,0.0
1606826260804247080,558649,1606826260798381353,imu_link,0.0012915380066260695,0.002914845710620284,0.029168618842959404,0.9995694756507874,0.0,0.0,0.0,0.0,0.0,0.0,0.0,0.0,0.0,3.343421697616577,0.32955774664878845,0.15768122673034668,0.0,0.0,0.0,0.0,0.0,0.0,0.0,0.0,0.0,-0.0019070364069193602,0.011529183946549892,0.35199907422065735,0.0,0.0,0.0,0.0,0.0,0.0,0.0,0.0,0.0
1606826260804255160,558650,1606826260798461726,imu_link,0.0012915380066260695,0.002914845710620284,0.029168618842959404,0.9995694756507874,0.0,0.0,0.0,0.0,0.0,0.0,0.0,0.0,0.0,3.343421697616577,0.32955774664878845,0.15768122673034668,0.0,0.0,0.0,0.0,0.0,0.0,0.0,0.0,0.0,-0.0019070364069193602,0.011529183946549892,0.35199907422065735,0.0,0.0,0.0,0.0,0.0,0.0,0.0,0.0,0.0
1606826260804261314,558651,1606826260798530280,imu_link,0.0012886226177215576,0.0029151500202715397,0.02916993759572506,0.9995694160461426,0.0,0.0,0.0,0.0,0.0,0.0,0.0,0.0,0.0,3.3435723781585693,0.3296021521091461,0.15734873712062836,0.0,0.0,0.0,0.0,0.0,0.0,0.0,0.0,0.0,0.006727966014295816,0.0007805813802406192,0.32496288418769836,0.0,0.0,0.0,0.0,0.0,0.0,0.0,0.0,0.0
1606826260804281947,558652,1606826260798639100,imu_link,0.0012886226177215576,0.0029151500202715397,0.02916993759572506,0.9995694160461426,0.0,0.0,0.0,0.0,0.0,0.0,0.0,0.0,0.0,3.3435723781585693,0.3296021521091461,0.15734873712062836,0.0,0.0,0.0,0.0,0.0,0.0,0.0,0.0,0.0,0.006727966014295816,0.0007805813802406192,0.32496288418769836,0.0,0.0,0.0,0.0,0.0,0.0,0.0,0.0,0.0
1606826260805822855,558653,1606826260798717320,imu_link,0.0012884839670732617,0.0029173700604587793,0.02916734479367733,0.9995694756507874,0.0,0.0,0.0,0.0,0.0,0.0,0.0,0.0,0.0,3.3432750701904297,0.32985731959342957,0.1573394238948822,0.0,0.0,0.0,0.0,0.0,0.0,0.0,0.0,0.0,0.0010127457790076733,0.0017739534378051758,0.3177526295185089,0.0,0.0,0.0,0.0,0.0,0.0,0.0,0.0,0.0
1606826260805839377,558654,1606826260798785678,imu_link,0.0012884839670732617,0.0029173700604587793,0.02916734479367733,0.9995694756507874,0.0,0.0,0.0,0.0,0.0,0.0,0.0,0.0,0.0,3.3432750701904297,0.32985731959342957,0.1573394238948822,0.0,0.0,0.0,0.0,0.0,0.0,0.0,0.0,0.0,0.0010127457790076733,0.0017739534378051758,0.3177526295185089,0.0,0.0,0.0,0.0,0.0,0.0,0.0,0.0,0.0
1606826260815399145,558655,1606826260810867084,imu_link,0.0012882925802841783,0.0029178098775446415,0.02916787564754486,0.9995694756507874,0.0,0.0,0.0,0.0,0.0,0.0,0.0,0.0,0.0,3.3433358669281006,0.32990825176239014,0.15731915831565857,0.0,0.0,0.0,0.0,0.0,0.0,0.0,0.0,0.0,0.020722931250929832,0.01154909934848547,0.33525946736335754,0.0,0.0,0.0,0.0,0.0,0.0,0.0,0.0,0.0
1606826260815860295,558656,1606826260810962441,imu_link,0.0012882925802841783,0.0029178098775446415,0.02916787564754486,0.9995694756507874,0.0,0.0,0.0,0.0,0.0,0.0,0.0,0.0,0.0,3.3433358669281006,0.32990825176239014,0.15731915831565857,0.0,0.0,0.0,0.0,0.0,0.0,0.0,0.0,0.0,0.020722931250929832,0.01154909934848547,0.33525946736335754,0.0,0.0,0.0,0.0,0.0,0.0,0.0,0.0,0.0
1606826260815877100,558657,1606826260811090006,imu_link,0.0012865139869973063,0.0029214094392955303,0.029161257669329643,0.9995696544647217,0.0,0.0,0.0,0.0,0.0,0.0,0.0,0.0,0.0,3.3425776958465576,0.3303275406360626,0.15712524950504303,0.0,0.0,0.0,0.0,0.0,0.0,0.0,0.0,0.0,0.02654985897243023,0.010414617136120796,0.336504727602005,0.0,0.0,0.0,0.0,0.0,0.0,0.0,0.0,0.0
1606826260815887718,558658,1606826260811144147,imu_link,0.0012865139869973063,0.0029214094392955303,0.029161257669329643,0.9995696544647217,0.0,0.0,0.0,0.0,0.0,0.0,0.0,0.0,0.0,3.3425776958465576,0.3303275406360626,0.15712524950504303,0.0,0.0,0.0,0.0,0.0,0.0,0.0,0.0,0.0,0.02654985897243023,0.010414617136120796,0.336504727602005,0.0,0.0,0.0,0.0,0.0,0.0,0.0,0.0,0.0
1606826260815900080,558659,1606826260811194056,imu_link,0.0012880314607173204,0.0029232753440737724,0.029163671657443047,0.9995695948600769,0.0,0.0,0.0,0.0,0.0,0.0,0.0,0.0,0.0,3.3428549766540527,0.3305358290672302,0.15730613470077515,0.0,0.0,0.0,0.0,0.0,0.0,0.0,0.0,0.0,0.0049169789999723434,-0.004710901528596878,0.3489301800727844,0.0,0.0,0.0,0.0,0.0,0.0,0.0,0.0,0.0
1606826260816986335,558660,1606826260811273148,imu_link,0.0012880314607173204,0.0029232753440737724,0.029163671657443047,0.9995695948600769,0.0,0.0,0.0,0.0,0.0,0.0,0.0,0.0,0.0,3.3428549766540527,0.3305358290672302,0.15730613470077515,0.0,0.0,0.0,0.0,0.0,0.0,0.0,0.0,0.0,0.0049169789999723434,-0.004710901528596878,0.3489301800727844,0.0,0.0,0.0,0.0,0.0,0.0,0.0,0.0,0.0
1606826260817005418,558661,1606826260811367513,imu_link,0.0012883812887594104,0.00292411632835865,0.02915862947702408,0.9995697140693665,0.0,0.0,0.0,0.0,0.0,0.0,0.0,0.0,0.0,3.3422772884368896,0.3306317627429962,0.15734732151031494,0.0,0.0,0.0,0.0,0.0,0.0,0.0,0.0,0.0,0.006812018807977438,-0.01981569267809391,0.36557209491729736,0.0,0.0,0.0,0.0,0.0,0.0,0.0,0.0,0.0
1606826260817019937,558662,1606826260811503911,imu_link,0.0012883812887594104,0.00292411632835865,0.02915862947702408,0.9995697140693665,0.0,0.0,0.0,0.0,0.0,0.0,0.0,0.0,0.0,3.3422772884368896,0.3306317627429962,0.15734732151031494,0.0,0.0,0.0,0.0,0.0,0.0,0.0,0.0,0.0,0.006812018807977438,-0.01981569267809391,0.36557209491729736,0.0,0.0,0.0,0.0,0.0,0.0,0.0,0.0,0.0
1606826260817028080,558663,1606826260811589472,imu_link,0.0012876996770501137,0.0029241887386888266,0.029160263016819954,0.9995696544647217,0.0,0.0,0.0,0.0,0.0,0.0,0.0,0.0,0.0,3.3424644470214844,0.33064207434654236,0.15727004408836365,0.0,0.0,0.0,0.0,0.0,0.0,0.0,0.0,0.0,0.011772869154810905,-0.022865459322929382,0.3431333601474762,0.0,0.0,0.0,0.0,0.0,0.0,0.0,0.0,0.0
1606826260817049971,558664,1606826260811646223,imu_link,0.0012876996770501137,0.0029241887386888266,0.029160263016819954,0.9995696544647217,0.0,0.0,0.0,0.0,0.0,0.0,0.0,0.0,0.0,3.3424644470214844,0.33064207434654236,0.15727004408836365,0.0,0.0,0.0,0.0,0.0,0.0,0.0,0.0,0.0,0.011772869154810905,-0.022865459322929382,0.3431333601474762,0.0,0.0,0.0,0.0,0.0,0.0,0.0,0.0,0.0
1606826260828863011,558665,1606826260824283142,imu_link,0.0012893531238660216,0.002928526373580098,0.029167428612709045,0.9995694160461426,0.0,0.0,0.0,0.0,0.0,0.0,0.0,0.0,0.0,3.343287229537964,0.33113226294517517,0.1574763059616089,0.0,0.0,0.0,0.0,0.0,0.0,0.0,0.0,0.0,0.0011246019275858998,-0.004605940543115139,0.31196096539497375,0.0,0.0,0.0,0.0,0.0,0.0,0.0,0.0,0.0
1606826260830415999,558666,1606826260824412204,imu_link,0.0012893531238660216,0.002928526373580098,0.029167428612709045,0.9995694160461426,0.0,0.0,0.0,0.0,0.0,0.0,0.0,0.0,0.0,3.343287229537964,0.33113226294517517,0.1574763059616089,0.0,0.0,0.0,0.0,0.0,0.0,0.0,0.0,0.0,0.0011246019275858998,-0.004605940543115139,0.31196096539497375,0.0,0.0,0.0,0.0,0.0,0.0,0.0,0.0,0.0
1606826260830459912,558667,1606826260824574953,imu_link,0.0012881450820714235,0.002929111011326313,0.0291681420058012,0.9995694160461426,0.0,0.0,0.0,0.0,0.0,0.0,0.0,0.0,0.0,3.3433687686920166,0.3312031626701355,0.1573401391506195,0.0,0.0,0.0,0.0,0.0,0.0,0.0,0.0,0.0,-0.011423933319747448,-0.005982981063425541,0.3100563585758209,0.0,0.0,0.0,0.0,0.0,0.0,0.0,0.0,0.0
1606826260830485350,558668,1606826260824648693,imu_link,0.0012881450820714235,0.002929111011326313,0.0291681420058012,0.9995694160461426,0.0,0.0,0.0,0.0,0.0,0.0,0.0,0.0,0.0,3.3433687686920166,0.3312031626701355,0.1573401391506195,0.0,0.0,0.0,0.0,0.0,0.0,0.0,0.0,0.0,-0.011423933319747448,-0.005982981063425541,0.3100563585758209,0.0,0.0,0.0,0.0,0.0,0.0,0.0,0.0,0.0
1606826260830494976,558669,1606826260824740794,imu_link,0.0012897016713395715,0.002928695874288678,0.02917162887752056,0.999569296836853,0.0,0.0,0.0,0.0,0.0,0.0,0.0,0.0,0.0,3.343769073486328,0.3311498463153839,0.157518208026886,0.0,0.0,0.0,0.0,0.0,0.0,0.0,0.0,0.0,-0.010127721354365349,-0.005017009563744068,0.33105677366256714,0.0,0.0,0.0,0.0,0.0,0.0,0.0,0.0,0.0
1606826260830554466,558670,1606826260824820395,imu_link,0.0012897016713395715,0.002928695874288678,0.02917162887752056,0.999569296836853,0.0,0.0,0.0,0.0,0.0,0.0,0.0,0.0,0.0,3.343769073486328,0.3311498463153839,0.157518208026886,0.0,0.0,0.0,0.0,0.0,0.0,0.0,0.0,0.0,-0.010127721354365349,-0.005017009563744068,0.33105677366256714,0.0,0.0,0.0,0.0,0.0,0.0,0.0,0.0,0.0
1606826260830562664,558671,1606826260824972052,imu_link,0.0012889208737760782,0.0029298756271600723,0.029170172289013863,0.9995693564414978,0.0,0.0,0.0,0.0,0.0,0.0,0.0,0.0,0.0,3.343601703643799,0.33128786087036133,0.15743222832679749,0.0,0.0,0.0,0.0,0.0,0.0,0.0,0.0,0.0,0.005132008343935013,0.004206548444926739,0.3468746840953827,0.0,0.0,0.0,0.0,0.0,0.0,0.0,0.0,0.0
1606826260830587198,558672,1606826260825051418,imu_link,0.0012889208737760782,0.0029298756271600723,0.029170172289013863,0.9995693564414978,0.0,0.0,0.0,0.0,0.0,0.0,0.0,0.0,0.0,3.343601703643799,0.33128786087036133,0.15743222832679749,0.0,0.0,0.0,0.0,0.0,0.0,0.0,0.0,0.0,0.005132008343935013,0.004206548444926739,0.3468746840953827,0.0,0.0,0.0,0.0,0.0,0.0,0.0,0.0,0.0
1606826260830599520,558673,1606826260825119681,imu_link,0.0012884222669526935,0.0029305547941476107,0.0291763786226511,0.9995691776275635,0.0,0.0,0.0,0.0,0.0,0.0,0.0,0.0,0.0,3.344313383102417,0.33136633038520813,0.15737943351268768,0.0,0.0,0.0,0.0,0.0,0.0,0.0,0.0,0.0,0.0037090491969138384,-0.014285560697317123,0.3481255769729614,0.0,0.0,0.0,0.0,0.0,0.0,0.0,0.0,0.0
1606826260830867768,558674,1606826260825194441,imu_link,0.0012884222669526935,0.0029305547941476107,0.0291763786226511,0.9995691776275635,0.0,0.0,0.0,0.0,0.0,0.0,0.0,0.0,0.0,3.344313383102417,0.33136633038520813,0.15737943351268768,0.0,0.0,0.0,0.0,0.0,0.0,0.0,0.0,0.0,0.0037090491969138384,-0.014285560697317123,0.3481255769729614,0.0,0.0,0.0,0.0,0.0,0.0,0.0,0.0,0.0
1606826260830895586,558675,1606826260825270670,imu_link,0.0012873350642621517,0.002930668881163001,0.029175547882914543,0.9995692372322083,0.0,0.0,0.0,0.0,0.0,0.0,0.0,0.0,0.0,3.344217300415039,0.3313831686973572,0.15725500881671906,0.0,0.0,0.0,0.0,0.0,0.0,0.0,0.0,0.0,-0.003846685402095318,-0.02084389142692089,0.3465940058231354,0.0,0.0,0.0,0.0,0.0,0.0,0.0,0.0,0.0
1606826260842587415,558676,1606826260838062321,imu_link,0.0012873350642621517,0.002930668881163001,0.029175547882914543,0.9995692372322083,0.0,0.0,0.0,0.0,0.0,0.0,0.0,0.0,0.0,3.344217300415039,0.3313831686973572,0.15725500881671906,0.0,0.0,0.0,0.0,0.0,0.0,0.0,0.0,0.0,-0.003846685402095318,-0.02084389142692089,0.3465940058231354,0.0,0.0,0.0,0.0,0.0,0.0,0.0,0.0,0.0
1606826260844161790,558677,1606826260838187623,imu_link,0.001290903310291469,0.002930418821051717,0.02918054349720478,0.9995690584182739,0.0,0.0,0.0,0.0,0.0,0.0,0.0,0.0,0.0,3.3447914123535156,0.33134180307388306,0.15766455233097076,0.0,0.0,0.0,0.0,0.0,0.0,0.0,0.0,0.0,-0.00024456577375531197,0.004156207200139761,0.34580421447753906,0.0,0.0,0.0,0.0,0.0,0.0,0.0,0.0,0.0
1606826260844195917,558678,1606826260838347744,imu_link,0.001290903310291469,0.002930418821051717,0.02918054349720478,0.9995690584182739,0.0,0.0,0.0,0.0,0.0,0.0,0.0,0.0,0.0,3.3447914123535156,0.33134180307388306,0.15766455233097076,0.0,0.0,0.0,0.0,0.0,0.0,0.0,0.0,0.0,-0.00024456577375531197,0.004156207200139761,0.34580421447753906,0.0,0.0,0.0,0.0,0.0,0.0,0.0,0.0,0.0
1606826260844207958,558679,1606826260838424557,imu_link,0.0012907471973448992,0.002930077025666833,0.029181791469454765,0.9995689988136292,0.0,0.0,0.0,0.0,0.0,0.0,0.0,0.0,0.0,3.3449344635009766,0.3313029408454895,0.15764594078063965,0.0,0.0,0.0,0.0,0.0,0.0,0.0,0.0,0.0,0.010389923118054867,0.017374474555253983,0.3454001247882843,0.0,0.0,0.0,0.0,0.0,0.0,0.0,0.0,0.0
1606826260844224432,558680,1606826260838515536,imu_link,0.0012907471973448992,0.002930077025666833,0.029181791469454765,0.9995689988136292,0.0,0.0,0.0,0.0,0.0,0.0,0.0,0.0,0.0,3.3449344635009766,0.3313029408454895,0.15764594078063965,0.0,0.0,0.0,0.0,0.0,0.0,0.0,0.0,0.0,0.010389923118054867,0.017374474555253983,0.3454001247882843,0.0,0.0,0.0,0.0,0.0,0.0,0.0,0.0,0.0
1606826260844234608,558681,1606826260838580870,imu_link,0.0012874897802248597,0.0029336963780224323,0.02918538823723793,0.9995688796043396,0.0,0.0,0.0,0.0,0.0,0.0,0.0,0.0,0.0,3.345346689224243,0.33172786235809326,0.1572861224412918,0.0,0.0,0.0,0.0,0.0,0.0,0.0,0.0,0.0,0.012363532558083534,0.0030166753567755222,0.32718029618263245,0.0,0.0,0.0,0.0,0.0,0.0,0.0,0.0,0.0
1606826260844346398,558682,1606826260838736509,imu_link,0.0012874897802248597,0.0029336963780224323,0.02918538823723793,0.9995688796043396,0.0,0.0,0.0,0.0,0.0,0.0,0.0,0.0,0.0,3.345346689224243,0.33172786235809326,0.1572861224412918,0.0,0.0,0.0,0.0,0.0,0.0,0.0,0.0,0.0,0.012363532558083534,0.0030166753567755222,0.32718029618263245,0.0,0.0,0.0,0.0,0.0,0.0,0.0,0.0,0.0
1606826260844363963,558683,1606826260838815620,imu_link,0.001287809107452631,0.0029338125605136156,0.029184840619564056,0.9995689392089844,0.0,0.0,0.0,0.0,0.0,0.0,0.0,0.0,0.0,3.3452837467193604,0.33174020051956177,0.15732291340827942,0.0,0.0,0.0,0.0,0.0,0.0,0.0,0.0,0.0,0.005954321939498186,-0.009897272102534771,0.31899407505989075,0.0,0.0,0.0,0.0,0.0,0.0,0.0,0.0,0.0
1606826260844381024,558684,1606826260838886156,imu_link,0.001287809107452631,0.0029338125605136156,0.029184840619564056,0.9995689392089844,0.0,0.0,0.0,0.0,0.0,0.0,0.0,0.0,0.0,3.3452837467193604,0.33174020051956177,0.15732291340827942,0.0,0.0,0.0,0.0,0.0,0.0,0.0,0.0,0.0,0.005954321939498186,-0.009897272102534771,0.31899407505989075,0.0,0.0,0.0,0.0,0.0,0.0,0.0,0.0,0.0
1606826260844807760,558685,1606826260839086833,imu_link,0.0012889641802757978,0.0029360384214669466,0.02918967418372631,0.9995688199996948,0.0,0.0,0.0,0.0,0.0,0.0,0.0,0.0,0.0,3.3458383083343506,0.3319905698299408,0.15746426582336426,0.0,0.0,0.0,0.0,0.0,0.0,0.0,0.0,0.0,-0.004758674651384354,-0.002116667339578271,0.3383679687976837,0.0,0.0,0.0,0.0,0.0,0.0,0.0,0.0,0.0
1606826260844825916,558686,1606826260839178658,imu_link,0.0012889641802757978,0.0029360384214669466,0.02918967418372631,0.9995688199996948,0.0,0.0,0.0,0.0,0.0,0.0,0.0,0.0,0.0,3.3458383083343506,0.3319905698299408,0.15746426582336426,0.0,0.0,0.0,0.0,0.0,0.0,0.0,0.0,0.0,-0.004758674651384354,-0.002116667339578271,0.3383679687976837,0.0,0.0,0.0,0.0,0.0,0.0,0.0,0.0,0.0
1606826260852597514,558687,1606826260847930656,imu_link,0.0012897177366539836,0.0029350784607231617,0.029191017150878906,0.99956876039505,0.0,0.0,0.0,0.0,0.0,0.0,0.0,0.0,0.0,3.3459928035736084,0.33187785744667053,0.15754780173301697,0.0,0.0,0.0,0.0,0.0,0.0,0.0,0.0,0.0,-0.004840392619371414,0.0134986387565732,0.33238303661346436,0.0,0.0,0.0,0.0,0.0,0.0,0.0,0.0,0.0
1606826260853077973,558688,1606826260848025264,imu_link,0.0012897177366539836,0.0029350784607231617,0.029191017150878906,0.99956876039505,0.0,0.0,0.0,0.0,0.0,0.0,0.0,0.0,0.0,3.3459928035736084,0.33187785744667053,0.15754780173301697,0.0,0.0,0.0,0.0,0.0,0.0,0.0,0.0,0.0,-0.004840392619371414,0.0134986387565732,0.33238303661346436,0.0,0.0,0.0,0.0,0.0,0.0,0.0,0.0,0.0
1606826260853102216,558689,1606826260848144553,imu_link,0.0012884619645774364,0.0029337548185139894,0.029185988008975983,0.9995689392089844,0.0,0.0,0.0,0.0,0.0,0.0,0.0,0.0,0.0,3.3454153537750244,0.33173123002052307,0.15739786624908447,0.0,0.0,0.0,0.0,0.0,0.0,0.0,0.0,0.0,0.016118336468935013,0.02129039354622364,0.3008432686328888,0.0,0.0,0.0,0.0,0.0,0.0,0.0,0.0,0.0
1606826260853114793,558690,1606826260848327348,imu_link,0.0012884619645774364,0.0029337548185139894,0.029185988008975983,0.9995689392089844,0.0,0.0,0.0,0.0,0.0,0.0,0.0,0.0,0.0,3.3454153537750244,0.33173123002052307,0.15739786624908447,0.0,0.0,0.0,0.0,0.0,0.0,0.0,0.0,0.0,0.016118336468935013,0.02129039354622364,0.3008432686328888,0.0,0.0,0.0,0.0,0.0,0.0,0.0,0.0,0.0
1606826260853126778,558691,1606826260848386455,imu_link,0.0012895492836833,0.002933771349489689,0.02918810211122036,0.9995688199996948,0.0,0.0,0.0,0.0,0.0,0.0,0.0,0.0,0.0,3.34565806388855,0.33172914385795593,0.15752318501472473,0.0,0.0,0.0,0.0,0.0,0.0,0.0,0.0,0.0,0.012156291864812374,0.018512781709432602,0.29317641258239746,0.0,0.0,0.0,0.0,0.0,0.0,0.0,0.0,0.0
1606826260857814592,558692,1606826260848488126,imu_link,0.0012895492836833,0.002933771349489689,0.02918810211122036,0.9995688199996948,0.0,0.0,0.0,0.0,0.0,0.0,0.0,0.0,0.0,3.34565806388855,0.33172914385795593,0.15752318501472473,0.0,0.0,0.0,0.0,0.0,0.0,0.0,0.0,0.0,0.012156291864812374,0.018512781709432602,0.29317641258239746,0.0,0.0,0.0,0.0,0.0,0.0,0.0,0.0,0.0
1606826260857829128,558693,1606826260848547890,imu_link,0.0012864551972597837,0.0029361536726355553,0.02918406017124653,0.9995689392089844,0.0,0.0,0.0,0.0,0.0,0.0,0.0,0.0,0.0,3.3451943397521973,0.33201301097869873,0.15717540681362152,0.0,0.0,0.0,0.0,0.0,0.0,0.0,0.0,0.0,-0.011680088937282562,0.012374363839626312,0.3230728507041931,0.0,0.0,0.0,0.0,0.0,0.0,0.0,0.0,0.0
1606826260857835797,558694,1606826260848645863,imu_link,0.0012864551972597837,0.0029361536726355553,0.02918406017124653,0.9995689392089844,0.0,0.0,0.0,0.0,0.0,0.0,0.0,0.0,0.0,3.3451943397521973,0.33201301097869873,0.15717540681362152,0.0,0.0,0.0,0.0,0.0,0.0,0.0,0.0,0.0,-0.011680088937282562,0.012374363839626312,0.3230728507041931,0.0,0.0,0.0,0.0,0.0,0.0,0.0,0.0,0.0
1606826260867507466,558695,1606826260860777180,imu_link,0.0012875893153250217,0.0029379501938819885,0.029182009398937225,0.9995689988136292,0.0,0.0,0.0,0.0,0.0,0.0,0.0,0.0,0.0,3.3449597358703613,0.3322153091430664,0.1573106348514557,0.0,0.0,0.0,0.0,0.0,0.0,0.0,0.0,0.0,-0.009313264861702919,0.018871430307626724,0.3527762293815613,0.0,0.0,0.0,0.0,0.0,0.0,0.0,0.0,0.0
1606826260867525105,558696,1606826260860897515,imu_link,0.0012875893153250217,0.0029379501938819885,0.029182009398937225,0.9995689988136292,0.0,0.0,0.0,0.0,0.0,0.0,0.0,0.0,0.0,3.3449597358703613,0.3322153091430664,0.1573106348514557,0.0,0.0,0.0,0.0,0.0,0.0,0.0,0.0,0.0,-0.009313264861702919,0.018871430307626724,0.3527762293815613,0.0,0.0,0.0,0.0,0.0,0.0,0.0,0.0,0.0
1606826260867536791,558697,1606826260861113148,imu_link,0.0012834904482588172,0.0029374100267887115,0.029180293902754784,0.9995690584182739,0.0,0.0,0.0,0.0,0.0,0.0,0.0,0.0,0.0,3.344761848449707,0.3321674168109894,0.1568387746810913,0.0,0.0,0.0,0.0,0.0,0.0,0.0,0.0,0.0,-0.004353970289230347,0.017861785367131233,0.35776424407958984,0.0,0.0,0.0,0.0,0.0,0.0,0.0,0.0,0.0
1606826260867543669,558698,1606826260861192865,imu_link,0.0012834904482588172,0.0029374100267887115,0.029180293902754784,0.9995690584182739,0.0,0.0,0.0,0.0,0.0,0.0,0.0,0.0,0.0,3.344761848449707,0.3321674168109894,0.1568387746810913,0.0,0.0,0.0,0.0,0.0,0.0,0.0,0.0,0.0,-0.004353970289230347,0.017861785367131233,0.35776424407958984,0.0,0.0,0.0,0.0,0.0,0.0,0.0,0.0,0.0
1606826260867549278,558699,1606826260861264921,imu_link,0.001284056925214827,0.0029362780041992664,0.029181035235524178,0.9995690584182739,0.0,0.0,0.0,0.0,0.0,0.0,0.0,0.0,0.0,3.344846487045288,0.33203575015068054,0.15690010786056519,0.0,0.0,0.0,0.0,0.0,0.0,0.0,0.0,0.0,-0.007372437976300716,0.0020739291794598103,0.33549928665161133,0.0,0.0,0.0,0.0,0.0,0.0,0.0,0.0,0.0
1606826260898028023,558700,1606826260861368329,imu_link,0.001284056925214827,0.0029362780041992664,0.029181035235524178,0.9995690584182739,0.0,0.0,0.0,0.0,0.0,0.0,0.0,0.0,0.0,3.344846487045288,0.33203575015068054,0.15690010786056519,0.0,0.0,0.0,0.0,0.0,0.0,0.0,0.0,0.0,-0.007372437976300716,0.0020739291794598103,0.33549928665161133,0.0,0.0,0.0,0.0,0.0,0.0,0.0,0.0,0.0
1606826260898068050,558701,1606826260861445386,imu_link,0.0012833011569455266,0.0029365215450525284,0.02917848899960518,0.9995690584182739,0.0,0.0,0.0,0.0,0.0,0.0,0.0,0.0,0.0,3.3445546627044678,0.3320665657520294,0.15681353211402893,0.0,0.0,0.0,0.0,0.0,0.0,0.0,0.0,0.0,0.009311302565038204,0.006438614334911108,0.3099115192890167,0.0,0.0,0.0,0.0,0.0,0.0,0.0,0.0,0.0
1606826260898103396,558702,1606826260861514724,imu_link,0.0012833011569455266,0.0029365215450525284,0.02917848899960518,0.9995690584182739,0.0,0.0,0.0,0.0,0.0,0.0,0.0,0.0,0.0,3.3445546627044678,0.3320665657520294,0.15681353211402893,0.0,0.0,0.0,0.0,0.0,0.0,0.0,0.0,0.0,0.009311302565038204,0.006438614334911108,0.3099115192890167,0.0,0.0,0.0,0.0,0.0,0.0,0.0,0.0,0.0
1606826260898188226,558703,1606826260861587229,imu_link,0.001284793601371348,0.0029349555261433125,0.029175613075494766,0.9995692372322083,0.0,0.0,0.0,0.0,0.0,0.0,0.0,0.0,0.0,3.344224691390991,0.33188268542289734,0.15697826445102692,0.0,0.0,0.0,0.0,0.0,0.0,0.0,0.0,0.0,0.01520646270364523,0.014728441834449768,0.33161088824272156,0.0,0.0,0.0,0.0,0.0,0.0,0.0,0.0,0.0
1606826260898201487,558704,1606826260861653007,imu_link,0.001284793601371348,0.0029349555261433125,0.029175613075494766,0.9995692372322083,0.0,0.0,0.0,0.0,0.0,0.0,0.0,0.0,0.0,3.344224691390991,0.33188268542289734,0.15697826445102692,0.0,0.0,0.0,0.0,0.0,0.0,0.0,0.0,0.0,0.01520646270364523,0.014728441834449768,0.33161088824272156,0.0,0.0,0.0,0.0,0.0,0.0,0.0,0.0,0.0
1606826260898218795,558705,1606826260874323436,imu_link,0.0012824232690036297,0.002934127114713192,0.02917139232158661,0.999569296836853,0.0,0.0,0.0,0.0,0.0,0.0,0.0,0.0,0.0,3.343740463256836,0.3317963480949402,0.15670259296894073,0.0,0.0,0.0,0.0,0.0,0.0,0.0,0.0,0.0,-0.004538391251116991,0.006964400876313448,0.3495330512523651,0.0,0.0,0.0,0.0,0.0,0.0,0.0,0.0,0.0
1606826260898229333,558706,1606826260874446881,imu_link,0.0012824232690036297,0.002934127114713192,0.02917139232158661,0.999569296836853,0.0,0.0,0.0,0.0,0.0,0.0,0.0,0.0,0.0,3.343740463256836,0.3317963480949402,0.15670259296894073,0.0,0.0,0.0,0.0,0.0,0.0,0.0,0.0,0.0,-0.004538391251116991,0.006964400876313448,0.3495330512523651,0.0,0.0,0.0,0.0,0.0,0.0,0.0,0.0,0.0
1606826260898274926,558707,1606826260874598120,imu_link,0.0012832959182560444,0.002933319890871644,0.029170028865337372,0.9995693564414978,0.0,0.0,0.0,0.0,0.0,0.0,0.0,0.0,0.0,3.3435842990875244,0.3317011892795563,0.15679939091205597,0.0,0.0,0.0,0.0,0.0,0.0,0.0,0.0,0.0,-0.016708141192793846,0.0032489444129168987,0.3496845066547394,0.0,0.0,0.0,0.0,0.0,0.0,0.0,0.0,0.0
1606826260898293605,558708,1606826260874671238,imu_link,0.0012832959182560444,0.002933319890871644,0.029170028865337372,0.9995693564414978,0.0,0.0,0.0,0.0,0.0,0.0,0.0,0.0,0.0,3.3435842990875244,0.3317011892795563,0.15679939091205597,0.0,0.0,0.0,0.0,0.0,0.0,0.0,0.0,0.0,-0.016708141192793846,0.0032489444129168987,0.3496845066547394,0.0,0.0,0.0,0.0,0.0,0.0,0.0,0.0,0.0
1606826260898361596,558709,1606826260874761278,imu_link,0.0012846748577430844,0.0029327243100851774,0.029168609529733658,0.9995694160461426,0.0,0.0,0.0,0.0,0.0,0.0,0.0,0.0,0.0,3.343421697616577,0.33162856101989746,0.15695488452911377,0.0,0.0,0.0,0.0,0.0,0.0,0.0,0.0,0.0,-0.015004180371761322,0.02113656885921955,0.33942654728889465,0.0,0.0,0.0,0.0,0.0,0.0,0.0,0.0,0.0
1606826260898410591,558710,1606826260874843486,imu_link,0.0012846748577430844,0.0029327243100851774,0.029168609529733658,0.9995694160461426,0.0,0.0,0.0,0.0,0.0,0.0,0.0,0.0,0.0,3.343421697616577,0.33162856101989746,0.15695488452911377,0.0,0.0,0.0,0.0,0.0,0.0,0.0,0.0,0.0,-0.015004180371761322,0.02113656885921955,0.33942654728889465,0.0,0.0,0.0,0.0,0.0,0.0,0.0,0.0,0.0
1606826260898443679,558711,1606826260874936260,imu_link,0.001286028535105288,0.0029346311930567026,0.0291688721626997,0.9995694160461426,0.0,0.0,0.0,0.0,0.0,0.0,0.0,0.0,0.0,3.3434524536132812,0.33184245228767395,0.1571163833141327,0.0,0.0,0.0,0.0,0.0,0.0,0.0,0.0,0.0,-0.017054295167326927,0.017372548580169678,0.3231043517589569,0.0,0.0,0.0,0.0,0.0,0.0,0.0,0.0,0.0
1606826260898479195,558712,1606826260875011955,imu_link,0.001286028535105288,0.0029346311930567026,0.0291688721626997,0.9995694160461426,0.0,0.0,0.0,0.0,0.0,0.0,0.0,0.0,0.0,3.3434524536132812,0.33184245228767395,0.1571163833141327,0.0,0.0,0.0,0.0,0.0,0.0,0.0,0.0,0.0,-0.017054295167326927,0.017372548580169678,0.3231043517589569,0.0,0.0,0.0,0.0,0.0,0.0,0.0,0.0,0.0
1606826260898496310,558713,1606826260875083065,imu_link,0.0012814432848244905,0.0029326246585696936,0.029170576483011246,0.9995694160461426,0.0,0.0,0.0,0.0,0.0,0.0,0.0,0.0,0.0,3.3436458110809326,0.33162766695022583,0.15658503770828247,0.0,0.0,0.0,0.0,0.0,0.0,0.0,0.0,0.0,-0.011981702409684658,-0.009629005566239357,0.31648990511894226,0.0,0.0,0.0,0.0,0.0,0.0,0.0,0.0,0.0
1606826260898523162,558714,1606826260875152920,imu_link,0.0012814432848244905,0.0029326246585696936,0.029170576483011246,0.9995694160461426,0.0,0.0,0.0,0.0,0.0,0.0,0.0,0.0,0.0,3.3436458110809326,0.33162766695022583,0.15658503770828247,0.0,0.0,0.0,0.0,0.0,0.0,0.0,0.0,0.0,-0.011981702409684658,-0.009629005566239357,0.31648990511894226,0.0,0.0,0.0,0.0,0.0,0.0,0.0,0.0,0.0
1606826260898539662,558715,1606826260875220185,imu_link,0.0012816288508474827,0.0029327364172786474,0.029170099645853043,0.9995694160461426,0.0,0.0,0.0,0.0,0.0,0.0,0.0,0.0,0.0,3.3435914516448975,0.3316399157047272,0.1566065102815628,0.0,0.0,0.0,0.0,0.0,0.0,0.0,0.0,0.0,0.016762610524892807,0.0012645658571273088,0.31193050742149353,0.0,0.0,0.0,0.0,0.0,0.0,0.0,0.0,0.0
1606826260898562688,558716,1606826260888177831,imu_link,0.0012816288508474827,0.0029327364172786474,0.029170099645853043,0.9995694160461426,0.0,0.0,0.0,0.0,0.0,0.0,0.0,0.0,0.0,3.3435914516448975,0.3316399157047272,0.1566065102815628,0.0,0.0,0.0,0.0,0.0,0.0,0.0,0.0,0.0,0.016762610524892807,0.0012645658571273088,0.31193050742149353,0.0,0.0,0.0,0.0,0.0,0.0,0.0,0.0,0.0
1606826260898571251,558717,1606826260888311094,imu_link,0.0012830898631364107,0.0029360968619585037,0.02917228452861309,0.999569296836853,0.0,0.0,0.0,0.0,0.0,0.0,0.0,0.0,0.0,3.3438429832458496,0.3320196270942688,0.15678581595420837,0.0,0.0,0.0,0.0,0.0,0.0,0.0,0.0,0.0,0.02024945057928562,0.010734315030276775,0.3005235195159912,0.0,0.0,0.0,0.0,0.0,0.0,0.0,0.0,0.0
1606826260898754412,558718,1606826260888448669,imu_link,0.0012830898631364107,0.0029360968619585037,0.02917228452861309,0.999569296836853,0.0,0.0,0.0,0.0,0.0,0.0,0.0,0.0,0.0,3.3438429832458496,0.3320196270942688,0.15678581595420837,0.0,0.0,0.0,0.0,0.0,0.0,0.0,0.0,0.0,0.02024945057928562,0.010734315030276775,0.3005235195159912,0.0,0.0,0.0,0.0,0.0,0.0,0.0,0.0,0.0
1606826260898771527,558719,1606826260888524640,imu_link,0.0012817331589758396,0.0029343871865421534,0.029173240065574646,0.999569296836853,0.0,0.0,0.0,0.0,0.0,0.0,0.0,0.0,0.0,3.34395170211792,0.33182817697525024,0.15662500262260437,0.0,0.0,0.0,0.0,0.0,0.0,0.0,0.0,0.0,-0.008574442006647587,-0.0042808931320905685,0.3283102810382843,0.0,0.0,0.0,0.0,0.0,0.0,0.0,0.0,0.0
1606826260898785739,558720,1606826260888605667,imu_link,0.0012817331589758396,0.0029343871865421534,0.029173240065574646,0.999569296836853,0.0,0.0,0.0,0.0,0.0,0.0,0.0,0.0,0.0,3.34395170211792,0.33182817697525024,0.15662500262260437,0.0,0.0,0.0,0.0,0.0,0.0,0.0,0.0,0.0,-0.008574442006647587,-0.0042808931320905685,0.3283102810382843,0.0,0.0,0.0,0.0,0.0,0.0,0.0,0.0,0.0
1606826260898799882,558721,1606826260888683144,imu_link,0.0012831785716116428,0.0029349466785788536,0.02917604148387909,0.9995692372322083,0.0,0.0,0.0,0.0,0.0,0.0,0.0,0.0,0.0,3.344273567199707,0.33188700675964355,0.15679338574409485,0.0,0.0,0.0,0.0,0.0,0.0,0.0,0.0,0.0,-0.014693942852318287,-0.021605469286441803,0.37568938732147217,0.0,0.0,0.0,0.0,0.0,0.0,0.0,0.0,0.0
1606826260898825882,558722,1606826260888776039,imu_link,0.0012831785716116428,0.0029349466785788536,0.02917604148387909,0.9995692372322083,0.0,0.0,0.0,0.0,0.0,0.0,0.0,0.0,0.0,3.344273567199707,0.33188700675964355,0.15679338574409485,0.0,0.0,0.0,0.0,0.0,0.0,0.0,0.0,0.0,-0.014693942852318287,-0.021605469286441803,0.37568938732147217,0.0,0.0,0.0,0.0,0.0,0.0,0.0,0.0,0.0
1606826260898872712,558723,1606826260888849790,imu_link,0.0012839492410421371,0.002935927826911211,0.0291738361120224,0.999569296836853,0.0,0.0,0.0,0.0,0.0,0.0,0.0,0.0,0.0,3.3440208435058594,0.3319971561431885,0.15688420832157135,0.0,0.0,0.0,0.0,0.0,0.0,0.0,0.0,0.0,0.008012987673282623,-0.01367496233433485,0.34561678767204285,0.0,0.0,0.0,0.0,0.0,0.0,0.0,0.0,0.0
1606826260898887299,558724,1606826260888924033,imu_link,0.0012839492410421371,0.002935927826911211,0.0291738361120224,0.999569296836853,0.0,0.0,0.0,0.0,0.0,0.0,0.0,0.0,0.0,3.3440208435058594,0.3319971561431885,0.15688420832157135,0.0,0.0,0.0,0.0,0.0,0.0,0.0,0.0,0.0,0.008012987673282623,-0.01367496233433485,0.34561678767204285,0.0,0.0,0.0,0.0,0.0,0.0,0.0,0.0,0.0
1606826260898927290,558725,1606826260888999282,imu_link,0.0012878921115770936,0.002939441939815879,0.029176196083426476,0.9995691776275635,0.0,0.0,0.0,0.0,0.0,0.0,0.0,0.0,0.0,3.3442938327789307,0.3323861062526703,0.1573483794927597,0.0,0.0,0.0,0.0,0.0,0.0,0.0,0.0,0.0,0.019471803680062294,0.005791937932372093,0.32152342796325684,0.0,0.0,0.0,0.0,0.0,0.0,0.0,0.0,0.0
1606826260898939913,558726,1606826260889073515,imu_link,0.0012878921115770936,0.002939441939815879,0.029176196083426476,0.9995691776275635,0.0,0.0,0.0,0.0,0.0,0.0,0.0,0.0,0.0,3.3442938327789307,0.3323861062526703,0.1573483794927597,0.0,0.0,0.0,0.0,0.0,0.0,0.0,0.0,0.0,0.019471803680062294,0.005791937932372093,0.32152342796325684,0.0,0.0,0.0,0.0,0.0,0.0,0.0,0.0,0.0
1606826260906409402,558727,1606826260901685825,imu_link,0.0012865321477875113,0.0029378696344792843,0.029176069423556328,0.9995691180229187,0.0,0.0,0.0,0.0,0.0,0.0,0.0,0.0,0.0,3.344278335571289,0.3322105407714844,0.1571872979402542,0.0,0.0,0.0,0.0,0.0,0.0,0.0,0.0,0.0,0.0038080017548054457,-0.0007330235093832016,0.340676873922348,0.0,0.0,0.0,0.0,0.0,0.0,0.0,0.0,0.0
1606826260907598846,558728,1606826260902005979,imu_link,0.0012865321477875113,0.0029378696344792843,0.029176069423556328,0.9995691180229187,0.0,0.0,0.0,0.0,0.0,0.0,0.0,0.0,0.0,3.344278335571289,0.3322105407714844,0.1571872979402542,0.0,0.0,0.0,0.0,0.0,0.0,0.0,0.0,0.0,0.0038080017548054457,-0.0007330235093832016,0.340676873922348,0.0,0.0,0.0,0.0,0.0,0.0,0.0,0.0,0.0
1606826260907637941,558729,1606826260902186535,imu_link,0.001284905825741589,0.0029386430978775024,0.029184117913246155,0.9995689392089844,0.0,0.0,0.0,0.0,0.0,0.0,0.0,0.0,0.0,3.345200538635254,0.33230334520339966,0.15700626373291016,0.0,0.0,0.0,0.0,0.0,0.0,0.0,0.0,0.0,-0.009049567393958569,-0.0038338678423315287,0.3403562009334564,0.0,0.0,0.0,0.0,0.0,0.0,0.0,0.0,0.0
1606826260907657273,558730,1606826260902290570,imu_link,0.001284905825741589,0.0029386430978775024,0.029184117913246155,0.9995689392089844,0.0,0.0,0.0,0.0,0.0,0.0,0.0,0.0,0.0,3.345200538635254,0.33230334520339966,0.15700626373291016,0.0,0.0,0.0,0.0,0.0,0.0,0.0,0.0,0.0,-0.009049567393958569,-0.0038338678423315287,0.3403562009334564,0.0,0.0,0.0,0.0,0.0,0.0,0.0,0.0,0.0
1606826260907698300,558731,1606826260902370460,imu_link,0.0012852523941546679,0.0029399290215224028,0.02918478101491928,0.9995688796043396,0.0,0.0,0.0,0.0,0.0,0.0,0.0,0.0,0.0,3.3452770709991455,0.332449346780777,0.15705052018165588,0.0,0.0,0.0,0.0,0.0,0.0,0.0,0.0,0.0,-0.010038701817393303,-0.005235215649008751,0.3384278118610382,0.0,0.0,0.0,0.0,0.0,0.0,0.0,0.0,0.0
1606826260907726116,558732,1606826260902461861,imu_link,0.0012852523941546679,0.0029399290215224028,0.02918478101491928,0.9995688796043396,0.0,0.0,0.0,0.0,0.0,0.0,0.0,0.0,0.0,3.3452770709991455,0.332449346780777,0.15705052018165588,0.0,0.0,0.0,0.0,0.0,0.0,0.0,0.0,0.0,-0.010038701817393303,-0.005235215649008751,0.3384278118610382,0.0,0.0,0.0,0.0,0.0,0.0,0.0,0.0,0.0
1606826260907743404,558733,1606826260902623469,imu_link,0.0012859965208917856,0.0029386687092483044,0.02919306419789791,0.9995686411857605,0.0,0.0,0.0,0.0,0.0,0.0,0.0,0.0,0.0,3.346226692199707,0.33230122923851013,0.1571342647075653,0.0,0.0,0.0,0.0,0.0,0.0,0.0,0.0,0.0,-0.008541926741600037,-0.009747462347149849,0.34177443385124207,0.0,0.0,0.0,0.0,0.0,0.0,0.0,0.0,0.0
1606826260907793682,558734,1606826260902712159,imu_link,0.0012859965208917856,0.0029386687092483044,0.02919306419789791,0.9995686411857605,0.0,0.0,0.0,0.0,0.0,0.0,0.0,0.0,0.0,3.346226692199707,0.33230122923851013,0.1571342647075653,0.0,0.0,0.0,0.0,0.0,0.0,0.0,0.0,0.0,-0.008541926741600037,-0.009747462347149849,0.34177443385124207,0.0,0.0,0.0,0.0,0.0,0.0,0.0,0.0,0.0
1606826260907812388,558735,1606826260902789562,imu_link,0.001286449609324336,0.0029383949004113674,0.02919192984700203,0.9995687007904053,0.0,0.0,0.0,0.0,0.0,0.0,0.0,0.0,0.0,3.3460967540740967,0.33226850628852844,0.15718486905097961,0.0,0.0,0.0,0.0,0.0,0.0,0.0,0.0,0.0,-0.01253136619925499,0.0033357434440404177,0.33577674627304077,0.0,0.0,0.0,0.0,0.0,0.0,0.0,0.0,0.0
1606826260908742844,558736,1606826260902866334,imu_link,0.001286449609324336,0.0029383949004113674,0.02919192984700203,0.9995687007904053,0.0,0.0,0.0,0.0,0.0,0.0,0.0,0.0,0.0,3.3460967540740967,0.33226850628852844,0.15718486905097961,0.0,0.0,0.0,0.0,0.0,0.0,0.0,0.0,0.0,-0.01253136619925499,0.0033357434440404177,0.33577674627304077,0.0,0.0,0.0,0.0,0.0,0.0,0.0,0.0,0.0
1606826260908767273,558737,1606826260902950945,imu_link,0.001286263344809413,0.0029373106081038713,0.029189713299274445,0.99956876039505,0.0,0.0,0.0,0.0,0.0,0.0,0.0,0.0,0.0,3.3458423614501953,0.3321453034877777,0.15715917944908142,0.0,0.0,0.0,0.0,0.0,0.0,0.0,0.0,0.0,0.0050267442129552364,0.007254790049046278,0.3227125406265259,0.0,0.0,0.0,0.0,0.0,0.0,0.0,0.0,0.0
1606826260919702043,558738,1606826260915198498,imu_link,0.001286263344809413,0.0029373106081038713,0.029189713299274445,0.99956876039505,0.0,0.0,0.0,0.0,0.0,0.0,0.0,0.0,0.0,3.3458423614501953,0.3321453034877777,0.15715917944908142,0.0,0.0,0.0,0.0,0.0,0.0,0.0,0.0,0.0,0.0050267442129552364,0.007254790049046278,0.3227125406265259,0.0,0.0,0.0,0.0,0.0,0.0,0.0,0.0,0.0
1606826260921641220,558739,1606826260915269038,imu_link,0.001285069389268756,0.0029372633434832096,0.029190221801400185,0.99956876039505,0.0,0.0,0.0,0.0,0.0,0.0,0.0,0.0,0.0,3.345900058746338,0.3321438133716583,0.15702243149280548,0.0,0.0,0.0,0.0,0.0,0.0,0.0,0.0,0.0,0.013896901160478592,-0.013089560903608799,0.3065049350261688,0.0,0.0,0.0,0.0,0.0,0.0,0.0,0.0,0.0
1606826260921661997,558740,1606826260915341084,imu_link,0.001285069389268756,0.0029372633434832096,0.029190221801400185,0.99956876039505,0.0,0.0,0.0,0.0,0.0,0.0,0.0,0.0,0.0,3.345900058746338,0.3321438133716583,0.15702243149280548,0.0,0.0,0.0,0.0,0.0,0.0,0.0,0.0,0.0,0.013896901160478592,-0.013089560903608799,0.3065049350261688,0.0,0.0,0.0,0.0,0.0,0.0,0.0,0.0,0.0
1606826260921696152,558741,1606826260915383535,imu_link,0.0012875987449660897,0.002940394217148423,0.029187491163611412,0.9995688199996948,0.0,0.0,0.0,0.0,0.0,0.0,0.0,0.0,0.0,3.3455886840820312,0.3324943780899048,0.1573217213153839,0.0,0.0,0.0,0.0,0.0,0.0,0.0,0.0,0.0,-0.010356920771300793,-0.012965024448931217,0.3224080204963684,0.0,0.0,0.0,0.0,0.0,0.0,0.0,0.0,0.0
1606826260921712049,558742,1606826260915421535,imu_link,0.0012875987449660897,0.002940394217148423,0.029187491163611412,0.9995688199996948,0.0,0.0,0.0,0.0,0.0,0.0,0.0,0.0,0.0,3.3455886840820312,0.3324943780899048,0.1573217213153839,0.0,0.0,0.0,0.0,0.0,0.0,0.0,0.0,0.0,-0.010356920771300793,-0.012965024448931217,0.3224080204963684,0.0,0.0,0.0,0.0,0.0,0.0,0.0,0.0,0.0
1606826260921719042,558743,1606826260915469177,imu_link,0.001285938429646194,0.0029426091350615025,0.029188986867666245,0.99956876039505,0.0,0.0,0.0,0.0,0.0,0.0,0.0,0.0,0.0,3.3457603454589844,0.33275339007377625,0.15713945031166077,0.0,0.0,0.0,0.0,0.0,0.0,0.0,0.0,0.0,-0.013220115564763546,0.018741576001048088,0.31416836380958557,0.0,0.0,0.0,0.0,0.0,0.0,0.0,0.0,0.0
1606826260921727353,558744,1606826260915515467,imu_link,0.001285938429646194,0.0029426091350615025,0.029188986867666245,0.99956876039505,0.0,0.0,0.0,0.0,0.0,0.0,0.0,0.0,0.0,3.3457603454589844,0.33275339007377625,0.15713945031166077,0.0,0.0,0.0,0.0,0.0,0.0,0.0,0.0,0.0,-0.013220115564763546,0.018741576001048088,0.31416836380958557,0.0,0.0,0.0,0.0,0.0,0.0,0.0,0.0,0.0
1606826260921737293,558745,1606826260915554256,imu_link,0.0012826368911191821,0.0029403050430119038,0.029186807572841644,0.9995688199996948,0.0,0.0,0.0,0.0,0.0,0.0,0.0,0.0,0.0,3.3455088138580322,0.3325008451938629,0.1567528396844864,0.0,0.0,0.0,0.0,0.0,0.0,0.0,0.0,0.0,-0.014296576380729675,0.015302578918635845,0.29569384455680847,0.0,0.0,0.0,0.0,0.0,0.0,0.0,0.0,0.0
1606826260921745313,558746,1606826260915593502,imu_link,0.0012826368911191821,0.0029403050430119038,0.029186807572841644,0.9995688199996948,0.0,0.0,0.0,0.0,0.0,0.0,0.0,0.0,0.0,3.3455088138580322,0.3325008451938629,0.1567528396844864,0.0,0.0,0.0,0.0,0.0,0.0,0.0,0.0,0.0,-0.014296576380729675,0.015302578918635845,0.29569384455680847,0.0,0.0,0.0,0.0,0.0,0.0,0.0,0.0,0.0
1606826260921751444,558747,1606826260915635386,imu_link,0.0012837135000154376,0.002936541335657239,0.02918747439980507,0.9995688199996948,0.0,0.0,0.0,0.0,0.0,0.0,0.0,0.0,0.0,3.3455848693847656,0.33206605911254883,0.15686379373073578,0.0,0.0,0.0,0.0,0.0,0.0,0.0,0.0,0.0,-0.0053949905559420586,-0.00024442950962111354,0.3142153322696686,0.0,0.0,0.0,0.0,0.0,0.0,0.0,0.0,0.0
1606826260921760919,558748,1606826260915678210,imu_link,0.0012837135000154376,0.002936541335657239,0.02918747439980507,0.9995688199996948,0.0,0.0,0.0,0.0,0.0,0.0,0.0,0.0,0.0,3.3455848693847656,0.33206605911254883,0.15686379373073578,0.0,0.0,0.0,0.0,0.0,0.0,0.0,0.0,0.0,-0.0053949905559420586,-0.00024442950962111354,0.3142153322696686,0.0,0.0,0.0,0.0,0.0,0.0,0.0,0.0,0.0
1606826260945353109,558749,1606826260928398429,imu_link,0.0012858984991908073,0.0029344409704208374,0.029183991253376007,0.9995689392089844,0.0,0.0,0.0,0.0,0.0,0.0,0.0,0.0,0.0,3.3451859951019287,0.33181869983673096,0.15710587799549103,0.0,0.0,0.0,0.0,0.0,0.0,0.0,0.0,0.0,0.007315970491617918,0.0024437028914690018,0.31897667050361633,0.0,0.0,0.0,0.0,0.0,0.0,0.0,0.0,0.0
1606826260961206923,558750,1606826260928498631,imu_link,0.0012858984991908073,0.0029344409704208374,0.029183991253376007,0.9995689392089844,0.0,0.0,0.0,0.0,0.0,0.0,0.0,0.0,0.0,3.3451859951019287,0.33181869983673096,0.15710587799549103,0.0,0.0,0.0,0.0,0.0,0.0,0.0,0.0,0.0,0.007315970491617918,0.0024437028914690018,0.31897667050361633,0.0,0.0,0.0,0.0,0.0,0.0,0.0,0.0,0.0
1606826260961255810,558751,1606826260928630317,imu_link,0.0012884431052953005,0.0029344772920012474,0.029183916747570038,0.9995689392089844,0.0,0.0,0.0,0.0,0.0,0.0,0.0,0.0,0.0,3.3451781272888184,0.33181434869766235,0.15739744901657104,0.0,0.0,0.0,0.0,0.0,0.0,0.0,0.0,0.0,-0.006183232180774212,0.006321765948086977,0.3297055661678314,0.0,0.0,0.0,0.0,0.0,0.0,0.0,0.0,0.0
1606826260961288647,558752,1606826260928692861,imu_link,0.0012884431052953005,0.0029344772920012474,0.029183916747570038,0.9995689392089844,0.0,0.0,0.0,0.0,0.0,0.0,0.0,0.0,0.0,3.3451781272888184,0.33181434869766235,0.15739744901657104,0.0,0.0,0.0,0.0,0.0,0.0,0.0,0.0,0.0,-0.006183232180774212,0.006321765948086977,0.3297055661678314,0.0,0.0,0.0,0.0,0.0,0.0,0.0,0.0,0.0
1606826260961294132,558753,1606826260928749800,imu_link,0.0012870448408648372,0.002935787197202444,0.029179731383919716,0.9995690584182739,0.0,0.0,0.0,0.0,0.0,0.0,0.0,0.0,0.0,3.344698190689087,0.3319697380065918,0.15724028646945953,0.0,0.0,0.0,0.0,0.0,0.0,0.0,0.0,0.0,-0.016489360481500626,0.00973390880972147,0.34534764289855957,0.0,0.0,0.0,0.0,0.0,0.0,0.0,0.0,0.0
1606826260961304073,558754,1606826260928835773,imu_link,0.0012870448408648372,0.002935787197202444,0.029179731383919716,0.9995690584182739,0.0,0.0,0.0,0.0,0.0,0.0,0.0,0.0,0.0,3.344698190689087,0.3319697380065918,0.15724028646945953,0.0,0.0,0.0,0.0,0.0,0.0,0.0,0.0,0.0,-0.016489360481500626,0.00973390880972147,0.34534764289855957,0.0,0.0,0.0,0.0,0.0,0.0,0.0,0.0,0.0
1606826260961318134,558755,1606826260928897217,imu_link,0.0012863115407526493,0.002935683587566018,0.02917986363172531,0.9995690584182739,0.0,0.0,0.0,0.0,0.0,0.0,0.0,0.0,0.0,3.344712972640991,0.3319602906703949,0.15715597569942474,0.0,0.0,0.0,0.0,0.0,0.0,0.0,0.0,0.0,-0.005011212080717087,-0.008831407874822617,0.3485579192638397,0.0,0.0,0.0,0.0,0.0,0.0,0.0,0.0,0.0
1606826260961325086,558756,1606826260928953459,imu_link,0.0012863115407526493,0.002935683587566018,0.02917986363172531,0.9995690584182739,0.0,0.0,0.0,0.0,0.0,0.0,0.0,0.0,0.0,3.344712972640991,0.3319602906703949,0.15715597569942474,0.0,0.0,0.0,0.0,0.0,0.0,0.0,0.0,0.0,-0.005011212080717087,-0.008831407874822617,0.3485579192638397,0.0,0.0,0.0,0.0,0.0,0.0,0.0,0.0,0.0
1606826260961352291,558757,1606826260929016809,imu_link,0.0012893477687612176,0.002934739226475358,0.02917568013072014,0.9995691776275635,0.0,0.0,0.0,0.0,0.0,0.0,0.0,0.0,0.0,3.3442342281341553,0.33184266090393066,0.15749920904636383,0.0,0.0,0.0,0.0,0.0,0.0,0.0,0.0,0.0,0.007595739793032408,-0.007341315504163504,0.3441426455974579,0.0,0.0,0.0,0.0,0.0,0.0,0.0,0.0,0.0
1606826260961366484,558758,1606826260929070077,imu_link,0.0012893477687612176,0.002934739226475358,0.02917568013072014,0.9995691776275635,0.0,0.0,0.0,0.0,0.0,0.0,0.0,0.0,0.0,3.3442342281341553,0.33184266090393066,0.15749920904636383,0.0,0.0,0.0,0.0,0.0,0.0,0.0,0.0,0.0,0.007595739793032408,-0.007341315504163504,0.3441426455974579,0.0,0.0,0.0,0.0,0.0,0.0,0.0,0.0,0.0
1606826260961380012,558759,1606826260941628371,imu_link,0.001289541251026094,0.002934746677055955,0.02917463891208172,0.9995692372322083,0.0,0.0,0.0,0.0,0.0,0.0,0.0,0.0,0.0,3.3441147804260254,0.3318430185317993,0.15752103924751282,0.0,0.0,0.0,0.0,0.0,0.0,0.0,0.0,0.0,0.0025496804155409336,0.022579597309231758,0.3344322741031647,0.0,0.0,0.0,0.0,0.0,0.0,0.0,0.0,0.0
1606826260961388830,558760,1606826260941729222,imu_link,0.001289541251026094,0.002934746677055955,0.02917463891208172,0.9995692372322083,0.0,0.0,0.0,0.0,0.0,0.0,0.0,0.0,0.0,3.3441147804260254,0.3318430185317993,0.15752103924751282,0.0,0.0,0.0,0.0,0.0,0.0,0.0,0.0,0.0,0.0025496804155409336,0.022579597309231758,0.3344322741031647,0.0,0.0,0.0,0.0,0.0,0.0,0.0,0.0,0.0
1606826260961399010,558761,1606826260941849901,imu_link,0.0012834412045776844,0.0029361937195062637,0.02917889878153801,0.9995690584182739,0.0,0.0,0.0,0.0,0.0,0.0,0.0,0.0,0.0,3.344601631164551,0.33202847838401794,0.1568286120891571,0.0,0.0,0.0,0.0,0.0,0.0,0.0,0.0,0.0,0.0026166688185185194,0.02807697281241417,0.3386922776699066,0.0,0.0,0.0,0.0,0.0,0.0,0.0,0.0,0.0
1606826260961408723,558762,1606826260941919858,imu_link,0.0012834412045776844,0.0029361937195062637,0.02917889878153801,0.9995690584182739,0.0,0.0,0.0,0.0,0.0,0.0,0.0,0.0,0.0,3.344601631164551,0.33202847838401794,0.1568286120891571,0.0,0.0,0.0,0.0,0.0,0.0,0.0,0.0,0.0,0.0026166688185185194,0.02807697281241417,0.3386922776699066,0.0,0.0,0.0,0.0,0.0,0.0,0.0,0.0,0.0
1606826260961415056,558763,1606826260941978522,imu_link,0.0012828968465328217,0.002937080804258585,0.029177505522966385,0.9995691180229187,0.0,0.0,0.0,0.0,0.0,0.0,0.0,0.0,0.0,3.3444418907165527,0.33213216066360474,0.15676875412464142,0.0,0.0,0.0,0.0,0.0,0.0,0.0,0.0,0.0,0.01225210539996624,0.0215983297675848,0.3418788015842438,0.0,0.0,0.0,0.0,0.0,0.0,0.0,0.0,0.0
1606826260961422358,558764,1606826260942093387,imu_link,0.0012828968465328217,0.002937080804258585,0.029177505522966385,0.9995691180229187,0.0,0.0,0.0,0.0,0.0,0.0,0.0,0.0,0.0,3.3444418907165527,0.33213216066360474,0.15676875412464142,0.0,0.0,0.0,0.0,0.0,0.0,0.0,0.0,0.0,0.01225210539996624,0.0215983297675848,0.3418788015842438,0.0,0.0,0.0,0.0,0.0,0.0,0.0,0.0,0.0
1606826260961433982,558765,1606826260942174810,imu_link,0.001278528361581266,0.002940839622169733,0.029182614758610725,0.9995689988136292,0.0,0.0,0.0,0.0,0.0,0.0,0.0,0.0,0.0,3.345026731491089,0.3325764834880829,0.15628263354301453,0.0,0.0,0.0,0.0,0.0,0.0,0.0,0.0,0.0,0.018378913402557373,0.01515581738203764,0.31504756212234497,0.0,0.0,0.0,0.0,0.0,0.0,0.0,0.0,0.0
1606826260961443909,558766,1606826260942234490,imu_link,0.001278528361581266,0.002940839622169733,0.029182614758610725,0.9995689988136292,0.0,0.0,0.0,0.0,0.0,0.0,0.0,0.0,0.0,3.345026731491089,0.3325764834880829,0.15628263354301453,0.0,0.0,0.0,0.0,0.0,0.0,0.0,0.0,0.0,0.018378913402557373,0.01515581738203764,0.31504756212234497,0.0,0.0,0.0,0.0,0.0,0.0,0.0,0.0,0.0
1606826260962549518,558767,1606826260942295059,imu_link,0.0012785159051418304,0.0029410484712570906,0.02918224222958088,0.9995689988136292,0.0,0.0,0.0,0.0,0.0,0.0,0.0,0.0,0.0,3.3449840545654297,0.33260053396224976,0.15628176927566528,0.0,0.0,0.0,0.0,0.0,0.0,0.0,0.0,0.0,0.011498228646814823,0.005857259966433048,0.30809298157691956,0.0,0.0,0.0,0.0,0.0,0.0,0.0,0.0,0.0
1606826260962565264,558768,1606826260942352512,imu_link,0.0012785159051418304,0.0029410484712570906,0.02918224222958088,0.9995689988136292,0.0,0.0,0.0,0.0,0.0,0.0,0.0,0.0,0.0,3.3449840545654297,0.33260053396224976,0.15628176927566528,0.0,0.0,0.0,0.0,0.0,0.0,0.0,0.0,0.0,0.011498228646814823,0.005857259966433048,0.30809298157691956,0.0,0.0,0.0,0.0,0.0,0.0,0.0,0.0,0.0
1606826260962584856,558769,1606826260942411765,imu_link,0.0012794602662324905,0.002944460604339838,0.029186736792325974,0.9995688796043396,0.0,0.0,0.0,0.0,0.0,0.0,0.0,0.0,0.0,3.3455002307891846,0.3329874873161316,0.1564028561115265,0.0,0.0,0.0,0.0,0.0,0.0,0.0,0.0,0.0,-0.007477825041860342,0.009650035761296749,0.32693949341773987,0.0,0.0,0.0,0.0,0.0,0.0,0.0,0.0,0.0
1606826260962591669,558770,1606826260955420054,imu_link,0.0012794602662324905,0.002944460604339838,0.029186736792325974,0.9995688796043396,0.0,0.0,0.0,0.0,0.0,0.0,0.0,0.0,0.0,3.3455002307891846,0.3329874873161316,0.1564028561115265,0.0,0.0,0.0,0.0,0.0,0.0,0.0,0.0,0.0,-0.007477825041860342,0.009650035761296749,0.32693949341773987,0.0,0.0,0.0,0.0,0.0,0.0,0.0,0.0,0.0
1606826260962613971,558771,1606826260955520716,imu_link,0.0012794057838618755,0.002942559542134404,0.029186544939875603,0.9995688796043396,0.0,0.0,0.0,0.0,0.0,0.0,0.0,0.0,0.0,3.345477819442749,0.3327699601650238,0.15639019012451172,0.0,0.0,0.0,0.0,0.0,0.0,0.0,0.0,0.0,-0.003022664226591587,0.008710244670510292,0.31540918350219727,0.0,0.0,0.0,0.0,0.0,0.0,0.0,0.0,0.0
1606826260962625076,558772,1606826260955641693,imu_link,0.0012794057838618755,0.002942559542134404,0.029186544939875603,0.9995688796043396,0.0,0.0,0.0,0.0,0.0,0.0,0.0,0.0,0.0,3.345477819442749,0.3327699601650238,0.15639019012451172,0.0,0.0,0.0,0.0,0.0,0.0,0.0,0.0,0.0,-0.003022664226591587,0.008710244670510292,0.31540918350219727,0.0,0.0,0.0,0.0,0.0,0.0,0.0,0.0,0.0
1606826260962630984,558773,1606826260955701613,imu_link,0.0012763862032443285,0.002942744642496109,0.029189549386501312,0.99956876039505,0.0,0.0,0.0,0.0,0.0,0.0,0.0,0.0,0.0,3.3458216190338135,0.3328007757663727,0.15604594349861145,0.0,0.0,0.0,0.0,0.0,0.0,0.0,0.0,0.0,0.004732278175652027,0.002997094066813588,0.3148556351661682,0.0,0.0,0.0,0.0,0.0,0.0,0.0,0.0,0.0
1606826260962639661,558774,1606826260955757725,imu_link,0.0012763862032443285,0.002942744642496109,0.029189549386501312,0.99956876039505,0.0,0.0,0.0,0.0,0.0,0.0,0.0,0.0,0.0,3.3458216190338135,0.3328007757663727,0.15604594349861145,0.0,0.0,0.0,0.0,0.0,0.0,0.0,0.0,0.0,0.004732278175652027,0.002997094066813588,0.3148556351661682,0.0,0.0,0.0,0.0,0.0,0.0,0.0,0.0,0.0
1606826260962649962,558775,1606826260955815472,imu_link,0.0012758680386468768,0.0029438252095133066,0.029192393645644188,0.9995687007904053,0.0,0.0,0.0,0.0,0.0,0.0,0.0,0.0,0.0,3.346147060394287,0.33292582631111145,0.15599115192890167,0.0,0.0,0.0,0.0,0.0,0.0,0.0,0.0,0.0,0.002051678951829672,-0.010452472604811192,0.3181621730327606,0.0,0.0,0.0,0.0,0.0,0.0,0.0,0.0,0.0
1606826260968773716,558776,1606826260955888178,imu_link,0.0012758680386468768,0.0029438252095133066,0.029192393645644188,0.9995687007904053,0.0,0.0,0.0,0.0,0.0,0.0,0.0,0.0,0.0,3.346147060394287,0.33292582631111145,0.15599115192890167,0.0,0.0,0.0,0.0,0.0,0.0,0.0,0.0,0.0,0.002051678951829672,-0.010452472604811192,0.3181621730327606,0.0,0.0,0.0,0.0,0.0,0.0,0.0,0.0,0.0
1606826260968796939,558777,1606826260955951247,imu_link,0.0012767789885401726,0.0029434801544994116,0.02919401228427887,0.9995687007904053,0.0,0.0,0.0,0.0,0.0,0.0,0.0,0.0,0.0,3.3463330268859863,0.3328830301761627,0.15609486401081085,0.0,0.0,0.0,0.0,0.0,0.0,0.0,0.0,0.0,-0.001955792773514986,-0.02523869462311268,0.32156768441200256,0.0,0.0,0.0,0.0,0.0,0.0,0.0,0.0,0.0
1606826260968813723,558778,1606826260956007894,imu_link,0.0012767789885401726,0.0029434801544994116,0.02919401228427887,0.9995687007904053,0.0,0.0,0.0,0.0,0.0,0.0,0.0,0.0,0.0,3.3463330268859863,0.3328830301761627,0.15609486401081085,0.0,0.0,0.0,0.0,0.0,0.0,0.0,0.0,0.0,-0.001955792773514986,-0.02523869462311268,0.32156768441200256,0.0,0.0,0.0,0.0,0.0,0.0,0.0,0.0,0.0
1606826260968826235,558779,1606826260956070439,imu_link,0.0012767945881932974,0.0029448256827890873,0.029194684699177742,0.9995686411857605,0.0,0.0,0.0,0.0,0.0,0.0,0.0,0.0,0.0,3.3464105129241943,0.33303695917129517,0.15610139071941376,0.0,0.0,0.0,0.0,0.0,0.0,0.0,0.0,0.0,0.0019046706147491932,-0.017381561920046806,0.34192532300949097,0.0,0.0,0.0,0.0,0.0,0.0,0.0,0.0,0.0
1606826260968849188,558780,1606826260956135360,imu_link,0.0012767945881932974,0.0029448256827890873,0.029194684699177742,0.9995686411857605,0.0,0.0,0.0,0.0,0.0,0.0,0.0,0.0,0.0,3.3464105129241943,0.33303695917129517,0.15610139071941376,0.0,0.0,0.0,0.0,0.0,0.0,0.0,0.0,0.0,0.0019046706147491932,-0.017381561920046806,0.34192532300949097,0.0,0.0,0.0,0.0,0.0,0.0,0.0,0.0,0.0
1606826260973568550,558781,1606826260969063493,imu_link,0.0012811346678063273,0.002945458050817251,0.029196592047810555,0.9995685815811157,0.0,0.0,0.0,0.0,0.0,0.0,0.0,0.0,0.0,3.3466310501098633,0.33309459686279297,0.15660126507282257,0.0,0.0,0.0,0.0,0.0,0.0,0.0,0.0,0.0,0.0015022383304312825,-0.020939715206623077,0.33105504512786865,0.0,0.0,0.0,0.0,0.0,0.0,0.0,0.0,0.0
1606826260974126610,558782,1606826260969190105,imu_link,0.0012811346678063273,0.002945458050817251,0.029196592047810555,0.9995685815811157,0.0,0.0,0.0,0.0,0.0,0.0,0.0,0.0,0.0,3.3466310501098633,0.33309459686279297,0.15660126507282257,0.0,0.0,0.0,0.0,0.0,0.0,0.0,0.0,0.0,0.0015022383304312825,-0.020939715206623077,0.33105504512786865,0.0,0.0,0.0,0.0,0.0,0.0,0.0,0.0,0.0
1606826260974143238,558783,1606826260969341442,imu_link,0.0012816860107704997,0.002944465260952711,0.02919849567115307,0.999568521976471,0.0,0.0,0.0,0.0,0.0,0.0,0.0,0.0,0.0,3.346848726272583,0.3329787254333496,0.1566617488861084,0.0,0.0,0.0,0.0,0.0,0.0,0.0,0.0,0.0,-0.012490673922002316,-0.024337947368621826,0.30610591173171997,0.0,0.0,0.0,0.0,0.0,0.0,0.0,0.0,0.0
1606826260974158170,558784,1606826260969414512,imu_link,0.0012816860107704997,0.002944465260952711,0.02919849567115307,0.999568521976471,0.0,0.0,0.0,0.0,0.0,0.0,0.0,0.0,0.0,3.346848726272583,0.3329787254333496,0.1566617488861084,0.0,0.0,0.0,0.0,0.0,0.0,0.0,0.0,0.0,-0.012490673922002316,-0.024337947368621826,0.30610591173171997,0.0,0.0,0.0,0.0,0.0,0.0,0.0,0.0,0.0
1606826260974174578,558785,1606826260969505112,imu_link,0.0012882513692602515,0.0029431553557515144,0.029197541996836662,0.9995685815811157,0.0,0.0,0.0,0.0,0.0,0.0,0.0,0.0,0.0,3.3467414379119873,0.33280688524246216,0.15740905702114105,0.0,0.0,0.0,0.0,0.0,0.0,0.0,0.0,0.0,-0.009202580899000168,-0.01363808661699295,0.2940422594547272,0.0,0.0,0.0,0.0,0.0,0.0,0.0,0.0,0.0
1606826260975085482,558786,1606826260969599815,imu_link,0.0012882513692602515,0.0029431553557515144,0.029197541996836662,0.9995685815811157,0.0,0.0,0.0,0.0,0.0,0.0,0.0,0.0,0.0,3.3467414379119873,0.33280688524246216,0.15740905702114105,0.0,0.0,0.0,0.0,0.0,0.0,0.0,0.0,0.0,-0.009202580899000168,-0.01363808661699295,0.2940422594547272,0.0,0.0,0.0,0.0,0.0,0.0,0.0,0.0,0.0
1606826260975109020,558787,1606826260969669010,imu_link,0.00129132776055485,0.0029426466207951307,0.029198089614510536,0.999568521976471,0.0,0.0,0.0,0.0,0.0,0.0,0.0,0.0,0.0,3.3468050956726074,0.3327382206916809,0.1577599048614502,0.0,0.0,0.0,0.0,0.0,0.0,0.0,0.0,0.0,-0.001426452537998557,-0.014472472481429577,0.302253395318985,0.0,0.0,0.0,0.0,0.0,0.0,0.0,0.0,0.0
1606826260975124442,558788,1606826260969744283,imu_link,0.00129132776055485,0.0029426466207951307,0.029198089614510536,0.999568521976471,0.0,0.0,0.0,0.0,0.0,0.0,0.0,0.0,0.0,3.3468050956726074,0.3327382206916809,0.1577599048614502,0.0,0.0,0.0,0.0,0.0,0.0,0.0,0.0,0.0,-0.001426452537998557,-0.014472472481429577,0.302253395318985,0.0,0.0,0.0,0.0,0.0,0.0,0.0,0.0,0.0
1606826260975141237,558789,1606826260969822235,imu_link,0.001294636749662459,0.002943648025393486,0.0291969683021307,0.9995685815811157,0.0,0.0,0.0,0.0,0.0,0.0,0.0,0.0,0.0,3.346677780151367,0.33284205198287964,0.15814192593097687,0.0,0.0,0.0,0.0,0.0,0.0,0.0,0.0,0.0,0.011790324002504349,0.0007560192607343197,0.3206287622451782,0.0,0.0,0.0,0.0,0.0,0.0,0.0,0.0,0.0
1606826260975155356,558790,1606826260969896389,imu_link,0.001294636749662459,0.002943648025393486,0.0291969683021307,0.9995685815811157,0.0,0.0,0.0,0.0,0.0,0.0,0.0,0.0,0.0,3.346677780151367,0.33284205198287964,0.15814192593097687,0.0,0.0,0.0,0.0,0.0,0.0,0.0,0.0,0.0,0.011790324002504349,0.0007560192607343197,0.3206287622451782,0.0,0.0,0.0,0.0,0.0,0.0,0.0,0.0,0.0
1606826260975181732,558791,1606826260969968181,imu_link,0.0012937679421156645,0.0029441353399306536,0.029196646064519882,0.9995685815811157,0.0,0.0,0.0,0.0,0.0,0.0,0.0,0.0,0.0,3.3466410636901855,0.3329008221626282,0.15804392099380493,0.0,0.0,0.0,0.0,0.0,0.0,0.0,0.0,0.0,0.009430776350200176,0.009055566042661667,0.3167525827884674,0.0,0.0,0.0,0.0,0.0,0.0,0.0,0.0,0.0
1606826260986239771,558792,1606826260981855316,imu_link,0.0012937679421156645,0.0029441353399306536,0.029196646064519882,0.9995685815811157,0.0,0.0,0.0,0.0,0.0,0.0,0.0,0.0,0.0,3.3466410636901855,0.3329008221626282,0.15804392099380493,0.0,0.0,0.0,0.0,0.0,0.0,0.0,0.0,0.0,0.009430776350200176,0.009055566042661667,0.3167525827884674,0.0,0.0,0.0,0.0,0.0,0.0,0.0,0.0,0.0
1606826260987032303,558793,1606826260981931134,imu_link,0.0012929667718708515,0.0029475248884409666,0.02919478714466095,0.9995686411857605,0.0,0.0,0.0,0.0,0.0,0.0,0.0,0.0,0.0,3.3464279174804688,0.33329203724861145,0.1579628735780716,0.0,0.0,0.0,0.0,0.0,0.0,0.0,0.0,0.0,-0.009362917393445969,-0.006927546113729477,0.29953715205192566,0.0,0.0,0.0,0.0,0.0,0.0,0.0,0.0,0.0
1606826260987066077,558794,1606826260981977249,imu_link,0.0012929667718708515,0.0029475248884409666,0.02919478714466095,0.9995686411857605,0.0,0.0,0.0,0.0,0.0,0.0,0.0,0.0,0.0,3.3464279174804688,0.33329203724861145,0.1579628735780716,0.0,0.0,0.0,0.0,0.0,0.0,0.0,0.0,0.0,-0.009362917393445969,-0.006927546113729477,0.29953715205192566,0.0,0.0,0.0,0.0,0.0,0.0,0.0,0.0,0.0
1606826260987088027,558795,1606826260982021187,imu_link,0.0012928084470331669,0.002946738386526704,0.029195209965109825,0.9995686411857605,0.0,0.0,0.0,0.0,0.0,0.0,0.0,0.0,0.0,3.3464760780334473,0.33320242166519165,0.1579422652721405,0.0,0.0,0.0,0.0,0.0,0.0,0.0,0.0,0.0,-0.01701250858604908,-0.01256519090384245,0.29659852385520935,0.0,0.0,0.0,0.0,0.0,0.0,0.0,0.0,0.0
1606826260987101218,558796,1606826260982065968,imu_link,0.0012928084470331669,0.002946738386526704,0.029195209965109825,0.9995686411857605,0.0,0.0,0.0,0.0,0.0,0.0,0.0,0.0,0.0,3.3464760780334473,0.33320242166519165,0.1579422652721405,0.0,0.0,0.0,0.0,0.0,0.0,0.0,0.0,0.0,-0.01701250858604908,-0.01256519090384245,0.29659852385520935,0.0,0.0,0.0,0.0,0.0,0.0,0.0,0.0,0.0
1606826260987109650,558797,1606826260982120213,imu_link,0.0012944190530106425,0.0029447886627167463,0.029192976653575897,0.9995687007904053,0.0,0.0,0.0,0.0,0.0,0.0,0.0,0.0,0.0,3.346220016479492,0.33297404646873474,0.15811946988105774,0.0,0.0,0.0,0.0,0.0,0.0,0.0,0.0,0.0,-0.004112627357244492,-0.022972846403717995,0.3159487843513489,0.0,0.0,0.0,0.0,0.0,0.0,0.0,0.0,0.0
1606826260987126237,558798,1606826260982166689,imu_link,0.0012944190530106425,0.0029447886627167463,0.029192976653575897,0.9995687007904053,0.0,0.0,0.0,0.0,0.0,0.0,0.0,0.0,0.0,3.346220016479492,0.33297404646873474,0.15811946988105774,0.0,0.0,0.0,0.0,0.0,0.0,0.0,0.0,0.0,-0.004112627357244492,-0.022972846403717995,0.3159487843513489,0.0,0.0,0.0,0.0,0.0,0.0,0.0,0.0,0.0
1606826260987148170,558799,1606826260982210470,imu_link,0.0012932175304740667,0.002946012420579791,0.029194733127951622,0.9995686411857605,0.0,0.0,0.0,0.0,0.0,0.0,0.0,0.0,0.0,3.346421480178833,0.3331179618835449,0.15798653662204742,0.0,0.0,0.0,0.0,0.0,0.0,0.0,0.0,0.0,0.0071896156296133995,-0.02520660124719143,0.321943998336792,0.0,0.0,0.0,0.0,0.0,0.0,0.0,0.0,0.0
1606826260987157597,558800,1606826260982254262,imu_link,0.0012932175304740667,0.002946012420579791,0.029194733127951622,0.9995686411857605,0.0,0.0,0.0,0.0,0.0,0.0,0.0,0.0,0.0,3.346421480178833,0.3331179618835449,0.15798653662204742,0.0,0.0,0.0,0.0,0.0,0.0,0.0,0.0,0.0,0.0071896156296133995,-0.02520660124719143,0.321943998336792,0.0,0.0,0.0,0.0,0.0,0.0,0.0,0.0,0.0
1606826260988849368,558801,1606826260982308405,imu_link,0.0012985214125365019,0.0029485055711120367,0.029190964996814728,0.9995687007904053,0.0,0.0,0.0,0.0,0.0,0.0,0.0,0.0,0.0,3.345992088317871,0.3333863914012909,0.15860114991664886,0.0,0.0,0.0,0.0,0.0,0.0,0.0,0.0,0.0,-0.0032328199595212936,-0.004690525587648153,0.3313637971878052,0.0,0.0,0.0,0.0,0.0,0.0,0.0,0.0,0.0
1606826261000238555,558802,1606826260995718639,imu_link,0.0012985214125365019,0.0029485055711120367,0.029190964996814728,0.9995687007904053,0.0,0.0,0.0,0.0,0.0,0.0,0.0,0.0,0.0,3.345992088317871,0.3333863914012909,0.15860114991664886,0.0,0.0,0.0,0.0,0.0,0.0,0.0,0.0,0.0,-0.0032328199595212936,-0.004690525587648153,0.3313637971878052,0.0,0.0,0.0,0.0,0.0,0.0,0.0,0.0,0.0
1606826261000722805,558803,1606826260995831608,imu_link,0.0012995097786188126,0.0029463516548275948,0.02919142134487629,0.9995687007904053,0.0,0.0,0.0,0.0,0.0,0.0,0.0,0.0,0.0,3.3460443019866943,0.33313626050949097,0.15870730578899384,0.0,0.0,0.0,0.0,0.0,0.0,0.0,0.0,0.0,-0.009978735819458961,-0.0063434927724301815,0.3460894823074341,0.0,0.0,0.0,0.0,0.0,0.0,0.0,0.0,0.0
1606826261000746571,558804,1606826260995975792,imu_link,0.0012995097786188126,0.0029463516548275948,0.02919142134487629,0.9995687007904053,0.0,0.0,0.0,0.0,0.0,0.0,0.0,0.0,0.0,3.3460443019866943,0.33313626050949097,0.15870730578899384,0.0,0.0,0.0,0.0,0.0,0.0,0.0,0.0,0.0,-0.009978735819458961,-0.0063434927724301815,0.3460894823074341,0.0,0.0,0.0,0.0,0.0,0.0,0.0,0.0,0.0
1606826261000755184,558805,1606826260996039299,imu_link,0.0013002960477024317,0.0029460873920470476,0.029190467670559883,0.9995687007904053,0.0,0.0,0.0,0.0,0.0,0.0,0.0,0.0,0.0,3.345935344696045,0.3331035375595093,0.15879616141319275,0.0,0.0,0.0,0.0,0.0,0.0,0.0,0.0,0.0,-0.01022845134139061,0.010838133282959461,0.35226327180862427,0.0,0.0,0.0,0.0,0.0,0.0,0.0,0.0,0.0
1606826261000773809,558806,1606826260996102914,imu_link,0.0013002960477024317,0.0029460873920470476,0.029190467670559883,0.9995687007904053,0.0,0.0,0.0,0.0,0.0,0.0,0.0,0.0,0.0,3.345935344696045,0.3331035375595093,0.15879616141319275,0.0,0.0,0.0,0.0,0.0,0.0,0.0,0.0,0.0,-0.01022845134139061,0.010838133282959461,0.35226327180862427,0.0,0.0,0.0,0.0,0.0,0.0,0.0,0.0,0.0
1606826261001806566,558807,1606826260996176812,imu_link,0.0013011808041483164,0.002944999374449253,0.029191939160227776,0.9995686411857605,0.0,0.0,0.0,0.0,0.0,0.0,0.0,0.0,0.0,3.3461039066314697,0.33297571539878845,0.1588943600654602,0.0,0.0,0.0,0.0,0.0,0.0,0.0,0.0,0.0,0.0026369672268629074,0.030292434617877007,0.330854594707489,0.0,0.0,0.0,0.0,0.0,0.0,0.0,0.0,0.0
1606826261001820139,558808,1606826260996340063,imu_link,0.0013011808041483164,0.002944999374449253,0.029191939160227776,0.9995686411857605,0.0,0.0,0.0,0.0,0.0,0.0,0.0,0.0,0.0,3.3461039066314697,0.33297571539878845,0.1588943600654602,0.0,0.0,0.0,0.0,0.0,0.0,0.0,0.0,0.0,0.0026369672268629074,0.030292434617877007,0.330854594707489,0.0,0.0,0.0,0.0,0.0,0.0,0.0,0.0,0.0
1606826261001838149,558809,1606826260996425959,imu_link,0.0012955048587173223,0.0029477684292942286,0.029189446941018105,0.99956876039505,0.0,0.0,0.0,0.0,0.0,0.0,0.0,0.0,0.0,3.3458168506622314,0.3333122730255127,0.15825264155864716,0.0,0.0,0.0,0.0,0.0,0.0,0.0,0.0,0.0,0.0024768617004156113,0.019251758232712746,0.30057233572006226,0.0,0.0,0.0,0.0,0.0,0.0,0.0,0.0,0.0
1606826261001851115,558810,1606826260996492950,imu_link,0.0012955048587173223,0.0029477684292942286,0.029189446941018105,0.99956876039505,0.0,0.0,0.0,0.0,0.0,0.0,0.0,0.0,0.0,3.3458168506622314,0.3333122730255127,0.15825264155864716,0.0,0.0,0.0,0.0,0.0,0.0,0.0,0.0,0.0,0.0024768617004156113,0.019251758232712746,0.30057233572006226,0.0,0.0,0.0,0.0,0.0,0.0,0.0,0.0,0.0
1606826261001864077,558811,1606826260996564011,imu_link,0.0012956081191077828,0.002948940033093095,0.029188385233283043,0.99956876039505,0.0,0.0,0.0,0.0,0.0,0.0,0.0,0.0,0.0,3.3456954956054688,0.33344629406929016,0.1582680493593216,0.0,0.0,0.0,0.0,0.0,0.0,0.0,0.0,0.0,-0.007195835933089256,-0.0007355229463428259,0.3045595586299896,0.0,0.0,0.0,0.0,0.0,0.0,0.0,0.0,0.0
1606826261001874328,558812,1606826260996637389,imu_link,0.0012956081191077828,0.002948940033093095,0.029188385233283043,0.99956876039505,0.0,0.0,0.0,0.0,0.0,0.0,0.0,0.0,0.0,3.3456954956054688,0.33344629406929016,0.1582680493593216,0.0,0.0,0.0,0.0,0.0,0.0,0.0,0.0,0.0,-0.007195835933089256,-0.0007355229463428259,0.3045595586299896,0.0,0.0,0.0,0.0,0.0,0.0,0.0,0.0,0.0
1606826261013899689,558813,1606826261009265599,imu_link,0.0012944985646754503,0.002947010565549135,0.02918841876089573,0.99956876039505,0.0,0.0,0.0,0.0,0.0,0.0,0.0,0.0,0.0,3.345698595046997,0.3332289755344391,0.15813450515270233,0.0,0.0,0.0,0.0,0.0,0.0,0.0,0.0,0.0,-0.00950357224792242,-0.014605889096856117,0.30328935384750366,0.0,0.0,0.0,0.0,0.0,0.0,0.0,0.0,0.0
1606826261014528380,558814,1606826261009385520,imu_link,0.0012944985646754503,0.002947010565549135,0.02918841876089573,0.99956876039505,0.0,0.0,0.0,0.0,0.0,0.0,0.0,0.0,0.0,3.345698595046997,0.3332289755344391,0.15813450515270233,0.0,0.0,0.0,0.0,0.0,0.0,0.0,0.0,0.0,-0.00950357224792242,-0.014605889096856117,0.30328935384750366,0.0,0.0,0.0,0.0,0.0,0.0,0.0,0.0,0.0
1606826261014544656,558815,1606826261009550497,imu_link,0.0012931338278576732,0.002949143759906292,0.029187751933932304,0.99956876039505,0.0,0.0,0.0,0.0,0.0,0.0,0.0,0.0,0.0,3.3456220626831055,0.33347800374031067,0.15798510611057281,0.0,0.0,0.0,0.0,0.0,0.0,0.0,0.0,0.0,-0.0149410180747509,-0.00029524281853809953,0.3129582107067108,0.0,0.0,0.0,0.0,0.0,0.0,0.0,0.0,0.0
1606826261014551590,558816,1606826261009623612,imu_link,0.0012931338278576732,0.002949143759906292,0.029187751933932304,0.99956876039505,0.0,0.0,0.0,0.0,0.0,0.0,0.0,0.0,0.0,3.3456220626831055,0.33347800374031067,0.15798510611057281,0.0,0.0,0.0,0.0,0.0,0.0,0.0,0.0,0.0,-0.0149410180747509,-0.00029524281853809953,0.3129582107067108,0.0,0.0,0.0,0.0,0.0,0.0,0.0,0.0,0.0
1606826261014563740,558817,1606826261009712452,imu_link,0.0012934941332787275,0.0029462329111993313,0.029191575944423676,0.9995687007904053,0.0,0.0,0.0,0.0,0.0,0.0,0.0,0.0,0.0,3.346060276031494,0.33314278721809387,0.15801790356636047,0.0,0.0,0.0,0.0,0.0,0.0,0.0,0.0,0.0,-0.005134259816259146,0.010147515684366226,0.3323837220668793,0.0,0.0,0.0,0.0,0.0,0.0,0.0,0.0,0.0
1606826261015055950,558818,1606826261009790009,imu_link,0.0012934941332787275,0.0029462329111993313,0.029191575944423676,0.9995687007904053,0.0,0.0,0.0,0.0,0.0,0.0,0.0,0.0,0.0,3.346060276031494,0.33314278721809387,0.15801790356636047,0.0,0.0,0.0,0.0,0.0,0.0,0.0,0.0,0.0,-0.005134259816259146,0.010147515684366226,0.3323837220668793,0.0,0.0,0.0,0.0,0.0,0.0,0.0,0.0,0.0
1606826261015079498,558819,1606826261009947261,imu_link,0.0012917652493342757,0.0029440554790198803,0.02919233962893486,0.9995687007904053,0.0,0.0,0.0,0.0,0.0,0.0,0.0,0.0,0.0,3.3461461067199707,0.3328990340232849,0.15781281888484955,0.0,0.0,0.0,0.0,0.0,0.0,0.0,0.0,0.0,0.01778528094291687,-0.0018519561272114515,0.3277204930782318,0.0,0.0,0.0,0.0,0.0,0.0,0.0,0.0,0.0
1606826261015094862,558820,1606826261010027001,imu_link,0.0012917652493342757,0.0029440554790198803,0.02919233962893486,0.9995687007904053,0.0,0.0,0.0,0.0,0.0,0.0,0.0,0.0,0.0,3.3461461067199707,0.3328990340232849,0.15781281888484955,0.0,0.0,0.0,0.0,0.0,0.0,0.0,0.0,0.0,0.01778528094291687,-0.0018519561272114515,0.3277204930782318,0.0,0.0,0.0,0.0,0.0,0.0,0.0,0.0,0.0
1606826261015104555,558821,1606826261010099091,imu_link,0.0012924512848258018,0.00294974772259593,0.02919875457882881,0.999568521976471,0.0,0.0,0.0,0.0,0.0,0.0,0.0,0.0,0.0,3.3468832969665527,0.33354780077934265,0.15791259706020355,0.0,0.0,0.0,0.0,0.0,0.0,0.0,0.0,0.0,0.026407070457935333,-0.009189078584313393,0.3162476420402527,0.0,0.0,0.0,0.0,0.0,0.0,0.0,0.0,0.0
1606826261016848462,558822,1606826261010234106,imu_link,0.0012924512848258018,0.00294974772259593,0.02919875457882881,0.999568521976471,0.0,0.0,0.0,0.0,0.0,0.0,0.0,0.0,0.0,3.3468832969665527,0.33354780077934265,0.15791259706020355,0.0,0.0,0.0,0.0,0.0,0.0,0.0,0.0,0.0,0.026407070457935333,-0.009189078584313393,0.3162476420402527,0.0,0.0,0.0,0.0,0.0,0.0,0.0,0.0,0.0
1606826261016865669,558823,1606826261010314152,imu_link,0.001293068053200841,0.002947885310277343,0.029199453070759773,0.9995684623718262,0.0,0.0,0.0,0.0,0.0,0.0,0.0,0.0,0.0,3.3469629287719727,0.33333221077919006,0.15797725319862366,0.0,0.0,0.0,0.0,0.0,0.0,0.0,0.0,0.0,-0.008617249317467213,-0.0019168331054970622,0.3288480341434479,0.0,0.0,0.0,0.0,0.0,0.0,0.0,0.0,0.0
1606826261041738383,558824,1606826261023072281,imu_link,0.001293068053200841,0.002947885310277343,0.029199453070759773,0.9995684623718262,0.0,0.0,0.0,0.0,0.0,0.0,0.0,0.0,0.0,3.3469629287719727,0.33333221077919006,0.15797725319862366,0.0,0.0,0.0,0.0,0.0,0.0,0.0,0.0,0.0,-0.008617249317467213,-0.0019168331054970622,0.3288480341434479,0.0,0.0,0.0,0.0,0.0,0.0,0.0,0.0,0.0
1606826261042686781,558825,1606826261023160860,imu_link,0.0012927481438964605,0.0029463600367307663,0.029199866577982903,0.9995684623718262,0.0,0.0,0.0,0.0,0.0,0.0,0.0,0.0,0.0,3.3470101356506348,0.3331585228443146,0.15793564915657043,0.0,0.0,0.0,0.0,0.0,0.0,0.0,0.0,0.0,-0.025396885350346565,0.011153409257531166,0.34309422969818115,0.0,0.0,0.0,0.0,0.0,0.0,0.0,0.0,0.0
1606826261042708709,558826,1606826261023269789,imu_link,0.0012927481438964605,0.0029463600367307663,0.029199866577982903,0.9995684623718262,0.0,0.0,0.0,0.0,0.0,0.0,0.0,0.0,0.0,3.3470101356506348,0.3331585228443146,0.15793564915657043,0.0,0.0,0.0,0.0,0.0,0.0,0.0,0.0,0.0,-0.025396885350346565,0.011153409257531166,0.34309422969818115,0.0,0.0,0.0,0.0,0.0,0.0,0.0,0.0,0.0
1606826261042726435,558827,1606826261023347740,imu_link,0.0012912377715110779,0.0029445162508636713,0.02919999323785305,0.9995684623718262,0.0,0.0,0.0,0.0,0.0,0.0,0.0,0.0,0.0,3.3470237255096436,0.3329523801803589,0.157756507396698,0.0,0.0,0.0,0.0,0.0,0.0,0.0,0.0,0.0,-0.007892314344644547,0.0141134737059474,0.32532525062561035,0.0,0.0,0.0,0.0,0.0,0.0,0.0,0.0,0.0
1606826261042744677,558828,1606826261023403612,imu_link,0.0012912377715110779,0.0029445162508636713,0.02919999323785305,0.9995684623718262,0.0,0.0,0.0,0.0,0.0,0.0,0.0,0.0,0.0,3.3470237255096436,0.3329523801803589,0.157756507396698,0.0,0.0,0.0,0.0,0.0,0.0,0.0,0.0,0.0,-0.007892314344644547,0.0141134737059474,0.32532525062561035,0.0,0.0,0.0,0.0,0.0,0.0,0.0,0.0,0.0
1606826261043215229,558829,1606826261023465936,imu_link,0.0012877124827355146,0.002942965365946293,0.029197607189416885,0.9995685815811157,0.0,0.0,0.0,0.0,0.0,0.0,0.0,0.0,0.0,3.3467488288879395,0.3327869176864624,0.157346710562706,0.0,0.0,0.0,0.0,0.0,0.0,0.0,0.0,0.0,-0.007250694092363119,0.008756417781114578,0.3224007189273834,0.0,0.0,0.0,0.0,0.0,0.0,0.0,0.0,0.0
1606826261043245108,558830,1606826261023531802,imu_link,0.0012877124827355146,0.002942965365946293,0.029197607189416885,0.9995685815811157,0.0,0.0,0.0,0.0,0.0,0.0,0.0,0.0,0.0,3.3467488288879395,0.3327869176864624,0.157346710562706,0.0,0.0,0.0,0.0,0.0,0.0,0.0,0.0,0.0,-0.007250694092363119,0.008756417781114578,0.3224007189273834,0.0,0.0,0.0,0.0,0.0,0.0,0.0,0.0,0.0
1606826261043309193,558831,1606826261023581073,imu_link,0.0012883152812719345,0.002943062223494053,0.02919885516166687,0.999568521976471,0.0,0.0,0.0,0.0,0.0,0.0,0.0,0.0,0.0,3.3468921184539795,0.33279579877853394,0.15741649270057678,0.0,0.0,0.0,0.0,0.0,0.0,0.0,0.0,0.0,0.0019403259502723813,0.02050870656967163,0.3232581913471222,0.0,0.0,0.0,0.0,0.0,0.0,0.0,0.0,0.0
1606826261043331863,558832,1606826261023632935,imu_link,0.0012883152812719345,0.002943062223494053,0.02919885516166687,0.999568521976471,0.0,0.0,0.0,0.0,0.0,0.0,0.0,0.0,0.0,3.3468921184539795,0.33279579877853394,0.15741649270057678,0.0,0.0,0.0,0.0,0.0,0.0,0.0,0.0,0.0,0.0019403259502723813,0.02050870656967163,0.3232581913471222,0.0,0.0,0.0,0.0,0.0,0.0,0.0,0.0,0.0
1606826261043370000,558833,1606826261023685628,imu_link,0.001283263904042542,0.0029437695629894733,0.0291961170732975,0.999568521976471,0.0,0.0,0.0,0.0,0.0,0.0,0.0,0.0,0.0,3.3465769290924072,0.33289411664009094,0.15683937072753906,0.0,0.0,0.0,0.0,0.0,0.0,0.0,0.0,0.0,0.00251888670027256,0.01271987333893776,0.30386674404144287,0.0,0.0,0.0,0.0,0.0,0.0,0.0,0.0,0.0
1606826261043392783,558834,1606826261023733674,imu_link,0.001283263904042542,0.0029437695629894733,0.0291961170732975,0.999568521976471,0.0,0.0,0.0,0.0,0.0,0.0,0.0,0.0,0.0,3.3465769290924072,0.33289411664009094,0.15683937072753906,0.0,0.0,0.0,0.0,0.0,0.0,0.0,0.0,0.0,0.00251888670027256,0.01271987333893776,0.30386674404144287,0.0,0.0,0.0,0.0,0.0,0.0,0.0,0.0,0.0
1606826261043435837,558835,1606826261036374519,imu_link,0.0012832614593207836,0.002941618673503399,0.029197249561548233,0.999568521976471,0.0,0.0,0.0,0.0,0.0,0.0,0.0,0.0,0.0,3.3467063903808594,0.3326475918292999,0.1568322628736496,0.0,0.0,0.0,0.0,0.0,0.0,0.0,0.0,0.0,-0.005923732183873653,0.001648488687351346,0.30876144766807556,0.0,0.0,0.0,0.0,0.0,0.0,0.0,0.0,0.0
1606826261043489102,558836,1606826261036487027,imu_link,0.0012832614593207836,0.002941618673503399,0.029197249561548233,0.999568521976471,0.0,0.0,0.0,0.0,0.0,0.0,0.0,0.0,0.0,3.3467063903808594,0.3326475918292999,0.1568322628736496,0.0,0.0,0.0,0.0,0.0,0.0,0.0,0.0,0.0,-0.005923732183873653,0.001648488687351346,0.30876144766807556,0.0,0.0,0.0,0.0,0.0,0.0,0.0,0.0,0.0
1606826261043520229,558837,1606826261036635502,imu_link,0.0012818480608984828,0.002941901795566082,0.029192062094807625,0.9995687007904053,0.0,0.0,0.0,0.0,0.0,0.0,0.0,0.0,0.0,3.346111297607422,0.33268555998802185,0.15666958689689636,0.0,0.0,0.0,0.0,0.0,0.0,0.0,0.0,0.0,0.008653702214360237,-0.005313002970069647,0.30962714552879333,0.0,0.0,0.0,0.0,0.0,0.0,0.0,0.0,0.0
1606826261043949591,558838,1606826261036819651,imu_link,0.0012818480608984828,0.002941901795566082,0.029192062094807625,0.9995687007904053,0.0,0.0,0.0,0.0,0.0,0.0,0.0,0.0,0.0,3.346111297607422,0.33268555998802185,0.15666958689689636,0.0,0.0,0.0,0.0,0.0,0.0,0.0,0.0,0.0,0.008653702214360237,-0.005313002970069647,0.30962714552879333,0.0,0.0,0.0,0.0,0.0,0.0,0.0,0.0,0.0
1606826261043977964,558839,1606826261036895125,imu_link,0.0012831994099542499,0.0029386417008936405,0.02919500134885311,0.9995686411857605,0.0,0.0,0.0,0.0,0.0,0.0,0.0,0.0,0.0,3.346447706222534,0.33230718970298767,0.15681442618370056,0.0,0.0,0.0,0.0,0.0,0.0,0.0,0.0,0.0,0.020806796848773956,-0.014065304771065712,0.31693628430366516,0.0,0.0,0.0,0.0,0.0,0.0,0.0,0.0,0.0
1606826261043993893,558840,1606826261037018847,imu_link,0.0012831994099542499,0.0029386417008936405,0.02919500134885311,0.9995686411857605,0.0,0.0,0.0,0.0,0.0,0.0,0.0,0.0,0.0,3.346447706222534,0.33230718970298767,0.15681442618370056,0.0,0.0,0.0,0.0,0.0,0.0,0.0,0.0,0.0,0.020806796848773956,-0.014065304771065712,0.31693628430366516,0.0,0.0,0.0,0.0,0.0,0.0,0.0,0.0,0.0
1606826261044009915,558841,1606826261037115662,imu_link,0.001288046594709158,0.002946325112134218,0.029189523309469223,0.99956876039505,0.0,0.0,0.0,0.0,0.0,0.0,0.0,0.0,0.0,3.345822811126709,0.33317187428474426,0.15739353001117706,0.0,0.0,0.0,0.0,0.0,0.0,0.0,0.0,0.0,0.024879371747374535,0.002304068300873041,0.3322441875934601,0.0,0.0,0.0,0.0,0.0,0.0,0.0,0.0,0.0
1606826261045421377,558842,1606826261037189476,imu_link,0.001288046594709158,0.002946325112134218,0.029189523309469223,0.99956876039505,0.0,0.0,0.0,0.0,0.0,0.0,0.0,0.0,0.0,3.345822811126709,0.33317187428474426,0.15739353001117706,0.0,0.0,0.0,0.0,0.0,0.0,0.0,0.0,0.0,0.024879371747374535,0.002304068300873041,0.3322441875934601,0.0,0.0,0.0,0.0,0.0,0.0,0.0,0.0,0.0
1606826261045445856,558843,1606826261037256624,imu_link,0.0012878718553110957,0.0029460634104907513,0.02918976917862892,0.99956876039505,0.0,0.0,0.0,0.0,0.0,0.0,0.0,0.0,0.0,3.345850706100464,0.3331424593925476,0.15737272799015045,0.0,0.0,0.0,0.0,0.0,0.0,0.0,0.0,0.0,0.0383465513586998,0.006935711018741131,0.33033275604248047,0.0,0.0,0.0,0.0,0.0,0.0,0.0,0.0,0.0
1606826261045468934,558844,1606826261037318719,imu_link,0.0012878718553110957,0.0029460634104907513,0.02918976917862892,0.99956876039505,0.0,0.0,0.0,0.0,0.0,0.0,0.0,0.0,0.0,3.345850706100464,0.3331424593925476,0.15737272799015045,0.0,0.0,0.0,0.0,0.0,0.0,0.0,0.0,0.0,0.0383465513586998,0.006935711018741131,0.33033275604248047,0.0,0.0,0.0,0.0,0.0,0.0,0.0,0.0,0.0
1606826261045481568,558845,1606826261037386624,imu_link,0.0012868732446804643,0.0029503898695111275,0.029185036197304726,0.9995688796043396,0.0,0.0,0.0,0.0,0.0,0.0,0.0,0.0,0.0,3.345308542251587,0.3336421251296997,0.15727123618125916,0.0,0.0,0.0,0.0,0.0,0.0,0.0,0.0,0.0,0.03151746466755867,0.009114778600633144,0.32054442167282104,0.0,0.0,0.0,0.0,0.0,0.0,0.0,0.0,0.0
1606826261053915605,558846,1606826261049507981,imu_link,0.0012868732446804643,0.0029503898695111275,0.029185036197304726,0.9995688796043396,0.0,0.0,0.0,0.0,0.0,0.0,0.0,0.0,0.0,3.345308542251587,0.3336421251296997,0.15727123618125916,0.0,0.0,0.0,0.0,0.0,0.0,0.0,0.0,0.0,0.03151746466755867,0.009114778600633144,0.32054442167282104,0.0,0.0,0.0,0.0,0.0,0.0,0.0,0.0,0.0
1606826261054543641,558847,1606826261049618527,imu_link,0.0012854763772338629,0.002950049936771393,0.029185825958848,0.9995688796043396,0.0,0.0,0.0,0.0,0.0,0.0,0.0,0.0,0.0,3.345398426055908,0.3336077630519867,0.15711036324501038,0.0,0.0,0.0,0.0,0.0,0.0,0.0,0.0,0.0,0.010111181065440178,0.008940319530665874,0.3120287358760834,0.0,0.0,0.0,0.0,0.0,0.0,0.0,0.0,0.0
1606826261054557216,558848,1606826261049760904,imu_link,0.0012854763772338629,0.002950049936771393,0.029185825958848,0.9995688796043396,0.0,0.0,0.0,0.0,0.0,0.0,0.0,0.0,0.0,3.345398426055908,0.3336077630519867,0.15711036324501038,0.0,0.0,0.0,0.0,0.0,0.0,0.0,0.0,0.0,0.010111181065440178,0.008940319530665874,0.3120287358760834,0.0,0.0,0.0,0.0,0.0,0.0,0.0,0.0,0.0
1606826261054576027,558849,1606826261049827037,imu_link,0.0012839072151109576,0.0029485183767974377,0.02918713167309761,0.9995688796043396,0.0,0.0,0.0,0.0,0.0,0.0,0.0,0.0,0.0,3.3455469608306885,0.33343735337257385,0.15692591667175293,0.0,0.0,0.0,0.0,0.0,0.0,0.0,0.0,0.0,0.015249742195010185,0.011498858220875263,0.3296396732330322,0.0,0.0,0.0,0.0,0.0,0.0,0.0,0.0,0.0
1606826261054588743,558850,1606826261049888671,imu_link,0.0012839072151109576,0.0029485183767974377,0.02918713167309761,0.9995688796043396,0.0,0.0,0.0,0.0,0.0,0.0,0.0,0.0,0.0,3.3455469608306885,0.33343735337257385,0.15692591667175293,0.0,0.0,0.0,0.0,0.0,0.0,0.0,0.0,0.0,0.015249742195010185,0.011498858220875263,0.3296396732330322,0.0,0.0,0.0,0.0,0.0,0.0,0.0,0.0,0.0
1606826261057528972,558851,1606826261049969562,imu_link,0.0012858682312071323,0.0029458969365805387,0.029189813882112503,0.99956876039505,0.0,0.0,0.0,0.0,0.0,0.0,0.0,0.0,0.0,3.345855236053467,0.3331300914287567,0.15714266896247864,0.0,0.0,0.0,0.0,0.0,0.0,0.0,0.0,0.0,0.012555652298033237,0.0209382064640522,0.32855841517448425,0.0,0.0,0.0,0.0,0.0,0.0,0.0,0.0,0.0
1606826261057548529,558852,1606826261050040221,imu_link,0.0012858682312071323,0.0029458969365805387,0.029189813882112503,0.99956876039505,0.0,0.0,0.0,0.0,0.0,0.0,0.0,0.0,0.0,3.345855236053467,0.3331300914287567,0.15714266896247864,0.0,0.0,0.0,0.0,0.0,0.0,0.0,0.0,0.0,0.012555652298033237,0.0209382064640522,0.32855841517448425,0.0,0.0,0.0,0.0,0.0,0.0,0.0,0.0,0.0
1606826261057558064,558853,1606826261050162367,imu_link,0.0012829307233914733,0.002945810556411743,0.029188020154833794,0.9995688199996948,0.0,0.0,0.0,0.0,0.0,0.0,0.0,0.0,0.0,3.3456485271453857,0.3331303298473358,0.15680532157421112,0.0,0.0,0.0,0.0,0.0,0.0,0.0,0.0,0.0,-0.007201620377600193,0.010525894351303577,0.31682848930358887,0.0,0.0,0.0,0.0,0.0,0.0,0.0,0.0,0.0
1606826261057568976,558854,1606826261050257510,imu_link,0.0012829307233914733,0.002945810556411743,0.029188020154833794,0.9995688199996948,0.0,0.0,0.0,0.0,0.0,0.0,0.0,0.0,0.0,3.3456485271453857,0.3331303298473358,0.15680532157421112,0.0,0.0,0.0,0.0,0.0,0.0,0.0,0.0,0.0,-0.007201620377600193,0.010525894351303577,0.31682848930358887,0.0,0.0,0.0,0.0,0.0,0.0,0.0,0.0,0.0
1606826261057586111,558855,1606826261050319762,imu_link,0.0012815302470698953,0.002947113011032343,0.029186276718974113,0.9995688796043396,0.0,0.0,0.0,0.0,0.0,0.0,0.0,0.0,0.0,3.3454487323760986,0.3332844376564026,0.1566486656665802,0.0,0.0,0.0,0.0,0.0,0.0,0.0,0.0,0.0,-0.015596002340316772,0.016949407756328583,0.31948015093803406,0.0,0.0,0.0,0.0,0.0,0.0,0.0,0.0,0.0
1606826261067678434,558856,1606826261063262667,imu_link,0.0012815302470698953,0.002947113011032343,0.029186276718974113,0.9995688796043396,0.0,0.0,0.0,0.0,0.0,0.0,0.0,0.0,0.0,3.3454487323760986,0.3332844376564026,0.1566486656665802,0.0,0.0,0.0,0.0,0.0,0.0,0.0,0.0,0.0,-0.015596002340316772,0.016949407756328583,0.31948015093803406,0.0,0.0,0.0,0.0,0.0,0.0,0.0,0.0,0.0
1606826261069213989,558857,1606826261063421349,imu_link,0.0012803120771422982,0.0029446915723383427,0.029186002910137177,0.9995688796043396,0.0,0.0,0.0,0.0,0.0,0.0,0.0,0.0,0.0,3.345416307449341,0.3330111801624298,0.1565009504556656,0.0,0.0,0.0,0.0,0.0,0.0,0.0,0.0,0.0,-0.007906822487711906,0.019082151353359222,0.31774526834487915,0.0,0.0,0.0,0.0,0.0,0.0,0.0,0.0,0.0
1606826261069226990,558858,1606826261063506563,imu_link,0.0012803120771422982,0.0029446915723383427,0.029186002910137177,0.9995688796043396,0.0,0.0,0.0,0.0,0.0,0.0,0.0,0.0,0.0,3.345416307449341,0.3330111801624298,0.1565009504556656,0.0,0.0,0.0,0.0,0.0,0.0,0.0,0.0,0.0,-0.007906822487711906,0.019082151353359222,0.31774526834487915,0.0,0.0,0.0,0.0,0.0,0.0,0.0,0.0,0.0
1606826261069238223,558859,1606826261063581831,imu_link,0.0012795167276635766,0.0029452310409396887,0.029186826199293137,0.9995688796043396,0.0,0.0,0.0,0.0,0.0,0.0,0.0,0.0,0.0,3.345510482788086,0.33307552337646484,0.15641193091869354,0.0,0.0,0.0,0.0,0.0,0.0,0.0,0.0,0.0,0.0016292451182380319,0.00012157956371083856,0.3310268223285675,0.0,0.0,0.0,0.0,0.0,0.0,0.0,0.0,0.0
1606826261069264345,558860,1606826261063650719,imu_link,0.0012795167276635766,0.0029452310409396887,0.029186826199293137,0.9995688796043396,0.0,0.0,0.0,0.0,0.0,0.0,0.0,0.0,0.0,3.345510482788086,0.33307552337646484,0.15641193091869354,0.0,0.0,0.0,0.0,0.0,0.0,0.0,0.0,0.0,0.0016292451182380319,0.00012157956371083856,0.3310268223285675,0.0,0.0,0.0,0.0,0.0,0.0,0.0,0.0,0.0
1606826261069277320,558861,1606826261063717775,imu_link,0.0012779630487784743,0.002942927647382021,0.029187703505158424,0.9995688796043396,0.0,0.0,0.0,0.0,0.0,0.0,0.0,0.0,0.0,3.3456101417541504,0.3328167796134949,0.1562265306711197,0.0,0.0,0.0,0.0,0.0,0.0,0.0,0.0,0.0,0.004283402115106583,-0.015152227133512497,0.3325754702091217,0.0,0.0,0.0,0.0,0.0,0.0,0.0,0.0,0.0
1606826261069947466,558862,1606826261063807181,imu_link,0.0012779630487784743,0.002942927647382021,0.029187703505158424,0.9995688796043396,0.0,0.0,0.0,0.0,0.0,0.0,0.0,0.0,0.0,3.3456101417541504,0.3328167796134949,0.1562265306711197,0.0,0.0,0.0,0.0,0.0,0.0,0.0,0.0,0.0,0.004283402115106583,-0.015152227133512497,0.3325754702091217,0.0,0.0,0.0,0.0,0.0,0.0,0.0,0.0,0.0
1606826261069955683,558863,1606826261063952913,imu_link,0.0012774686329066753,0.002941610524430871,0.02919001132249832,0.9995688199996948,0.0,0.0,0.0,0.0,0.0,0.0,0.0,0.0,0.0,3.345874309539795,0.33266720175743103,0.15616627037525177,0.0,0.0,0.0,0.0,0.0,0.0,0.0,0.0,0.0,0.004457797389477491,-0.004933945368975401,0.32394054532051086,0.0,0.0,0.0,0.0,0.0,0.0,0.0,0.0,0.0
1606826261069960270,558864,1606826261064026715,imu_link,0.0012774686329066753,0.002941610524430871,0.02919001132249832,0.9995688199996948,0.0,0.0,0.0,0.0,0.0,0.0,0.0,0.0,0.0,3.345874309539795,0.33266720175743103,0.15616627037525177,0.0,0.0,0.0,0.0,0.0,0.0,0.0,0.0,0.0,0.004457797389477491,-0.004933945368975401,0.32394054532051086,0.0,0.0,0.0,0.0,0.0,0.0,0.0,0.0,0.0
1606826261070453255,558865,1606826261064106187,imu_link,0.0012779368553310633,0.0029420226346701384,0.029192382469773293,0.9995687007904053,0.0,0.0,0.0,0.0,0.0,0.0,0.0,0.0,0.0,3.3461461067199707,0.33271244168281555,0.15622206032276154,0.0,0.0,0.0,0.0,0.0,0.0,0.0,0.0,0.0,0.003745997091755271,0.01182684674859047,0.31116557121276855,0.0,0.0,0.0,0.0,0.0,0.0,0.0,0.0,0.0
1606826261070460187,558866,1606826261064310490,imu_link,0.0012779368553310633,0.0029420226346701384,0.029192382469773293,0.9995687007904053,0.0,0.0,0.0,0.0,0.0,0.0,0.0,0.0,0.0,3.3461461067199707,0.33271244168281555,0.15622206032276154,0.0,0.0,0.0,0.0,0.0,0.0,0.0,0.0,0.0,0.003745997091755271,0.01182684674859047,0.31116557121276855,0.0,0.0,0.0,0.0,0.0,0.0,0.0,0.0,0.0
1606826261081165597,558867,1606826261076660282,imu_link,0.0012767548905685544,0.002941919257864356,0.029192252084612846,0.9995687007904053,0.0,0.0,0.0,0.0,0.0,0.0,0.0,0.0,0.0,3.3461310863494873,0.3327045738697052,0.1560862958431244,0.0,0.0,0.0,0.0,0.0,0.0,0.0,0.0,0.0,0.004032600205391645,0.009209629148244858,0.3162756562232971,0.0,0.0,0.0,0.0,0.0,0.0,0.0,0.0,0.0
1606826261082117471,558868,1606826261076771322,imu_link,0.0012767548905685544,0.002941919257864356,0.029192252084612846,0.9995687007904053,0.0,0.0,0.0,0.0,0.0,0.0,0.0,0.0,0.0,3.3461310863494873,0.3327045738697052,0.1560862958431244,0.0,0.0,0.0,0.0,0.0,0.0,0.0,0.0,0.0,0.004032600205391645,0.009209629148244858,0.3162756562232971,0.0,0.0,0.0,0.0,0.0,0.0,0.0,0.0,0.0
1606826261082142902,558869,1606826261076916673,imu_link,0.001275483751669526,0.0029441434890031815,0.029192961752414703,0.9995686411857605,0.0,0.0,0.0,0.0,0.0,0.0,0.0,0.0,0.0,3.346212387084961,0.3329634666442871,0.15594838559627533,0.0,0.0,0.0,0.0,0.0,0.0,0.0,0.0,0.0,0.00795026682317257,0.006771668326109648,0.34342527389526367,0.0,0.0,0.0,0.0,0.0,0.0,0.0,0.0,0.0
1606826261082154867,558870,1606826261076978681,imu_link,0.001275483751669526,0.0029441434890031815,0.029192961752414703,0.9995686411857605,0.0,0.0,0.0,0.0,0.0,0.0,0.0,0.0,0.0,3.346212387084961,0.3329634666442871,0.15594838559627533,0.0,0.0,0.0,0.0,0.0,0.0,0.0,0.0,0.0,0.00795026682317257,0.006771668326109648,0.34342527389526367,0.0,0.0,0.0,0.0,0.0,0.0,0.0,0.0,0.0
1606826261082170670,558871,1606826261077042215,imu_link,0.0012741121463477612,0.0029425215907394886,0.029191721230745316,0.9995687007904053,0.0,0.0,0.0,0.0,0.0,0.0,0.0,0.0,0.0,3.346069812774658,0.33278247714042664,0.1557854413986206,0.0,0.0,0.0,0.0,0.0,0.0,0.0,0.0,0.0,0.00911492295563221,0.006954946555197239,0.3381032645702362,0.0,0.0,0.0,0.0,0.0,0.0,0.0,0.0,0.0
1606826261082232278,558872,1606826261077115945,imu_link,0.0012741121463477612,0.0029425215907394886,0.029191721230745316,0.9995687007904053,0.0,0.0,0.0,0.0,0.0,0.0,0.0,0.0,0.0,3.346069812774658,0.33278247714042664,0.1557854413986206,0.0,0.0,0.0,0.0,0.0,0.0,0.0,0.0,0.0,0.00911492295563221,0.006954946555197239,0.3381032645702362,0.0,0.0,0.0,0.0,0.0,0.0,0.0,0.0,0.0
1606826261082249480,558873,1606826261077261990,imu_link,0.001273952890187502,0.002943514846265316,0.029189515858888626,0.99956876039505,0.0,0.0,0.0,0.0,0.0,0.0,0.0,0.0,0.0,3.3458168506622314,0.3328971266746521,0.15576978027820587,0.0,0.0,0.0,0.0,0.0,0.0,0.0,0.0,0.0,0.0029081404209136963,0.004011165350675583,0.32201123237609863,0.0,0.0,0.0,0.0,0.0,0.0,0.0,0.0,0.0
1606826261082257372,558874,1606826261077338347,imu_link,0.001273952890187502,0.002943514846265316,0.029189515858888626,0.99956876039505,0.0,0.0,0.0,0.0,0.0,0.0,0.0,0.0,0.0,3.3458168506622314,0.3328971266746521,0.15576978027820587,0.0,0.0,0.0,0.0,0.0,0.0,0.0,0.0,0.0,0.0029081404209136963,0.004011165350675583,0.32201123237609863,0.0,0.0,0.0,0.0,0.0,0.0,0.0,0.0,0.0
1606826261082267753,558875,1606826261077407049,imu_link,0.0012739354278892279,0.0029441099613904953,0.029191171750426292,0.99956876039505,0.0,0.0,0.0,0.0,0.0,0.0,0.0,0.0,0.0,3.3460068702697754,0.33296510577201843,0.15577031672000885,0.0,0.0,0.0,0.0,0.0,0.0,0.0,0.0,0.0,0.009989370591938496,-0.008770561777055264,0.2967455983161926,0.0,0.0,0.0,0.0,0.0,0.0,0.0,0.0,0.0
1606826261084510491,558876,1606826261077481826,imu_link,0.0012739354278892279,0.0029441099613904953,0.029191171750426292,0.99956876039505,0.0,0.0,0.0,0.0,0.0,0.0,0.0,0.0,0.0,3.3460068702697754,0.33296510577201843,0.15577031672000885,0.0,0.0,0.0,0.0,0.0,0.0,0.0,0.0,0.0,0.009989370591938496,-0.008770561777055264,0.2967455983161926,0.0,0.0,0.0,0.0,0.0,0.0,0.0,0.0,0.0
1606826261084526385,558877,1606826261077548885,imu_link,0.0012751807225868106,0.0029457181226462126,0.02919282205402851,0.9995687007904053,0.0,0.0,0.0,0.0,0.0,0.0,0.0,0.0,0.0,3.3461966514587402,0.333144873380661,0.1559188961982727,0.0,0.0,0.0,0.0,0.0,0.0,0.0,0.0,0.0,-0.004715694580227137,-0.0073433732613921165,0.28840014338493347,0.0,0.0,0.0,0.0,0.0,0.0,0.0,0.0,0.0
1606826261095054682,558878,1606826261090455797,imu_link,0.0012751807225868106,0.0029457181226462126,0.02919282205402851,0.9995687007904053,0.0,0.0,0.0,0.0,0.0,0.0,0.0,0.0,0.0,3.3461966514587402,0.333144873380661,0.1559188961982727,0.0,0.0,0.0,0.0,0.0,0.0,0.0,0.0,0.0,-0.004715694580227137,-0.0073433732613921165,0.28840014338493347,0.0,0.0,0.0,0.0,0.0,0.0,0.0,0.0,0.0
1606826261097890745,558879,1606826261090588498,imu_link,0.0012759347446262836,0.0029434014577418566,0.029193896800279617,0.9995687007904053,0.0,0.0,0.0,0.0,0.0,0.0,0.0,0.0,0.0,3.3463194370269775,0.33287689089775085,0.1559978723526001,0.0,0.0,0.0,0.0,0.0,0.0,0.0,0.0,0.0,-0.016575070098042488,-0.0038425971288233995,0.3141658902168274,0.0,0.0,0.0,0.0,0.0,0.0,0.0,0.0,0.0
1606826261097920513,558880,1606826261090760646,imu_link,0.0012759347446262836,0.0029434014577418566,0.029193896800279617,0.9995687007904053,0.0,0.0,0.0,0.0,0.0,0.0,0.0,0.0,0.0,3.3463194370269775,0.33287689089775085,0.1559978723526001,0.0,0.0,0.0,0.0,0.0,0.0,0.0,0.0,0.0,-0.016575070098042488,-0.0038425971288233995,0.3141658902168274,0.0,0.0,0.0,0.0,0.0,0.0,0.0,0.0,0.0
1606826261097962843,558881,1606826261090840946,imu_link,0.0012763665290549397,0.0029401828069239855,0.02919408120214939,0.9995687007904053,0.0,0.0,0.0,0.0,0.0,0.0,0.0,0.0,0.0,3.3463401794433594,0.3325067162513733,0.1560366004705429,0.0,0.0,0.0,0.0,0.0,0.0,0.0,0.0,0.0,0.005401980597525835,0.007982162758708,0.3271896243095398,0.0,0.0,0.0,0.0,0.0,0.0,0.0,0.0,0.0
1606826261097991575,558882,1606826261090918545,imu_link,0.0012763665290549397,0.0029401828069239855,0.02919408120214939,0.9995687007904053,0.0,0.0,0.0,0.0,0.0,0.0,0.0,0.0,0.0,3.3463401794433594,0.3325067162513733,0.1560366004705429,0.0,0.0,0.0,0.0,0.0,0.0,0.0,0.0,0.0,0.005401980597525835,0.007982162758708,0.3271896243095398,0.0,0.0,0.0,0.0,0.0,0.0,0.0,0.0,0.0
1606826261098001228,558883,1606826261091011811,imu_link,0.0012760220561176538,0.0029400133062154055,0.029195623472332954,0.9995686411857605,0.0,0.0,0.0,0.0,0.0,0.0,0.0,0.0,0.0,3.3465170860290527,0.33248820900917053,0.1559971123933792,0.0,0.0,0.0,0.0,0.0,0.0,0.0,0.0,0.0,0.013146741315722466,0.0015441449359059334,0.32742562890052795,0.0,0.0,0.0,0.0,0.0,0.0,0.0,0.0,0.0
1606826261098006744,558884,1606826261091172712,imu_link,0.0012760220561176538,0.0029400133062154055,0.029195623472332954,0.9995686411857605,0.0,0.0,0.0,0.0,0.0,0.0,0.0,0.0,0.0,3.3465170860290527,0.33248820900917053,0.1559971123933792,0.0,0.0,0.0,0.0,0.0,0.0,0.0,0.0,0.0,0.013146741315722466,0.0015441449359059334,0.32742562890052795,0.0,0.0,0.0,0.0,0.0,0.0,0.0,0.0,0.0
1606826261098012395,558885,1606826261091264779,imu_link,0.001277121831662953,0.0029408892150968313,0.02919500321149826,0.9995686411857605,0.0,0.0,0.0,0.0,0.0,0.0,0.0,0.0,0.0,3.3464465141296387,0.332584947347641,0.15612578392028809,0.0,0.0,0.0,0.0,0.0,0.0,0.0,0.0,0.0,0.01549053005874157,-0.025162316858768463,0.3261845111846924,0.0,0.0,0.0,0.0,0.0,0.0,0.0,0.0,0.0
1606826261099547402,558886,1606826261091370944,imu_link,0.001277121831662953,0.0029408892150968313,0.02919500321149826,0.9995686411857605,0.0,0.0,0.0,0.0,0.0,0.0,0.0,0.0,0.0,3.3464465141296387,0.332584947347641,0.15612578392028809,0.0,0.0,0.0,0.0,0.0,0.0,0.0,0.0,0.0,0.01549053005874157,-0.025162316858768463,0.3261845111846924,0.0,0.0,0.0,0.0,0.0,0.0,0.0,0.0,0.0
1606826261099563589,558887,1606826261091597623,imu_link,0.0012792183551937342,0.0029407094698399305,0.029194971546530724,0.9995686411857605,0.0,0.0,0.0,0.0,0.0,0.0,0.0,0.0,0.0,3.3464436531066895,0.33255735039711,0.15636533498764038,0.0,0.0,0.0,0.0,0.0,0.0,0.0,0.0,0.0,0.01495690830051899,-0.009908795356750488,0.34606826305389404,0.0,0.0,0.0,0.0,0.0,0.0,0.0,0.0,0.0
1606826261099588088,558888,1606826261091692832,imu_link,0.0012792183551937342,0.0029407094698399305,0.029194971546530724,0.9995686411857605,0.0,0.0,0.0,0.0,0.0,0.0,0.0,0.0,0.0,3.3464436531066895,0.33255735039711,0.15636533498764038,0.0,0.0,0.0,0.0,0.0,0.0,0.0,0.0,0.0,0.01495690830051899,-0.009908795356750488,0.34606826305389404,0.0,0.0,0.0,0.0,0.0,0.0,0.0,0.0,0.0
1606826261137781521,558889,1606826261103508699,imu_link,0.0012792678317055106,0.0029419881757348776,0.029188157990574837,0.9995688199996948,0.0,0.0,0.0,0.0,0.0,0.0,0.0,0.0,0.0,3.3456625938415527,0.33270472288131714,0.1563730090856552,0.0,0.0,0.0,0.0,0.0,0.0,0.0,0.0,0.0,0.0046674273908138275,0.0014662995235994458,0.3444468379020691,0.0,0.0,0.0,0.0,0.0,0.0,0.0,0.0,0.0
1606826261137801759,558890,1606826261103648777,imu_link,0.0012792678317055106,0.0029419881757348776,0.029188157990574837,0.9995688199996948,0.0,0.0,0.0,0.0,0.0,0.0,0.0,0.0,0.0,3.3456625938415527,0.33270472288131714,0.1563730090856552,0.0,0.0,0.0,0.0,0.0,0.0,0.0,0.0,0.0,0.0046674273908138275,0.0014662995235994458,0.3444468379020691,0.0,0.0,0.0,0.0,0.0,0.0,0.0,0.0,0.0
1606826261137813457,558891,1606826261103794785,imu_link,0.0012792072957381606,0.002942568389698863,0.029189743101596832,0.99956876039505,0.0,0.0,0.0,0.0,0.0,0.0,0.0,0.0,0.0,3.3458445072174072,0.3327711224555969,0.15636855363845825,0.0,0.0,0.0,0.0,0.0,0.0,0.0,0.0,0.0,-0.0016379989683628082,0.0078178895637393,0.3161005973815918,0.0,0.0,0.0,0.0,0.0,0.0,0.0,0.0,0.0
1606826261137826922,558892,1606826261103864246,imu_link,0.0012792072957381606,0.002942568389698863,0.029189743101596832,0.99956876039505,0.0,0.0,0.0,0.0,0.0,0.0,0.0,0.0,0.0,3.3458445072174072,0.3327711224555969,0.15636855363845825,0.0,0.0,0.0,0.0,0.0,0.0,0.0,0.0,0.0,-0.0016379989683628082,0.0078178895637393,0.3161005973815918,0.0,0.0,0.0,0.0,0.0,0.0,0.0,0.0,0.0
1606826261137861671,558893,1606826261103928049,imu_link,0.0012783855199813843,0.0029412682633847,0.029183045029640198,0.9995689392089844,0.0,0.0,0.0,0.0,0.0,0.0,0.0,0.0,0.0,3.345076322555542,0.33262601494789124,0.15626783668994904,0.0,0.0,0.0,0.0,0.0,0.0,0.0,0.0,0.0,0.009214268997311592,0.003433976322412491,0.3112792670726776,0.0,0.0,0.0,0.0,0.0,0.0,0.0,0.0,0.0
1606826261137873117,558894,1606826261104008859,imu_link,0.0012783855199813843,0.0029412682633847,0.029183045029640198,0.9995689392089844,0.0,0.0,0.0,0.0,0.0,0.0,0.0,0.0,0.0,3.345076322555542,0.33262601494789124,0.15626783668994904,0.0,0.0,0.0,0.0,0.0,0.0,0.0,0.0,0.0,0.009214268997311592,0.003433976322412491,0.3112792670726776,0.0,0.0,0.0,0.0,0.0,0.0,0.0,0.0,0.0
1606826261137953037,558895,1606826261104078653,imu_link,0.0012770696775987744,0.00294215464964509,0.02918366715312004,0.9995689392089844,0.0,0.0,0.0,0.0,0.0,0.0,0.0,0.0,0.0,3.345146894454956,0.33273181319236755,0.15612030029296875,0.0,0.0,0.0,0.0,0.0,0.0,0.0,0.0,0.0,0.0025085562374442816,-0.005422012880444527,0.3065151274204254,0.0,0.0,0.0,0.0,0.0,0.0,0.0,0.0,0.0
1606826261138015501,558896,1606826261104140215,imu_link,0.0012770696775987744,0.00294215464964509,0.02918366715312004,0.9995689392089844,0.0,0.0,0.0,0.0,0.0,0.0,0.0,0.0,0.0,3.345146894454956,0.33273181319236755,0.15612030029296875,0.0,0.0,0.0,0.0,0.0,0.0,0.0,0.0,0.0,0.0025085562374442816,-0.005422012880444527,0.3065151274204254,0.0,0.0,0.0,0.0,0.0,0.0,0.0,0.0,0.0
1606826261138026676,558897,1606826261104207622,imu_link,0.0012787969317287207,0.002941907150670886,0.029182426631450653,0.9995689988136292,0.0,0.0,0.0,0.0,0.0,0.0,0.0,0.0,0.0,3.345005512237549,0.33269789814949036,0.15631690621376038,0.0,0.0,0.0,0.0,0.0,0.0,0.0,0.0,0.0,-0.016631068661808968,-0.0036237735766917467,0.30295056104660034,0.0,0.0,0.0,0.0,0.0,0.0,0.0,0.0,0.0
1606826261138039591,558898,1606826261104275162,imu_link,0.0012787969317287207,0.002941907150670886,0.029182426631450653,0.9995689988136292,0.0,0.0,0.0,0.0,0.0,0.0,0.0,0.0,0.0,3.345005512237549,0.33269789814949036,0.15631690621376038,0.0,0.0,0.0,0.0,0.0,0.0,0.0,0.0,0.0,-0.016631068661808968,-0.0036237735766917467,0.30295056104660034,0.0,0.0,0.0,0.0,0.0,0.0,0.0,0.0,0.0
1606826261138065021,558899,1606826261104342626,imu_link,0.0012776256771758199,0.0029408137779682875,0.029184451326727867,0.9995689392089844,0.0,0.0,0.0,0.0,0.0,0.0,0.0,0.0,0.0,3.3452370166778564,0.3325762450695038,0.1561797559261322,0.0,0.0,0.0,0.0,0.0,0.0,0.0,0.0,0.0,-0.010362938046455383,0.0007091624429449439,0.31229081749916077,0.0,0.0,0.0,0.0,0.0,0.0,0.0,0.0,0.0
1606826261138073861,558900,1606826261116904569,imu_link,0.0012776256771758199,0.0029408137779682875,0.029184451326727867,0.9995689392089844,0.0,0.0,0.0,0.0,0.0,0.0,0.0,0.0,0.0,3.3452370166778564,0.3325762450695038,0.1561797559261322,0.0,0.0,0.0,0.0,0.0,0.0,0.0,0.0,0.0,-0.010362938046455383,0.0007091624429449439,0.31229081749916077,0.0,0.0,0.0,0.0,0.0,0.0,0.0,0.0,0.0
1606826261138081041,558901,1606826261117027047,imu_link,0.0012777078663930297,0.0029394321609288454,0.029183903709053993,0.9995689392089844,0.0,0.0,0.0,0.0,0.0,0.0,0.0,0.0,0.0,3.3451740741729736,0.3324178159236908,0.1561843603849411,0.0,0.0,0.0,0.0,0.0,0.0,0.0,0.0,0.0,-0.002725223544985056,0.001201848266646266,0.3337175250053406,0.0,0.0,0.0,0.0,0.0,0.0,0.0,0.0,0.0
1606826261138086164,558902,1606826261117182553,imu_link,0.0012777078663930297,0.0029394321609288454,0.029183903709053993,0.9995689392089844,0.0,0.0,0.0,0.0,0.0,0.0,0.0,0.0,0.0,3.3451740741729736,0.3324178159236908,0.1561843603849411,0.0,0.0,0.0,0.0,0.0,0.0,0.0,0.0,0.0,-0.002725223544985056,0.001201848266646266,0.3337175250053406,0.0,0.0,0.0,0.0,0.0,0.0,0.0,0.0,0.0
1606826261138983787,558903,1606826261117255129,imu_link,0.001276760478504002,0.0029381862841546535,0.029184652492403984,0.9995689392089844,0.0,0.0,0.0,0.0,0.0,0.0,0.0,0.0,0.0,3.345259189605713,0.33227816224098206,0.15607190132141113,0.0,0.0,0.0,0.0,0.0,0.0,0.0,0.0,0.0,-0.01340287271887064,-0.011486614122986794,0.3565664291381836,0.0,0.0,0.0,0.0,0.0,0.0,0.0,0.0,0.0
1606826261138998442,558904,1606826261117334588,imu_link,0.001276760478504002,0.0029381862841546535,0.029184652492403984,0.9995689392089844,0.0,0.0,0.0,0.0,0.0,0.0,0.0,0.0,0.0,3.345259189605713,0.33227816224098206,0.15607190132141113,0.0,0.0,0.0,0.0,0.0,0.0,0.0,0.0,0.0,-0.01340287271887064,-0.011486614122986794,0.3565664291381836,0.0,0.0,0.0,0.0,0.0,0.0,0.0,0.0,0.0
1606826261139038218,558905,1606826261117422636,imu_link,0.0012798613170161843,0.0029375795274972916,0.029186364263296127,0.9995688796043396,0.0,0.0,0.0,0.0,0.0,0.0,0.0,0.0,0.0,3.345456600189209,0.33219805359840393,0.15642563998699188,0.0,0.0,0.0,0.0,0.0,0.0,0.0,0.0,0.0,-0.007987674325704575,-0.015047206543385983,0.3499794602394104,0.0,0.0,0.0,0.0,0.0,0.0,0.0,0.0,0.0
1606826261139048295,558906,1606826261117491720,imu_link,0.0012798613170161843,0.0029375795274972916,0.029186364263296127,0.9995688796043396,0.0,0.0,0.0,0.0,0.0,0.0,0.0,0.0,0.0,3.345456600189209,0.33219805359840393,0.15642563998699188,0.0,0.0,0.0,0.0,0.0,0.0,0.0,0.0,0.0,-0.007987674325704575,-0.015047206543385983,0.3499794602394104,0.0,0.0,0.0,0.0,0.0,0.0,0.0,0.0,0.0
1606826261139061324,558907,1606826261117567410,imu_link,0.0012791398912668228,0.002937653800472617,0.02919030748307705,0.99956876039505,0.0,0.0,0.0,0.0,0.0,0.0,0.0,0.0,0.0,3.3459079265594482,0.3322083353996277,0.15634457767009735,0.0,0.0,0.0,0.0,0.0,0.0,0.0,0.0,0.0,-0.0014370266580954194,-0.014032724313437939,0.3571549355983734,0.0,0.0,0.0,0.0,0.0,0.0,0.0,0.0,0.0
1606826261139068115,558908,1606826261117643033,imu_link,0.0012791398912668228,0.002937653800472617,0.02919030748307705,0.99956876039505,0.0,0.0,0.0,0.0,0.0,0.0,0.0,0.0,0.0,3.3459079265594482,0.3322083353996277,0.15634457767009735,0.0,0.0,0.0,0.0,0.0,0.0,0.0,0.0,0.0,-0.0014370266580954194,-0.014032724313437939,0.3571549355983734,0.0,0.0,0.0,0.0,0.0,0.0,0.0,0.0,0.0
1606826261139083575,558909,1606826261117717890,imu_link,0.0012814062647521496,0.0029388742987066507,0.029195019975304604,0.9995686411857605,0.0,0.0,0.0,0.0,0.0,0.0,0.0,0.0,0.0,3.346449613571167,0.3323397934436798,0.15660981833934784,0.0,0.0,0.0,0.0,0.0,0.0,0.0,0.0,0.0,-0.0060912868939340115,-0.004128682427108288,0.37648579478263855,0.0,0.0,0.0,0.0,0.0,0.0,0.0,0.0,0.0
1606826261139094404,558910,1606826261130715208,imu_link,0.0012814062647521496,0.0029388742987066507,0.029195019975304604,0.9995686411857605,0.0,0.0,0.0,0.0,0.0,0.0,0.0,0.0,0.0,3.346449613571167,0.3323397934436798,0.15660981833934784,0.0,0.0,0.0,0.0,0.0,0.0,0.0,0.0,0.0,-0.0060912868939340115,-0.004128682427108288,0.37648579478263855,0.0,0.0,0.0,0.0,0.0,0.0,0.0,0.0,0.0
1606826261139101575,558911,1606826261130857923,imu_link,0.0012820531846955419,0.0029382617212831974,0.02919773943722248,0.999568521976471,0.0,0.0,0.0,0.0,0.0,0.0,0.0,0.0,0.0,3.346761465072632,0.33226704597473145,0.1566827893257141,0.0,0.0,0.0,0.0,0.0,0.0,0.0,0.0,0.0,0.0009473031386733055,0.017443155869841576,0.36112073063850403,0.0,0.0,0.0,0.0,0.0,0.0,0.0,0.0,0.0
1606826261139108838,558912,1606826261131024081,imu_link,0.0012820531846955419,0.0029382617212831974,0.02919773943722248,0.999568521976471,0.0,0.0,0.0,0.0,0.0,0.0,0.0,0.0,0.0,3.346761465072632,0.33226704597473145,0.1566827893257141,0.0,0.0,0.0,0.0,0.0,0.0,0.0,0.0,0.0,0.0009473031386733055,0.017443155869841576,0.36112073063850403,0.0,0.0,0.0,0.0,0.0,0.0,0.0,0.0,0.0
1606826261139125406,558913,1606826261131122784,imu_link,0.0012773177586495876,0.0029407935217022896,0.029201198369264603,0.9995684623718262,0.0,0.0,0.0,0.0,0.0,0.0,0.0,0.0,0.0,3.3471567630767822,0.332572340965271,0.1561499685049057,0.0,0.0,0.0,0.0,0.0,0.0,0.0,0.0,0.0,0.00533213559538126,0.01225945446640253,0.3134710490703583,0.0,0.0,0.0,0.0,0.0,0.0,0.0,0.0,0.0
1606826261139140462,558914,1606826261131209579,imu_link,0.0012773177586495876,0.0029407935217022896,0.029201198369264603,0.9995684623718262,0.0,0.0,0.0,0.0,0.0,0.0,0.0,0.0,0.0,3.3471567630767822,0.332572340965271,0.1561499685049057,0.0,0.0,0.0,0.0,0.0,0.0,0.0,0.0,0.0,0.00533213559538126,0.01225945446640253,0.3134710490703583,0.0,0.0,0.0,0.0,0.0,0.0,0.0,0.0,0.0
1606826261139150326,558915,1606826261131333235,imu_link,0.0012777511728927493,0.0029433888848870993,0.029201962053775787,0.9995684027671814,0.0,0.0,0.0,0.0,0.0,0.0,0.0,0.0,0.0,3.34724497795105,0.3328680694103241,0.1562085747718811,0.0,0.0,0.0,0.0,0.0,0.0,0.0,0.0,0.0,-0.007780642248690128,-0.011619589291512966,0.3053068220615387,0.0,0.0,0.0,0.0,0.0,0.0,0.0,0.0,0.0
1606826261139157991,558916,1606826261131451513,imu_link,0.0012777511728927493,0.0029433888848870993,0.029201962053775787,0.9995684027671814,0.0,0.0,0.0,0.0,0.0,0.0,0.0,0.0,0.0,3.34724497795105,0.3328680694103241,0.1562085747718811,0.0,0.0,0.0,0.0,0.0,0.0,0.0,0.0,0.0,-0.007780642248690128,-0.011619589291512966,0.3053068220615387,0.0,0.0,0.0,0.0,0.0,0.0,0.0,0.0,0.0
1606826261139162862,558917,1606826261131540919,imu_link,0.0012797306990250945,0.0029424491804093122,0.029204722493886948,0.9995683431625366,0.0,0.0,0.0,0.0,0.0,0.0,0.0,0.0,0.0,3.347562074661255,0.33275339007377625,0.1564330756664276,0.0,0.0,0.0,0.0,0.0,0.0,0.0,0.0,0.0,0.010833324864506721,-0.010931242257356644,0.33365681767463684,0.0,0.0,0.0,0.0,0.0,0.0,0.0,0.0,0.0
1606826261139173826,558918,1606826261131618002,imu_link,0.0012797306990250945,0.0029424491804093122,0.029204722493886948,0.9995683431625366,0.0,0.0,0.0,0.0,0.0,0.0,0.0,0.0,0.0,3.347562074661255,0.33275339007377625,0.1564330756664276,0.0,0.0,0.0,0.0,0.0,0.0,0.0,0.0,0.0,0.010833324864506721,-0.010931242257356644,0.33365681767463684,0.0,0.0,0.0,0.0,0.0,0.0,0.0,0.0,0.0
1606826261139180402,558919,1606826261131695030,imu_link,0.0012797306990250945,0.0029424491804093122,0.029204722493886948,0.9995683431625366,0.0,0.0,0.0,0.0,0.0,0.0,0.0,0.0,0.0,3.347562074661255,0.33275339007377625,0.1564330756664276,0.0,0.0,0.0,0.0,0.0,0.0,0.0,0.0,0.0,0.01376726757735014,-0.0017108332831412554,0.33425042033195496,0.0,0.0,0.0,0.0,0.0,0.0,0.0,0.0,0.0
1606826261144721977,558920,1606826261131780617,imu_link,0.0012797306990250945,0.0029424491804093122,0.029204722493886948,0.9995683431625366,0.0,0.0,0.0,0.0,0.0,0.0,0.0,0.0,0.0,3.347562074661255,0.33275339007377625,0.1564330756664276,0.0,0.0,0.0,0.0,0.0,0.0,0.0,0.0,0.0,0.01376726757735014,-0.0017108332831412554,0.33425042033195496,0.0,0.0,0.0,0.0,0.0,0.0,0.0,0.0,0.0
1606826261148829070,558921,1606826261144173656,imu_link,0.0012808914761990309,0.0029460371006280184,0.029200712218880653,0.9995684027671814,0.0,0.0,0.0,0.0,0.0,0.0,0.0,0.0,0.0,3.3471033573150635,0.3331610858440399,0.1565767377614975,0.0,0.0,0.0,0.0,0.0,0.0,0.0,0.0,0.0,-0.013261505402624607,-0.0028164677787572145,0.341557115316391,0.0,0.0,0.0,0.0,0.0,0.0,0.0,0.0,0.0
1606826261149451579,558922,1606826261144357766,imu_link,0.0012808914761990309,0.0029460371006280184,0.029200712218880653,0.9995684027671814,0.0,0.0,0.0,0.0,0.0,0.0,0.0,0.0,0.0,3.3471033573150635,0.3331610858440399,0.1565767377614975,0.0,0.0,0.0,0.0,0.0,0.0,0.0,0.0,0.0,-0.013261505402624607,-0.0028164677787572145,0.341557115316391,0.0,0.0,0.0,0.0,0.0,0.0,0.0,0.0,0.0
1606826261149475707,558923,1606826261144456564,imu_link,0.0012814647052437067,0.002945354674011469,0.029199320822954178,0.9995684623718262,0.0,0.0,0.0,0.0,0.0,0.0,0.0,0.0,0.0,3.3469436168670654,0.3330811858177185,0.15663965046405792,0.0,0.0,0.0,0.0,0.0,0.0,0.0,0.0,0.0,0.004696803167462349,-0.0005805164109915495,0.31798094511032104,0.0,0.0,0.0,0.0,0.0,0.0,0.0,0.0,0.0
1606826261149490887,558924,1606826261144536403,imu_link,0.0012814647052437067,0.002945354674011469,0.029199320822954178,0.9995684623718262,0.0,0.0,0.0,0.0,0.0,0.0,0.0,0.0,0.0,3.3469436168670654,0.3330811858177185,0.15663965046405792,0.0,0.0,0.0,0.0,0.0,0.0,0.0,0.0,0.0,0.004696803167462349,-0.0005805164109915495,0.31798094511032104,0.0,0.0,0.0,0.0,0.0,0.0,0.0,0.0,0.0
1606826261149502316,558925,1606826261144625749,imu_link,0.0012819383991882205,0.0029445302207022905,0.029194820672273636,0.9995685815811157,0.0,0.0,0.0,0.0,0.0,0.0,0.0,0.0,0.0,3.3464279174804688,0.33298590779304504,0.15668964385986328,0.0,0.0,0.0,0.0,0.0,0.0,0.0,0.0,0.0,0.0025943084619939327,-0.004571888130158186,0.31143254041671753,0.0,0.0,0.0,0.0,0.0,0.0,0.0,0.0,0.0
1606826261149947650,558926,1606826261144788184,imu_link,0.0012819383991882205,0.0029445302207022905,0.029194820672273636,0.9995685815811157,0.0,0.0,0.0,0.0,0.0,0.0,0.0,0.0,0.0,3.3464279174804688,0.33298590779304504,0.15668964385986328,0.0,0.0,0.0,0.0,0.0,0.0,0.0,0.0,0.0,0.0025943084619939327,-0.004571888130158186,0.31143254041671753,0.0,0.0,0.0,0.0,0.0,0.0,0.0,0.0,0.0
1606826261149971229,558927,1606826261144901842,imu_link,0.001283356687054038,0.0029436801560223103,0.029194984585046768,0.9995685815811157,0.0,0.0,0.0,0.0,0.0,0.0,0.0,0.0,0.0,3.346447229385376,0.3328837752342224,0.15684930980205536,0.0,0.0,0.0,0.0,0.0,0.0,0.0,0.0,0.0,-0.012277696281671524,0.0035068895667791367,0.3381742835044861,0.0,0.0,0.0,0.0,0.0,0.0,0.0,0.0,0.0
1606826261149982620,558928,1606826261144988973,imu_link,0.001283356687054038,0.0029436801560223103,0.029194984585046768,0.9995685815811157,0.0,0.0,0.0,0.0,0.0,0.0,0.0,0.0,0.0,3.346447229385376,0.3328837752342224,0.15684930980205536,0.0,0.0,0.0,0.0,0.0,0.0,0.0,0.0,0.0,-0.012277696281671524,0.0035068895667791367,0.3381742835044861,0.0,0.0,0.0,0.0,0.0,0.0,0.0,0.0,0.0
1606826261150025349,558929,1606826261145068281,imu_link,0.001283160992898047,0.002941753016784787,0.029189227148890495,0.9995688199996948,0.0,0.0,0.0,0.0,0.0,0.0,0.0,0.0,0.0,3.3457863330841064,0.3326645791530609,0.15681850910186768,0.0,0.0,0.0,0.0,0.0,0.0,0.0,0.0,0.0,0.0005927917081862688,0.014321908354759216,0.3442726135253906,0.0,0.0,0.0,0.0,0.0,0.0,0.0,0.0,0.0
1606826261151807483,558930,1606826261145150436,imu_link,0.001283160992898047,0.002941753016784787,0.029189227148890495,0.9995688199996948,0.0,0.0,0.0,0.0,0.0,0.0,0.0,0.0,0.0,3.3457863330841064,0.3326645791530609,0.15681850910186768,0.0,0.0,0.0,0.0,0.0,0.0,0.0,0.0,0.0,0.0005927917081862688,0.014321908354759216,0.3442726135253906,0.0,0.0,0.0,0.0,0.0,0.0,0.0,0.0,0.0
1606826261151819127,558931,1606826261145227393,imu_link,0.0012821854325011373,0.0029416638426482677,0.029187427833676338,0.9995688796043396,0.0,0.0,0.0,0.0,0.0,0.0,0.0,0.0,0.0,3.3455798625946045,0.33265790343284607,0.15670587122440338,0.0,0.0,0.0,0.0,0.0,0.0,0.0,0.0,0.0,0.00037357397377491,0.006837490946054459,0.3445188105106354,0.0,0.0,0.0,0.0,0.0,0.0,0.0,0.0,0.0
1606826261165015540,558932,1606826261157807587,imu_link,0.0012821854325011373,0.0029416638426482677,0.029187427833676338,0.9995688796043396,0.0,0.0,0.0,0.0,0.0,0.0,0.0,0.0,0.0,3.3455798625946045,0.33265790343284607,0.15670587122440338,0.0,0.0,0.0,0.0,0.0,0.0,0.0,0.0,0.0,0.00037357397377491,0.006837490946054459,0.3445188105106354,0.0,0.0,0.0,0.0,0.0,0.0,0.0,0.0,0.0
1606826261165032106,558933,1606826261157910429,imu_link,0.0012812145287171006,0.002942044520750642,0.029182882979512215,0.9995689988136292,0.0,0.0,0.0,0.0,0.0,0.0,0.0,0.0,0.0,3.3450584411621094,0.3327054977416992,0.1565944403409958,0.0,0.0,0.0,0.0,0.0,0.0,0.0,0.0,0.0,-0.024195769801735878,-0.003982695285230875,0.31207165122032166,0.0,0.0,0.0,0.0,0.0,0.0,0.0,0.0,0.0
