%time,field.header.seq,field.header.stamp,field.header.frame_id,field.orientation.x,field.orientation.y,field.orientation.z,field.orientation.w,field.orientation_covariance0,field.orientation_covariance1,field.orientation_covariance2,field.orientation_covariance3,field.orientation_covariance4,field.orientation_covariance5,field.orientation_covariance6,field.orientation_covariance7,field.orientation_covariance8,field.angular_velocity.x,field.angular_velocity.y,field.angular_velocity.z,field.angular_velocity_covariance0,field.angular_velocity_covariance1,field.angular_velocity_covariance2,field.angular_velocity_covariance3,field.angular_velocity_covariance4,field.angular_velocity_covariance5,field.angular_velocity_covariance6,field.angular_velocity_covariance7,field.angular_velocity_covariance8,field.linear_acceleration.x,field.linear_acceleration.y,field.linear_acceleration.z,field.linear_acceleration_covariance0,field.linear_acceleration_covariance1,field.linear_acceleration_covariance2,field.linear_acceleration_covariance3,field.linear_acceleration_covariance4,field.linear_acceleration_covariance5,field.linear_acceleration_covariance6,field.linear_acceleration_covariance7,field.linear_acceleration_covariance8
1606828541111821839,2382869,1606828541096419330,imu_link,-0.07269014418125153,-0.02359367534518242,0.1786891520023346,0.9809330701828003,0.0,0.0,0.0,0.0,0.0,0.0,0.0,0.0,0.0,20.736291885375977,-1.1637431383132935,-8.689018249511719,0.0,0.0,0.0,0.0,0.0,0.0,0.0,0.0,0.0,0.013348724693059921,-0.05347653850913048,0.31637030839920044,0.0,0.0,0.0,0.0,0.0,0.0,0.0,0.0,0.0
1606828541111845605,2382870,1606828541096536508,imu_link,-0.07269014418125153,-0.02359367534518242,0.1786891520023346,0.9809330701828003,0.0,0.0,0.0,0.0,0.0,0.0,0.0,0.0,0.0,20.736291885375977,-1.1637431383132935,-8.689018249511719,0.0,0.0,0.0,0.0,0.0,0.0,0.0,0.0,0.0,0.013348724693059921,-0.05347653850913048,0.31637030839920044,0.0,0.0,0.0,0.0,0.0,0.0,0.0,0.0,0.0
1606828541111855358,2382871,1606828541096693822,imu_link,-0.07269024848937988,-0.023595286533236504,0.1786908507347107,0.9809327125549316,0.0,0.0,0.0,0.0,0.0,0.0,0.0,0.0,0.0,20.73650360107422,-1.1639069318771362,-8.689064979553223,0.0,0.0,0.0,0.0,0.0,0.0,0.0,0.0,0.0,-0.015098356641829014,-0.05994204431772232,0.32432037591934204,0.0,0.0,0.0,0.0,0.0,0.0,0.0,0.0,0.0
1606828541111864922,2382872,1606828541096774719,imu_link,-0.07269024848937988,-0.023595286533236504,0.1786908507347107,0.9809327125549316,0.0,0.0,0.0,0.0,0.0,0.0,0.0,0.0,0.0,20.73650360107422,-1.1639069318771362,-8.689064979553223,0.0,0.0,0.0,0.0,0.0,0.0,0.0,0.0,0.0,-0.015098356641829014,-0.05994204431772232,0.32432037591934204,0.0,0.0,0.0,0.0,0.0,0.0,0.0,0.0,0.0
1606828541111894933,2382873,1606828541096840645,imu_link,-0.07268892973661423,-0.023601358756422997,0.17869572341442108,0.9809317588806152,0.0,0.0,0.0,0.0,0.0,0.0,0.0,0.0,0.0,20.737123489379883,-1.1645735502243042,-8.68904972076416,0.0,0.0,0.0,0.0,0.0,0.0,0.0,0.0,0.0,-0.0178024023771286,-0.06691661477088928,0.34198784828186035,0.0,0.0,0.0,0.0,0.0,0.0,0.0,0.0,0.0
1606828541112278294,2382874,1606828541096936943,imu_link,-0.07268892973661423,-0.023601358756422997,0.17869572341442108,0.9809317588806152,0.0,0.0,0.0,0.0,0.0,0.0,0.0,0.0,0.0,20.737123489379883,-1.1645735502243042,-8.68904972076416,0.0,0.0,0.0,0.0,0.0,0.0,0.0,0.0,0.0,-0.0178024023771286,-0.06691661477088928,0.34198784828186035,0.0,0.0,0.0,0.0,0.0,0.0,0.0,0.0,0.0
1606828541112299142,2382875,1606828541097011385,imu_link,-0.07268892228603363,-0.023599430918693542,0.1786966472864151,0.9809316396713257,0.0,0.0,0.0,0.0,0.0,0.0,0.0,0.0,0.0,20.737213134765625,-1.1643489599227905,-8.689008712768555,0.0,0.0,0.0,0.0,0.0,0.0,0.0,0.0,0.0,0.0024859667755663395,-0.055662959814071655,0.33143705129623413,0.0,0.0,0.0,0.0,0.0,0.0,0.0,0.0,0.0
1606828541112315370,2382876,1606828541097079401,imu_link,-0.07268892228603363,-0.023599430918693542,0.1786966472864151,0.9809316396713257,0.0,0.0,0.0,0.0,0.0,0.0,0.0,0.0,0.0,20.737213134765625,-1.1643489599227905,-8.689008712768555,0.0,0.0,0.0,0.0,0.0,0.0,0.0,0.0,0.0,0.0024859667755663395,-0.055662959814071655,0.33143705129623413,0.0,0.0,0.0,0.0,0.0,0.0,0.0,0.0,0.0
1606828541112326031,2382877,1606828541097147215,imu_link,-0.07268840819597244,-0.023601200431585312,0.17870047688484192,0.9809309244155884,0.0,0.0,0.0,0.0,0.0,0.0,0.0,0.0,0.0,20.737672805786133,-1.1645245552062988,-8.688992500305176,0.0,0.0,0.0,0.0,0.0,0.0,0.0,0.0,0.0,0.021809758618474007,-0.04999053105711937,0.32580140233039856,0.0,0.0,0.0,0.0,0.0,0.0,0.0,0.0,0.0
1606828541118872512,2382878,1606828541097213728,imu_link,-0.07268840819597244,-0.023601200431585312,0.17870047688484192,0.9809309244155884,0.0,0.0,0.0,0.0,0.0,0.0,0.0,0.0,0.0,20.737672805786133,-1.1645245552062988,-8.688992500305176,0.0,0.0,0.0,0.0,0.0,0.0,0.0,0.0,0.0,0.021809758618474007,-0.04999053105711937,0.32580140233039856,0.0,0.0,0.0,0.0,0.0,0.0,0.0,0.0,0.0
1606828541118895635,2382879,1606828541097281904,imu_link,-0.07268920540809631,-0.02359921485185623,0.1787010133266449,0.9809308648109436,0.0,0.0,0.0,0.0,0.0,0.0,0.0,0.0,0.0,20.737716674804688,-1.1642802953720093,-8.689041137695312,0.0,0.0,0.0,0.0,0.0,0.0,0.0,0.0,0.0,0.02613246627151966,-0.0600510910153389,0.33103588223457336,0.0,0.0,0.0,0.0,0.0,0.0,0.0,0.0,0.0
1606828541118904661,2382880,1606828541109338186,imu_link,-0.07268920540809631,-0.02359921485185623,0.1787010133266449,0.9809308648109436,0.0,0.0,0.0,0.0,0.0,0.0,0.0,0.0,0.0,20.737716674804688,-1.1642802953720093,-8.689041137695312,0.0,0.0,0.0,0.0,0.0,0.0,0.0,0.0,0.0,0.02613246627151966,-0.0600510910153389,0.33103588223457336,0.0,0.0,0.0,0.0,0.0,0.0,0.0,0.0,0.0
1606828541118910478,2382881,1606828541109465155,imu_link,-0.07268909364938736,-0.023595698177814484,0.17871560156345367,0.9809283018112183,0.0,0.0,0.0,0.0,0.0,0.0,0.0,0.0,0.0,20.7393798828125,-1.1637588739395142,-8.688971519470215,0.0,0.0,0.0,0.0,0.0,0.0,0.0,0.0,0.0,0.03309407830238342,-0.06681027263402939,0.3252156972885132,0.0,0.0,0.0,0.0,0.0,0.0,0.0,0.0,0.0
1606828541118935235,2382882,1606828541109623495,imu_link,-0.07268909364938736,-0.023595698177814484,0.17871560156345367,0.9809283018112183,0.0,0.0,0.0,0.0,0.0,0.0,0.0,0.0,0.0,20.7393798828125,-1.1637588739395142,-8.688971519470215,0.0,0.0,0.0,0.0,0.0,0.0,0.0,0.0,0.0,0.03309407830238342,-0.06681027263402939,0.3252156972885132,0.0,0.0,0.0,0.0,0.0,0.0,0.0,0.0,0.0
1606828541119358813,2382883,1606828541109709724,imu_link,-0.0726885199546814,-0.023594167083501816,0.17871667444705963,0.9809281826019287,0.0,0.0,0.0,0.0,0.0,0.0,0.0,0.0,0.0,20.73948860168457,-1.1635890007019043,-8.688878059387207,0.0,0.0,0.0,0.0,0.0,0.0,0.0,0.0,0.0,0.04047754034399986,-0.060030464082956314,0.31025198101997375,0.0,0.0,0.0,0.0,0.0,0.0,0.0,0.0,0.0
1606828541119375123,2382884,1606828541109780799,imu_link,-0.0726885199546814,-0.023594167083501816,0.17871667444705963,0.9809281826019287,0.0,0.0,0.0,0.0,0.0,0.0,0.0,0.0,0.0,20.73948860168457,-1.1635890007019043,-8.688878059387207,0.0,0.0,0.0,0.0,0.0,0.0,0.0,0.0,0.0,0.04047754034399986,-0.060030464082956314,0.31025198101997375,0.0,0.0,0.0,0.0,0.0,0.0,0.0,0.0,0.0
1606828541119401041,2382885,1606828541109876464,imu_link,-0.07268834859132767,-0.023591337725520134,0.17872804403305054,0.9809261560440063,0.0,0.0,0.0,0.0,0.0,0.0,0.0,0.0,0.0,20.74078369140625,-1.1631742715835571,-8.688812255859375,0.0,0.0,0.0,0.0,0.0,0.0,0.0,0.0,0.0,0.027722030878067017,-0.05562806874513626,0.3089888393878937,0.0,0.0,0.0,0.0,0.0,0.0,0.0,0.0,0.0
1606828541119408566,2382886,1606828541109954413,imu_link,-0.07268834859132767,-0.023591337725520134,0.17872804403305054,0.9809261560440063,0.0,0.0,0.0,0.0,0.0,0.0,0.0,0.0,0.0,20.74078369140625,-1.1631742715835571,-8.688812255859375,0.0,0.0,0.0,0.0,0.0,0.0,0.0,0.0,0.0,0.027722030878067017,-0.05562806874513626,0.3089888393878937,0.0,0.0,0.0,0.0,0.0,0.0,0.0,0.0,0.0
1606828541130386177,2382887,1606828541110028820,imu_link,-0.07269041240215302,-0.023592693731188774,0.17872799932956696,0.980925977230072,0.0,0.0,0.0,0.0,0.0,0.0,0.0,0.0,0.0,20.74079132080078,-1.1632843017578125,-8.689074516296387,0.0,0.0,0.0,0.0,0.0,0.0,0.0,0.0,0.0,0.01606430485844612,-0.04605983570218086,0.3236169219017029,0.0,0.0,0.0,0.0,0.0,0.0,0.0,0.0,0.0
1606828541130408743,2382888,1606828541110105713,imu_link,-0.07269041240215302,-0.023592693731188774,0.17872799932956696,0.980925977230072,0.0,0.0,0.0,0.0,0.0,0.0,0.0,0.0,0.0,20.74079132080078,-1.1632843017578125,-8.689074516296387,0.0,0.0,0.0,0.0,0.0,0.0,0.0,0.0,0.0,0.01606430485844612,-0.04605983570218086,0.3236169219017029,0.0,0.0,0.0,0.0,0.0,0.0,0.0,0.0,0.0
1606828541130429651,2382889,1606828541110174607,imu_link,-0.07268977910280228,-0.023592693731188774,0.17873254418373108,0.9809252619743347,0.0,0.0,0.0,0.0,0.0,0.0,0.0,0.0,0.0,20.74131965637207,-1.1632575988769531,-8.689006805419922,0.0,0.0,0.0,0.0,0.0,0.0,0.0,0.0,0.0,0.017870405688881874,-0.04448627680540085,0.33256953954696655,0.0,0.0,0.0,0.0,0.0,0.0,0.0,0.0,0.0
1606828541133219484,2382890,1606828541123109395,imu_link,-0.07268977910280228,-0.023592693731188774,0.17873254418373108,0.9809252619743347,0.0,0.0,0.0,0.0,0.0,0.0,0.0,0.0,0.0,20.74131965637207,-1.1632575988769531,-8.689006805419922,0.0,0.0,0.0,0.0,0.0,0.0,0.0,0.0,0.0,0.017870405688881874,-0.04448627680540085,0.33256953954696655,0.0,0.0,0.0,0.0,0.0,0.0,0.0,0.0,0.0
1606828541133249273,2382891,1606828541123217024,imu_link,-0.07268903404474258,-0.023593030869960785,0.17873355746269226,0.9809250831604004,0.0,0.0,0.0,0.0,0.0,0.0,0.0,0.0,0.0,20.74144172668457,-1.163301706314087,-8.68893051147461,0.0,0.0,0.0,0.0,0.0,0.0,0.0,0.0,0.0,0.004887950606644154,-0.052823398262262344,0.33331435918807983,0.0,0.0,0.0,0.0,0.0,0.0,0.0,0.0,0.0
1606828541133262367,2382892,1606828541123387593,imu_link,-0.07268903404474258,-0.023593030869960785,0.17873355746269226,0.9809250831604004,0.0,0.0,0.0,0.0,0.0,0.0,0.0,0.0,0.0,20.74144172668457,-1.163301706314087,-8.68893051147461,0.0,0.0,0.0,0.0,0.0,0.0,0.0,0.0,0.0,0.004887950606644154,-0.052823398262262344,0.33331435918807983,0.0,0.0,0.0,0.0,0.0,0.0,0.0,0.0,0.0
1606828541133276669,2382893,1606828541123457078,imu_link,-0.07268720865249634,-0.023591553792357445,0.1787390112876892,0.9809242486953735,0.0,0.0,0.0,0.0,0.0,0.0,0.0,0.0,0.0,20.7420597076416,-1.1631253957748413,-8.688700675964355,0.0,0.0,0.0,0.0,0.0,0.0,0.0,0.0,0.0,0.0021192170679569244,-0.057629432529211044,0.35279545187950134,0.0,0.0,0.0,0.0,0.0,0.0,0.0,0.0,0.0
1606828541133310588,2382894,1606828541123520949,imu_link,-0.07268720865249634,-0.023591553792357445,0.1787390112876892,0.9809242486953735,0.0,0.0,0.0,0.0,0.0,0.0,0.0,0.0,0.0,20.7420597076416,-1.1631253957748413,-8.688700675964355,0.0,0.0,0.0,0.0,0.0,0.0,0.0,0.0,0.0,0.0021192170679569244,-0.057629432529211044,0.35279545187950134,0.0,0.0,0.0,0.0,0.0,0.0,0.0,0.0,0.0
1606828541134895104,2382895,1606828541123599162,imu_link,-0.07268761843442917,-0.023593366146087646,0.17873936891555786,0.980924129486084,0.0,0.0,0.0,0.0,0.0,0.0,0.0,0.0,0.0,20.742116928100586,-1.1633175611495972,-8.6887845993042,0.0,0.0,0.0,0.0,0.0,0.0,0.0,0.0,0.0,0.011802207678556442,-0.04789618402719498,0.34660279750823975,0.0,0.0,0.0,0.0,0.0,0.0,0.0,0.0,0.0
1606828541134918119,2382896,1606828541123677899,imu_link,-0.07268761843442917,-0.023593366146087646,0.17873936891555786,0.980924129486084,0.0,0.0,0.0,0.0,0.0,0.0,0.0,0.0,0.0,20.742116928100586,-1.1633175611495972,-8.6887845993042,0.0,0.0,0.0,0.0,0.0,0.0,0.0,0.0,0.0,0.011802207678556442,-0.04789618402719498,0.34660279750823975,0.0,0.0,0.0,0.0,0.0,0.0,0.0,0.0,0.0
1606828541134941809,2382897,1606828541123747713,imu_link,-0.07269027829170227,-0.023591358214616776,0.178739994764328,0.9809238910675049,0.0,0.0,0.0,0.0,0.0,0.0,0.0,0.0,0.0,20.742172241210938,-1.1630313396453857,-8.689043998718262,0.0,0.0,0.0,0.0,0.0,0.0,0.0,0.0,0.0,0.00892727542668581,-0.0334462895989418,0.3206021189689636,0.0,0.0,0.0,0.0,0.0,0.0,0.0,0.0,0.0
1606828541134966306,2382898,1606828541123811107,imu_link,-0.07269027829170227,-0.023591358214616776,0.178739994764328,0.9809238910675049,0.0,0.0,0.0,0.0,0.0,0.0,0.0,0.0,0.0,20.742172241210938,-1.1630313396453857,-8.689043998718262,0.0,0.0,0.0,0.0,0.0,0.0,0.0,0.0,0.0,0.00892727542668581,-0.0334462895989418,0.3206021189689636,0.0,0.0,0.0,0.0,0.0,0.0,0.0,0.0,0.0
1606828541134978103,2382899,1606828541123877288,imu_link,-0.07268962264060974,-0.02359074540436268,0.1787414252758026,0.9809236526489258,0.0,0.0,0.0,0.0,0.0,0.0,0.0,0.0,0.0,20.74233627319336,-1.1629633903503418,-8.688960075378418,0.0,0.0,0.0,0.0,0.0,0.0,0.0,0.0,0.0,0.0190969817340374,-0.03814524784684181,0.3302808403968811,0.0,0.0,0.0,0.0,0.0,0.0,0.0,0.0,0.0
1606828541134986133,2382900,1606828541123940045,imu_link,-0.07268962264060974,-0.02359074540436268,0.1787414252758026,0.9809236526489258,0.0,0.0,0.0,0.0,0.0,0.0,0.0,0.0,0.0,20.74233627319336,-1.1629633903503418,-8.688960075378418,0.0,0.0,0.0,0.0,0.0,0.0,0.0,0.0,0.0,0.0190969817340374,-0.03814524784684181,0.3302808403968811,0.0,0.0,0.0,0.0,0.0,0.0,0.0,0.0,0.0
1606828541172324660,2382901,1606828541136580017,imu_link,-0.07269208133220673,-0.02359060011804104,0.17873969674110413,0.9809238314628601,0.0,0.0,0.0,0.0,0.0,0.0,0.0,0.0,0.0,20.74213409423828,-1.1629114151000977,-8.689230918884277,0.0,0.0,0.0,0.0,0.0,0.0,0.0,0.0,0.0,0.03269210830330849,-0.056758929044008255,0.32437703013420105,0.0,0.0,0.0,0.0,0.0,0.0,0.0,0.0,0.0
1606828541172356984,2382902,1606828541136738658,imu_link,-0.07269208133220673,-0.02359060011804104,0.17873969674110413,0.9809238314628601,0.0,0.0,0.0,0.0,0.0,0.0,0.0,0.0,0.0,20.74213409423828,-1.1629114151000977,-8.689230918884277,0.0,0.0,0.0,0.0,0.0,0.0,0.0,0.0,0.0,0.03269210830330849,-0.056758929044008255,0.32437703013420105,0.0,0.0,0.0,0.0,0.0,0.0,0.0,0.0,0.0
1606828541172371500,2382903,1606828541136924847,imu_link,-0.07269229739904404,-0.023591794073581696,0.17874132096767426,0.9809234738349915,0.0,0.0,0.0,0.0,0.0,0.0,0.0,0.0,0.0,20.74233627319336,-1.1630269289016724,-8.68928337097168,0.0,0.0,0.0,0.0,0.0,0.0,0.0,0.0,0.0,0.030105547979474068,-0.058262258768081665,0.297590970993042,0.0,0.0,0.0,0.0,0.0,0.0,0.0,0.0,0.0
1606828541172403379,2382904,1606828541137098583,imu_link,-0.07269229739904404,-0.023591794073581696,0.17874132096767426,0.9809234738349915,0.0,0.0,0.0,0.0,0.0,0.0,0.0,0.0,0.0,20.74233627319336,-1.1630269289016724,-8.68928337097168,0.0,0.0,0.0,0.0,0.0,0.0,0.0,0.0,0.0,0.030105547979474068,-0.058262258768081665,0.297590970993042,0.0,0.0,0.0,0.0,0.0,0.0,0.0,0.0,0.0
1606828541172440547,2382905,1606828541137186090,imu_link,-0.07269120961427689,-0.023586390540003777,0.17873355746269226,0.9809250831604004,0.0,0.0,0.0,0.0,0.0,0.0,0.0,0.0,0.0,20.741382598876953,-1.1625105142593384,-8.689038276672363,0.0,0.0,0.0,0.0,0.0,0.0,0.0,0.0,0.0,0.019449610263109207,-0.04376259073615074,0.28067487478256226,0.0,0.0,0.0,0.0,0.0,0.0,0.0,0.0,0.0
1606828541172458405,2382906,1606828541137265263,imu_link,-0.07269120961427689,-0.023586390540003777,0.17873355746269226,0.9809250831604004,0.0,0.0,0.0,0.0,0.0,0.0,0.0,0.0,0.0,20.741382598876953,-1.1625105142593384,-8.689038276672363,0.0,0.0,0.0,0.0,0.0,0.0,0.0,0.0,0.0,0.019449610263109207,-0.04376259073615074,0.28067487478256226,0.0,0.0,0.0,0.0,0.0,0.0,0.0,0.0,0.0
1606828541172493639,2382907,1606828541137370912,imu_link,-0.07269053906202316,-0.023584166541695595,0.17873500287532806,0.9809249043464661,0.0,0.0,0.0,0.0,0.0,0.0,0.0,0.0,0.0,20.741527557373047,-1.1622618436813354,-8.688918113708496,0.0,0.0,0.0,0.0,0.0,0.0,0.0,0.0,0.0,0.0032796557061374187,-0.06224684417247772,0.2941161096096039,0.0,0.0,0.0,0.0,0.0,0.0,0.0,0.0,0.0
1606828541172582181,2382908,1606828541137449057,imu_link,-0.07269053906202316,-0.023584166541695595,0.17873500287532806,0.9809249043464661,0.0,0.0,0.0,0.0,0.0,0.0,0.0,0.0,0.0,20.741527557373047,-1.1622618436813354,-8.688918113708496,0.0,0.0,0.0,0.0,0.0,0.0,0.0,0.0,0.0,0.0032796557061374187,-0.06224684417247772,0.2941161096096039,0.0,0.0,0.0,0.0,0.0,0.0,0.0,0.0,0.0
1606828541172600666,2382909,1606828541137534830,imu_link,-0.07268922030925751,-0.023582378402352333,0.17872567474842072,0.9809267520904541,0.0,0.0,0.0,0.0,0.0,0.0,0.0,0.0,0.0,20.740427017211914,-1.16217041015625,-8.688720703125,0.0,0.0,0.0,0.0,0.0,0.0,0.0,0.0,0.0,0.0008051227778196335,-0.07447082549333572,0.32006996870040894,0.0,0.0,0.0,0.0,0.0,0.0,0.0,0.0,0.0
1606828541172630101,2382910,1606828541137620979,imu_link,-0.07268922030925751,-0.023582378402352333,0.17872567474842072,0.9809267520904541,0.0,0.0,0.0,0.0,0.0,0.0,0.0,0.0,0.0,20.740427017211914,-1.16217041015625,-8.688720703125,0.0,0.0,0.0,0.0,0.0,0.0,0.0,0.0,0.0,0.0008051227778196335,-0.07447082549333572,0.32006996870040894,0.0,0.0,0.0,0.0,0.0,0.0,0.0,0.0,0.0
1606828541172670053,2382911,1606828541137705128,imu_link,-0.0726902037858963,-0.02358231320977211,0.17872661352157593,0.980926513671875,0.0,0.0,0.0,0.0,0.0,0.0,0.0,0.0,0.0,20.740535736083984,-1.1621345281600952,-8.688831329345703,0.0,0.0,0.0,0.0,0.0,0.0,0.0,0.0,0.0,0.006426907144486904,-0.06898845732212067,0.31334784626960754,0.0,0.0,0.0,0.0,0.0,0.0,0.0,0.0,0.0
1606828541172685175,2382912,1606828541150413114,imu_link,-0.0726902037858963,-0.02358231320977211,0.17872661352157593,0.980926513671875,0.0,0.0,0.0,0.0,0.0,0.0,0.0,0.0,0.0,20.740535736083984,-1.1621345281600952,-8.688831329345703,0.0,0.0,0.0,0.0,0.0,0.0,0.0,0.0,0.0,0.006426907144486904,-0.06898845732212067,0.31334784626960754,0.0,0.0,0.0,0.0,0.0,0.0,0.0,0.0,0.0
1606828541172697216,2382913,1606828541150550356,imu_link,-0.0726855918765068,-0.023582259193062782,0.17872042953968048,0.9809280037879944,0.0,0.0,0.0,0.0,0.0,0.0,0.0,0.0,0.0,20.73981285095215,-1.162278652191162,-8.688301086425781,0.0,0.0,0.0,0.0,0.0,0.0,0.0,0.0,0.0,-0.006752714980393648,-0.07118432223796844,0.3063720762729645,0.0,0.0,0.0,0.0,0.0,0.0,0.0,0.0,0.0
1606828541172714115,2382914,1606828541150725625,imu_link,-0.0726855918765068,-0.023582259193062782,0.17872042953968048,0.9809280037879944,0.0,0.0,0.0,0.0,0.0,0.0,0.0,0.0,0.0,20.73981285095215,-1.162278652191162,-8.688301086425781,0.0,0.0,0.0,0.0,0.0,0.0,0.0,0.0,0.0,-0.006752714980393648,-0.07118432223796844,0.3063720762729645,0.0,0.0,0.0,0.0,0.0,0.0,0.0,0.0,0.0
1606828541173392508,2382915,1606828541150827585,imu_link,-0.07268794625997543,-0.02358163706958294,0.17872196435928345,0.9809275269508362,0.0,0.0,0.0,0.0,0.0,0.0,0.0,0.0,0.0,20.739988327026367,-1.1621463298797607,-8.688557624816895,0.0,0.0,0.0,0.0,0.0,0.0,0.0,0.0,0.0,0.0006194282323122025,-0.06886543333530426,0.29573577642440796,0.0,0.0,0.0,0.0,0.0,0.0,0.0,0.0,0.0
1606828541173432826,2382916,1606828541150916992,imu_link,-0.07268794625997543,-0.02358163706958294,0.17872196435928345,0.9809275269508362,0.0,0.0,0.0,0.0,0.0,0.0,0.0,0.0,0.0,20.739988327026367,-1.1621463298797607,-8.688557624816895,0.0,0.0,0.0,0.0,0.0,0.0,0.0,0.0,0.0,0.0006194282323122025,-0.06886543333530426,0.29573577642440796,0.0,0.0,0.0,0.0,0.0,0.0,0.0,0.0,0.0
1606828541173471011,2382917,1606828541150994170,imu_link,-0.07268288731575012,-0.02357960119843483,0.17871829867362976,0.9809285998344421,0.0,0.0,0.0,0.0,0.0,0.0,0.0,0.0,0.0,20.73953628540039,-1.1620543003082275,-8.687938690185547,0.0,0.0,0.0,0.0,0.0,0.0,0.0,0.0,0.0,0.007321123033761978,-0.06546491384506226,0.31196340918540955,0.0,0.0,0.0,0.0,0.0,0.0,0.0,0.0,0.0
1606828541173498795,2382918,1606828541151093489,imu_link,-0.07268288731575012,-0.02357960119843483,0.17871829867362976,0.9809285998344421,0.0,0.0,0.0,0.0,0.0,0.0,0.0,0.0,0.0,20.73953628540039,-1.1620543003082275,-8.687938690185547,0.0,0.0,0.0,0.0,0.0,0.0,0.0,0.0,0.0,0.007321123033761978,-0.06546491384506226,0.31196340918540955,0.0,0.0,0.0,0.0,0.0,0.0,0.0,0.0,0.0
1606828541173515170,2382919,1606828541151204736,imu_link,-0.07268387079238892,-0.02358054555952549,0.17871777713298798,0.9809287190437317,0.0,0.0,0.0,0.0,0.0,0.0,0.0,0.0,0.0,20.739486694335938,-1.1621451377868652,-8.688067436218262,0.0,0.0,0.0,0.0,0.0,0.0,0.0,0.0,0.0,0.0027635209262371063,-0.05657598748803139,0.3325211703777313,0.0,0.0,0.0,0.0,0.0,0.0,0.0,0.0,0.0
1606828541173531606,2382920,1606828541151333689,imu_link,-0.07268387079238892,-0.02358054555952549,0.17871777713298798,0.9809287190437317,0.0,0.0,0.0,0.0,0.0,0.0,0.0,0.0,0.0,20.739486694335938,-1.1621451377868652,-8.688067436218262,0.0,0.0,0.0,0.0,0.0,0.0,0.0,0.0,0.0,0.0027635209262371063,-0.05657598748803139,0.3325211703777313,0.0,0.0,0.0,0.0,0.0,0.0,0.0,0.0,0.0
1606828541173554619,2382921,1606828541151425430,imu_link,-0.0726814940571785,-0.023580681532621384,0.17872560024261475,0.9809274077415466,0.0,0.0,0.0,0.0,0.0,0.0,0.0,0.0,0.0,20.740392684936523,-1.1621403694152832,-8.687811851501465,0.0,0.0,0.0,0.0,0.0,0.0,0.0,0.0,0.0,0.010152291506528854,-0.036607444286346436,0.33415573835372925,0.0,0.0,0.0,0.0,0.0,0.0,0.0,0.0,0.0
1606828541173618674,2382922,1606828541151509690,imu_link,-0.0726814940571785,-0.023580681532621384,0.17872560024261475,0.9809274077415466,0.0,0.0,0.0,0.0,0.0,0.0,0.0,0.0,0.0,20.740392684936523,-1.1621403694152832,-8.687811851501465,0.0,0.0,0.0,0.0,0.0,0.0,0.0,0.0,0.0,0.010152291506528854,-0.036607444286346436,0.33415573835372925,0.0,0.0,0.0,0.0,0.0,0.0,0.0,0.0,0.0
1606828541173684663,2382923,1606828541163927291,imu_link,-0.07267998158931732,-0.023580722510814667,0.1787237972021103,0.9809278249740601,0.0,0.0,0.0,0.0,0.0,0.0,0.0,0.0,0.0,20.740182876586914,-1.1621921062469482,-8.687639236450195,0.0,0.0,0.0,0.0,0.0,0.0,0.0,0.0,0.0,0.0026013092137873173,-0.0417267307639122,0.3246162235736847,0.0,0.0,0.0,0.0,0.0,0.0,0.0,0.0,0.0
1606828541174449882,2382924,1606828541164038669,imu_link,-0.07267998158931732,-0.023580722510814667,0.1787237972021103,0.9809278249740601,0.0,0.0,0.0,0.0,0.0,0.0,0.0,0.0,0.0,20.740182876586914,-1.1621921062469482,-8.687639236450195,0.0,0.0,0.0,0.0,0.0,0.0,0.0,0.0,0.0,0.0026013092137873173,-0.0417267307639122,0.3246162235736847,0.0,0.0,0.0,0.0,0.0,0.0,0.0,0.0,0.0
1606828541174468397,2382925,1606828541164206689,imu_link,-0.07268117368221283,-0.02358146943151951,0.17873196303844452,0.9809262156486511,0.0,0.0,0.0,0.0,0.0,0.0,0.0,0.0,0.0,20.741140365600586,-1.1621793508529663,-8.687798500061035,0.0,0.0,0.0,0.0,0.0,0.0,0.0,0.0,0.0,-0.007689480669796467,-0.06781530380249023,0.3198895752429962,0.0,0.0,0.0,0.0,0.0,0.0,0.0,0.0,0.0
1606828541174489019,2382926,1606828541164287417,imu_link,-0.07268117368221283,-0.02358146943151951,0.17873196303844452,0.9809262156486511,0.0,0.0,0.0,0.0,0.0,0.0,0.0,0.0,0.0,20.741140365600586,-1.1621793508529663,-8.687798500061035,0.0,0.0,0.0,0.0,0.0,0.0,0.0,0.0,0.0,-0.007689480669796467,-0.06781530380249023,0.3198895752429962,0.0,0.0,0.0,0.0,0.0,0.0,0.0,0.0,0.0
1606828541174513445,2382927,1606828541164344308,imu_link,-0.07268153876066208,-0.023581961169838905,0.1787325143814087,0.9809260964393616,0.0,0.0,0.0,0.0,0.0,0.0,0.0,0.0,0.0,20.741207122802734,-1.162222146987915,-8.687850952148438,0.0,0.0,0.0,0.0,0.0,0.0,0.0,0.0,0.0,0.011494455859065056,-0.05770101398229599,0.34575355052948,0.0,0.0,0.0,0.0,0.0,0.0,0.0,0.0,0.0
1606828541174525714,2382928,1606828541164423302,imu_link,-0.07268153876066208,-0.023581961169838905,0.1787325143814087,0.9809260964393616,0.0,0.0,0.0,0.0,0.0,0.0,0.0,0.0,0.0,20.741207122802734,-1.162222146987915,-8.687850952148438,0.0,0.0,0.0,0.0,0.0,0.0,0.0,0.0,0.0,0.011494455859065056,-0.05770101398229599,0.34575355052948,0.0,0.0,0.0,0.0,0.0,0.0,0.0,0.0,0.0
1606828541174545715,2382929,1606828541164488357,imu_link,-0.07268121838569641,-0.02358054555952549,0.17874424159526825,0.9809240102767944,0.0,0.0,0.0,0.0,0.0,0.0,0.0,0.0,0.0,20.742555618286133,-1.161966323852539,-8.687799453735352,0.0,0.0,0.0,0.0,0.0,0.0,0.0,0.0,0.0,0.018546875566244125,-0.04538975656032562,0.3406640589237213,0.0,0.0,0.0,0.0,0.0,0.0,0.0,0.0,0.0
1606828541174556630,2382930,1606828541164551058,imu_link,-0.07268121838569641,-0.02358054555952549,0.17874424159526825,0.9809240102767944,0.0,0.0,0.0,0.0,0.0,0.0,0.0,0.0,0.0,20.742555618286133,-1.161966323852539,-8.687799453735352,0.0,0.0,0.0,0.0,0.0,0.0,0.0,0.0,0.0,0.018546875566244125,-0.04538975656032562,0.3406640589237213,0.0,0.0,0.0,0.0,0.0,0.0,0.0,0.0,0.0
1606828541174565646,2382931,1606828541164612002,imu_link,-0.07268259674310684,-0.023582130670547485,0.1787453442811966,0.9809237122535706,0.0,0.0,0.0,0.0,0.0,0.0,0.0,0.0,0.0,20.742698669433594,-1.1621063947677612,-8.687989234924316,0.0,0.0,0.0,0.0,0.0,0.0,0.0,0.0,0.0,0.004684316925704479,-0.04667296260595322,0.3327724039554596,0.0,0.0,0.0,0.0,0.0,0.0,0.0,0.0,0.0
1606828541174685740,2382932,1606828541164665395,imu_link,-0.07268259674310684,-0.023582130670547485,0.1787453442811966,0.9809237122535706,0.0,0.0,0.0,0.0,0.0,0.0,0.0,0.0,0.0,20.742698669433594,-1.1621063947677612,-8.687989234924316,0.0,0.0,0.0,0.0,0.0,0.0,0.0,0.0,0.0,0.004684316925704479,-0.04667296260595322,0.3327724039554596,0.0,0.0,0.0,0.0,0.0,0.0,0.0,0.0,0.0
1606828541176257860,2382933,1606828541164724422,imu_link,-0.07268300652503967,-0.02358333021402359,0.1787552684545517,0.9809218049049377,0.0,0.0,0.0,0.0,0.0,0.0,0.0,0.0,0.0,20.743865966796875,-1.1621448993682861,-8.68807315826416,0.0,0.0,0.0,0.0,0.0,0.0,0.0,0.0,0.0,0.00023361993953585625,-0.03776659071445465,0.33867985010147095,0.0,0.0,0.0,0.0,0.0,0.0,0.0,0.0,0.0
1606828541187169830,2382934,1606828541176796209,imu_link,-0.07268300652503967,-0.02358333021402359,0.1787552684545517,0.9809218049049377,0.0,0.0,0.0,0.0,0.0,0.0,0.0,0.0,0.0,20.743865966796875,-1.1621448993682861,-8.68807315826416,0.0,0.0,0.0,0.0,0.0,0.0,0.0,0.0,0.0,0.00023361993953585625,-0.03776659071445465,0.33867985010147095,0.0,0.0,0.0,0.0,0.0,0.0,0.0,0.0,0.0
1606828541187194741,2382935,1606828541176919913,imu_link,-0.07268213480710983,-0.02358364686369896,0.17875656485557556,0.9809216260910034,0.0,0.0,0.0,0.0,0.0,0.0,0.0,0.0,0.0,20.7440185546875,-1.162187099456787,-8.687982559204102,0.0,0.0,0.0,0.0,0.0,0.0,0.0,0.0,0.0,-0.0010051634162664413,-0.038230445235967636,0.32075878977775574,0.0,0.0,0.0,0.0,0.0,0.0,0.0,0.0,0.0
1606828541187204072,2382936,1606828541177056665,imu_link,-0.07268213480710983,-0.02358364686369896,0.17875656485557556,0.9809216260910034,0.0,0.0,0.0,0.0,0.0,0.0,0.0,0.0,0.0,20.7440185546875,-1.162187099456787,-8.687982559204102,0.0,0.0,0.0,0.0,0.0,0.0,0.0,0.0,0.0,-0.0010051634162664413,-0.038230445235967636,0.32075878977775574,0.0,0.0,0.0,0.0,0.0,0.0,0.0,0.0,0.0
1606828541187218851,2382937,1606828541177138462,imu_link,-0.07268303632736206,-0.023586725816130638,0.17875820398330688,0.98092120885849,0.0,0.0,0.0,0.0,0.0,0.0,0.0,0.0,0.0,20.744237899780273,-1.1624999046325684,-8.688150405883789,0.0,0.0,0.0,0.0,0.0,0.0,0.0,0.0,0.0,0.008251305669546127,-0.04938241466879845,0.348373681306839,0.0,0.0,0.0,0.0,0.0,0.0,0.0,0.0,0.0
1606828541187238083,2382938,1606828541177203830,imu_link,-0.07268303632736206,-0.023586725816130638,0.17875820398330688,0.98092120885849,0.0,0.0,0.0,0.0,0.0,0.0,0.0,0.0,0.0,20.744237899780273,-1.1624999046325684,-8.688150405883789,0.0,0.0,0.0,0.0,0.0,0.0,0.0,0.0,0.0,0.008251305669546127,-0.04938241466879845,0.348373681306839,0.0,0.0,0.0,0.0,0.0,0.0,0.0,0.0,0.0
1606828541187750856,2382939,1606828541177306716,imu_link,-0.07268208265304565,-0.023584360256791115,0.1787566989660263,0.9809215664863586,0.0,0.0,0.0,0.0,0.0,0.0,0.0,0.0,0.0,20.744037628173828,-1.1622672080993652,-8.68799114227295,0.0,0.0,0.0,0.0,0.0,0.0,0.0,0.0,0.0,0.01817331090569496,-0.05753017216920853,0.3478773534297943,0.0,0.0,0.0,0.0,0.0,0.0,0.0,0.0,0.0
1606828541187763469,2382940,1606828541177377084,imu_link,-0.07268208265304565,-0.023584360256791115,0.1787566989660263,0.9809215664863586,0.0,0.0,0.0,0.0,0.0,0.0,0.0,0.0,0.0,20.744037628173828,-1.1622672080993652,-8.68799114227295,0.0,0.0,0.0,0.0,0.0,0.0,0.0,0.0,0.0,0.01817331090569496,-0.05753017216920853,0.3478773534297943,0.0,0.0,0.0,0.0,0.0,0.0,0.0,0.0,0.0
1606828541187771661,2382941,1606828541177445953,imu_link,-0.07268117368221283,-0.023584047332406044,0.1787613034248352,0.9809208512306213,0.0,0.0,0.0,0.0,0.0,0.0,0.0,0.0,0.0,20.744571685791016,-1.1622103452682495,-8.687887191772461,0.0,0.0,0.0,0.0,0.0,0.0,0.0,0.0,0.0,0.01826280727982521,-0.06324037909507751,0.3173310458660126,0.0,0.0,0.0,0.0,0.0,0.0,0.0,0.0,0.0
1606828541187781329,2382942,1606828541177521167,imu_link,-0.07268117368221283,-0.023584047332406044,0.1787613034248352,0.9809208512306213,0.0,0.0,0.0,0.0,0.0,0.0,0.0,0.0,0.0,20.744571685791016,-1.1622103452682495,-8.687887191772461,0.0,0.0,0.0,0.0,0.0,0.0,0.0,0.0,0.0,0.01826280727982521,-0.06324037909507751,0.3173310458660126,0.0,0.0,0.0,0.0,0.0,0.0,0.0,0.0,0.0
1606828541194839632,2382943,1606828541177585895,imu_link,-0.07268199324607849,-0.023585673421621323,0.1787622720003128,0.9809205532073975,0.0,0.0,0.0,0.0,0.0,0.0,0.0,0.0,0.0,20.744701385498047,-1.162367343902588,-8.688015937805176,0.0,0.0,0.0,0.0,0.0,0.0,0.0,0.0,0.0,0.010357622057199478,-0.05048564821481705,0.30326011776924133,0.0,0.0,0.0,0.0,0.0,0.0,0.0,0.0,0.0
1606828541199819129,2382944,1606828541190660979,imu_link,-0.07268199324607849,-0.023585673421621323,0.1787622720003128,0.9809205532073975,0.0,0.0,0.0,0.0,0.0,0.0,0.0,0.0,0.0,20.744701385498047,-1.162367343902588,-8.688015937805176,0.0,0.0,0.0,0.0,0.0,0.0,0.0,0.0,0.0,0.010357622057199478,-0.05048564821481705,0.30326011776924133,0.0,0.0,0.0,0.0,0.0,0.0,0.0,0.0,0.0
1606828541200592357,2382945,1606828541190783239,imu_link,-0.07268276810646057,-0.02358429692685604,0.17875663936138153,0.9809215664863586,0.0,0.0,0.0,0.0,0.0,0.0,0.0,0.0,0.0,20.74403190612793,-1.1622463464736938,-8.688067436218262,0.0,0.0,0.0,0.0,0.0,0.0,0.0,0.0,0.0,-0.0037559992633759975,-0.040590621531009674,0.29112711548805237,0.0,0.0,0.0,0.0,0.0,0.0,0.0,0.0,0.0
1606828541200606788,2382946,1606828541190944344,imu_link,-0.07268276810646057,-0.02358429692685604,0.17875663936138153,0.9809215664863586,0.0,0.0,0.0,0.0,0.0,0.0,0.0,0.0,0.0,20.74403190612793,-1.1622463464736938,-8.688067436218262,0.0,0.0,0.0,0.0,0.0,0.0,0.0,0.0,0.0,-0.0037559992633759975,-0.040590621531009674,0.29112711548805237,0.0,0.0,0.0,0.0,0.0,0.0,0.0,0.0,0.0
1606828541200613518,2382947,1606828541191017273,imu_link,-0.07268479466438293,-0.023582903668284416,0.1787574142217636,0.9809213280677795,0.0,0.0,0.0,0.0,0.0,0.0,0.0,0.0,0.0,20.744112014770508,-1.1620410680770874,-8.688268661499023,0.0,0.0,0.0,0.0,0.0,0.0,0.0,0.0,0.0,-0.008739039301872253,-0.05901798978447914,0.289998859167099,0.0,0.0,0.0,0.0,0.0,0.0,0.0,0.0,0.0
1606828541200619596,2382948,1606828541191086183,imu_link,-0.07268479466438293,-0.023582903668284416,0.1787574142217636,0.9809213280677795,0.0,0.0,0.0,0.0,0.0,0.0,0.0,0.0,0.0,20.744112014770508,-1.1620410680770874,-8.688268661499023,0.0,0.0,0.0,0.0,0.0,0.0,0.0,0.0,0.0,-0.008739039301872253,-0.05901798978447914,0.289998859167099,0.0,0.0,0.0,0.0,0.0,0.0,0.0,0.0,0.0
1606828541202120856,2382949,1606828541191170445,imu_link,-0.07268137484788895,-0.023584900423884392,0.17875054478645325,0.9809228181838989,0.0,0.0,0.0,0.0,0.0,0.0,0.0,0.0,0.0,20.743330001831055,-1.1623969078063965,-8.687914848327637,0.0,0.0,0.0,0.0,0.0,0.0,0.0,0.0,0.0,0.004602571949362755,-0.06286121904850006,0.31322190165519714,0.0,0.0,0.0,0.0,0.0,0.0,0.0,0.0,0.0
1606828541202145647,2382950,1606828541191269183,imu_link,-0.07268137484788895,-0.023584900423884392,0.17875054478645325,0.9809228181838989,0.0,0.0,0.0,0.0,0.0,0.0,0.0,0.0,0.0,20.743330001831055,-1.1623969078063965,-8.687914848327637,0.0,0.0,0.0,0.0,0.0,0.0,0.0,0.0,0.0,0.004602571949362755,-0.06286121904850006,0.31322190165519714,0.0,0.0,0.0,0.0,0.0,0.0,0.0,0.0,0.0
1606828541202154974,2382951,1606828541191409035,imu_link,-0.07268106937408447,-0.023585624992847443,0.1787518858909607,0.9809225797653198,0.0,0.0,0.0,0.0,0.0,0.0,0.0,0.0,0.0,20.743492126464844,-1.1624727249145508,-8.687897682189941,0.0,0.0,0.0,0.0,0.0,0.0,0.0,0.0,0.0,0.013474805280566216,-0.05744180828332901,0.34619542956352234,0.0,0.0,0.0,0.0,0.0,0.0,0.0,0.0,0.0
1606828541202165572,2382952,1606828541191503363,imu_link,-0.07268106937408447,-0.023585624992847443,0.1787518858909607,0.9809225797653198,0.0,0.0,0.0,0.0,0.0,0.0,0.0,0.0,0.0,20.743492126464844,-1.1624727249145508,-8.687897682189941,0.0,0.0,0.0,0.0,0.0,0.0,0.0,0.0,0.0,0.013474805280566216,-0.05744180828332901,0.34619542956352234,0.0,0.0,0.0,0.0,0.0,0.0,0.0,0.0,0.0
1606828541202173572,2382953,1606828541191605734,imu_link,-0.0726831778883934,-0.02358270063996315,0.17874102294445038,0.9809243679046631,0.0,0.0,0.0,0.0,0.0,0.0,0.0,0.0,0.0,20.742206573486328,-1.162196159362793,-8.68806266784668,0.0,0.0,0.0,0.0,0.0,0.0,0.0,0.0,0.0,0.01214420236647129,-0.05532320588827133,0.3334839940071106,0.0,0.0,0.0,0.0,0.0,0.0,0.0,0.0,0.0
1606828541202183566,2382954,1606828541191675334,imu_link,-0.0726831778883934,-0.02358270063996315,0.17874102294445038,0.9809243679046631,0.0,0.0,0.0,0.0,0.0,0.0,0.0,0.0,0.0,20.742206573486328,-1.162196159362793,-8.68806266784668,0.0,0.0,0.0,0.0,0.0,0.0,0.0,0.0,0.0,0.01214420236647129,-0.05532320588827133,0.3334839940071106,0.0,0.0,0.0,0.0,0.0,0.0,0.0,0.0,0.0
1606828541213313998,2382955,1606828541204052310,imu_link,-0.07268375903367996,-0.023582329973578453,0.17874367535114288,0.9809239506721497,0.0,0.0,0.0,0.0,0.0,0.0,0.0,0.0,0.0,20.742507934570312,-1.1621193885803223,-8.68812370300293,0.0,0.0,0.0,0.0,0.0,0.0,0.0,0.0,0.0,0.006628361996263266,-0.055662840604782104,0.3342912495136261,0.0,0.0,0.0,0.0,0.0,0.0,0.0,0.0,0.0
1606828541214338239,2382956,1606828541204174423,imu_link,-0.07268375903367996,-0.023582329973578453,0.17874367535114288,0.9809239506721497,0.0,0.0,0.0,0.0,0.0,0.0,0.0,0.0,0.0,20.742507934570312,-1.1621193885803223,-8.68812370300293,0.0,0.0,0.0,0.0,0.0,0.0,0.0,0.0,0.0,0.006628361996263266,-0.055662840604782104,0.3342912495136261,0.0,0.0,0.0,0.0,0.0,0.0,0.0,0.0,0.0
1606828541214394134,2382957,1606828541204376146,imu_link,-0.07268334925174713,-0.023580359295010567,0.17873163521289825,0.9809262156486511,0.0,0.0,0.0,0.0,0.0,0.0,0.0,0.0,0.0,20.741092681884766,-1.1620125770568848,-8.688020706176758,0.0,0.0,0.0,0.0,0.0,0.0,0.0,0.0,0.0,0.0015739351511001587,-0.0675482526421547,0.34026071429252625,0.0,0.0,0.0,0.0,0.0,0.0,0.0,0.0,0.0
1606828541214406334,2382958,1606828541204492085,imu_link,-0.07268334925174713,-0.023580359295010567,0.17873163521289825,0.9809262156486511,0.0,0.0,0.0,0.0,0.0,0.0,0.0,0.0,0.0,20.741092681884766,-1.1620125770568848,-8.688020706176758,0.0,0.0,0.0,0.0,0.0,0.0,0.0,0.0,0.0,0.0015739351511001587,-0.0675482526421547,0.34026071429252625,0.0,0.0,0.0,0.0,0.0,0.0,0.0,0.0,0.0
1606828541214416953,2382959,1606828541204618745,imu_link,-0.07268504053354263,-0.023581482470035553,0.17873218655586243,0.9809258580207825,0.0,0.0,0.0,0.0,0.0,0.0,0.0,0.0,0.0,20.741168975830078,-1.1620986461639404,-8.688237190246582,0.0,0.0,0.0,0.0,0.0,0.0,0.0,0.0,0.0,-0.008101794868707657,-0.06723970919847488,0.3341366946697235,0.0,0.0,0.0,0.0,0.0,0.0,0.0,0.0,0.0
1606828541214430640,2382960,1606828541204738546,imu_link,-0.07268504053354263,-0.023581482470035553,0.17873218655586243,0.9809258580207825,0.0,0.0,0.0,0.0,0.0,0.0,0.0,0.0,0.0,20.741168975830078,-1.1620986461639404,-8.688237190246582,0.0,0.0,0.0,0.0,0.0,0.0,0.0,0.0,0.0,-0.008101794868707657,-0.06723970919847488,0.3341366946697235,0.0,0.0,0.0,0.0,0.0,0.0,0.0,0.0,0.0
1606828541214501222,2382961,1606828541204920393,imu_link,-0.07268104702234268,-0.0235819723457098,0.17872895300388336,0.9809267520904541,0.0,0.0,0.0,0.0,0.0,0.0,0.0,0.0,0.0,20.740795135498047,-1.1622650623321533,-8.687792778015137,0.0,0.0,0.0,0.0,0.0,0.0,0.0,0.0,0.0,-0.02650097757577896,-0.036532364785671234,0.32762351632118225,0.0,0.0,0.0,0.0,0.0,0.0,0.0,0.0,0.0
1606828541214515385,2382962,1606828541205053108,imu_link,-0.07268104702234268,-0.0235819723457098,0.17872895300388336,0.9809267520904541,0.0,0.0,0.0,0.0,0.0,0.0,0.0,0.0,0.0,20.740795135498047,-1.1622650623321533,-8.687792778015137,0.0,0.0,0.0,0.0,0.0,0.0,0.0,0.0,0.0,-0.02650097757577896,-0.036532364785671234,0.32762351632118225,0.0,0.0,0.0,0.0,0.0,0.0,0.0,0.0,0.0
1606828541215977456,2382963,1606828541205179494,imu_link,-0.0726807564496994,-0.023580748587846756,0.17872826755046844,0.9809269309043884,0.0,0.0,0.0,0.0,0.0,0.0,0.0,0.0,0.0,20.740705490112305,-1.1621394157409668,-8.687732696533203,0.0,0.0,0.0,0.0,0.0,0.0,0.0,0.0,0.0,-0.023730207234621048,-0.028818553313612938,0.321803480386734,0.0,0.0,0.0,0.0,0.0,0.0,0.0,0.0,0.0
1606828541215996130,2382964,1606828541205323212,imu_link,-0.0726807564496994,-0.023580748587846756,0.17872826755046844,0.9809269309043884,0.0,0.0,0.0,0.0,0.0,0.0,0.0,0.0,0.0,20.740705490112305,-1.1621394157409668,-8.687732696533203,0.0,0.0,0.0,0.0,0.0,0.0,0.0,0.0,0.0,-0.023730207234621048,-0.028818553313612938,0.321803480386734,0.0,0.0,0.0,0.0,0.0,0.0,0.0,0.0,0.0
1606828541216011245,2382965,1606828541205430647,imu_link,-0.07268088310956955,-0.023585636168718338,0.17872312664985657,0.9809277653694153,0.0,0.0,0.0,0.0,0.0,0.0,0.0,0.0,0.0,20.740150451660156,-1.1627315282821655,-8.687843322753906,0.0,0.0,0.0,0.0,0.0,0.0,0.0,0.0,0.0,-0.0005179331637918949,-0.05484480783343315,0.3162078559398651,0.0,0.0,0.0,0.0,0.0,0.0,0.0,0.0,0.0
1606828541227184383,2382966,1606828541217942437,imu_link,-0.07268088310956955,-0.023585636168718338,0.17872312664985657,0.9809277653694153,0.0,0.0,0.0,0.0,0.0,0.0,0.0,0.0,0.0,20.740150451660156,-1.1627315282821655,-8.687843322753906,0.0,0.0,0.0,0.0,0.0,0.0,0.0,0.0,0.0,-0.0005179331637918949,-0.05484480783343315,0.3162078559398651,0.0,0.0,0.0,0.0,0.0,0.0,0.0,0.0,0.0
1606828541230010340,2382967,1606828541218046153,imu_link,-0.07268013805150986,-0.023587116971611977,0.1787230521440506,0.9809277653694153,0.0,0.0,0.0,0.0,0.0,0.0,0.0,0.0,0.0,20.740158081054688,-1.1629139184951782,-8.687789916992188,0.0,0.0,0.0,0.0,0.0,0.0,0.0,0.0,0.0,0.002422252669930458,-0.06158561259508133,0.316613107919693,0.0,0.0,0.0,0.0,0.0,0.0,0.0,0.0,0.0
1606828541230046351,2382968,1606828541218176137,imu_link,-0.07268013805150986,-0.023587116971611977,0.1787230521440506,0.9809277653694153,0.0,0.0,0.0,0.0,0.0,0.0,0.0,0.0,0.0,20.740158081054688,-1.1629139184951782,-8.687789916992188,0.0,0.0,0.0,0.0,0.0,0.0,0.0,0.0,0.0,0.002422252669930458,-0.06158561259508133,0.316613107919693,0.0,0.0,0.0,0.0,0.0,0.0,0.0,0.0,0.0
1606828541230090331,2382969,1606828541218242872,imu_link,-0.07267718017101288,-0.023588715121150017,0.1787286251783371,0.9809269905090332,0.0,0.0,0.0,0.0,0.0,0.0,0.0,0.0,0.0,20.740814208984375,-1.163105845451355,-8.687494277954102,0.0,0.0,0.0,0.0,0.0,0.0,0.0,0.0,0.0,-0.004186663776636124,-0.04819929599761963,0.31417325139045715,0.0,0.0,0.0,0.0,0.0,0.0,0.0,0.0,0.0
1606828541230112616,2382970,1606828541218304903,imu_link,-0.07267718017101288,-0.023588715121150017,0.1787286251783371,0.9809269905090332,0.0,0.0,0.0,0.0,0.0,0.0,0.0,0.0,0.0,20.740814208984375,-1.163105845451355,-8.687494277954102,0.0,0.0,0.0,0.0,0.0,0.0,0.0,0.0,0.0,-0.004186663776636124,-0.04819929599761963,0.31417325139045715,0.0,0.0,0.0,0.0,0.0,0.0,0.0,0.0,0.0
1606828541230137161,2382971,1606828541218368494,imu_link,-0.07267625629901886,-0.0235887560993433,0.1787288933992386,0.9809269905090332,0.0,0.0,0.0,0.0,0.0,0.0,0.0,0.0,0.0,20.740846633911133,-1.1631269454956055,-8.687392234802246,0.0,0.0,0.0,0.0,0.0,0.0,0.0,0.0,0.0,-0.0013325209729373455,-0.036298833787441254,0.32019802927970886,0.0,0.0,0.0,0.0,0.0,0.0,0.0,0.0,0.0
1606828541230148852,2382972,1606828541218451733,imu_link,-0.07267625629901886,-0.0235887560993433,0.1787288933992386,0.9809269905090332,0.0,0.0,0.0,0.0,0.0,0.0,0.0,0.0,0.0,20.740846633911133,-1.1631269454956055,-8.687392234802246,0.0,0.0,0.0,0.0,0.0,0.0,0.0,0.0,0.0,-0.0013325209729373455,-0.036298833787441254,0.32019802927970886,0.0,0.0,0.0,0.0,0.0,0.0,0.0,0.0,0.0
1606828541230162287,2382973,1606828541218508785,imu_link,-0.07267817109823227,-0.02358984388411045,0.17873509228229523,0.9809257388114929,0.0,0.0,0.0,0.0,0.0,0.0,0.0,0.0,0.0,20.741575241088867,-1.16315495967865,-8.687638282775879,0.0,0.0,0.0,0.0,0.0,0.0,0.0,0.0,0.0,0.012092706747353077,-0.04845113307237625,0.34172776341438293,0.0,0.0,0.0,0.0,0.0,0.0,0.0,0.0,0.0
1606828541230170668,2382974,1606828541218584107,imu_link,-0.07267817109823227,-0.02358984388411045,0.17873509228229523,0.9809257388114929,0.0,0.0,0.0,0.0,0.0,0.0,0.0,0.0,0.0,20.741575241088867,-1.16315495967865,-8.687638282775879,0.0,0.0,0.0,0.0,0.0,0.0,0.0,0.0,0.0,0.012092706747353077,-0.04845113307237625,0.34172776341438293,0.0,0.0,0.0,0.0,0.0,0.0,0.0,0.0,0.0
1606828541240710381,2382975,1606828541218653245,imu_link,-0.07267611473798752,-0.0235906932502985,0.17873653769493103,0.9809255599975586,0.0,0.0,0.0,0.0,0.0,0.0,0.0,0.0,0.0,20.74175262451172,-1.1632801294326782,-8.687426567077637,0.0,0.0,0.0,0.0,0.0,0.0,0.0,0.0,0.0,0.011751058511435986,-0.06291419267654419,0.33414527773857117,0.0,0.0,0.0,0.0,0.0,0.0,0.0,0.0,0.0
1606828541240730940,2382976,1606828541218710034,imu_link,-0.07267611473798752,-0.0235906932502985,0.17873653769493103,0.9809255599975586,0.0,0.0,0.0,0.0,0.0,0.0,0.0,0.0,0.0,20.74175262451172,-1.1632801294326782,-8.687426567077637,0.0,0.0,0.0,0.0,0.0,0.0,0.0,0.0,0.0,0.011751058511435986,-0.06291419267654419,0.33414527773857117,0.0,0.0,0.0,0.0,0.0,0.0,0.0,0.0,0.0
1606828541240749240,2382977,1606828541230827776,imu_link,-0.07267354428768158,-0.023588264361023903,0.17874711751937866,0.9809238910675049,0.0,0.0,0.0,0.0,0.0,0.0,0.0,0.0,0.0,20.74295425415039,-1.1629669666290283,-8.68709659576416,0.0,0.0,0.0,0.0,0.0,0.0,0.0,0.0,0.0,-0.004609633702784777,-0.05445912107825279,0.3261469900608063,0.0,0.0,0.0,0.0,0.0,0.0,0.0,0.0,0.0
1606828541240760189,2382978,1606828541230996293,imu_link,-0.07267354428768158,-0.023588264361023903,0.17874711751937866,0.9809238910675049,0.0,0.0,0.0,0.0,0.0,0.0,0.0,0.0,0.0,20.74295425415039,-1.1629669666290283,-8.68709659576416,0.0,0.0,0.0,0.0,0.0,0.0,0.0,0.0,0.0,-0.004609633702784777,-0.05445912107825279,0.3261469900608063,0.0,0.0,0.0,0.0,0.0,0.0,0.0,0.0,0.0
1606828541240784492,2382979,1606828541231113288,imu_link,-0.07267427444458008,-0.02358863689005375,0.17874759435653687,0.9809237718582153,0.0,0.0,0.0,0.0,0.0,0.0,0.0,0.0,0.0,20.743013381958008,-1.1629897356033325,-8.687186241149902,0.0,0.0,0.0,0.0,0.0,0.0,0.0,0.0,0.0,0.0035410753916949034,-0.04248395189642906,0.3053213655948639,0.0,0.0,0.0,0.0,0.0,0.0,0.0,0.0,0.0
1606828541240802078,2382980,1606828541231262472,imu_link,-0.07267427444458008,-0.02358863689005375,0.17874759435653687,0.9809237718582153,0.0,0.0,0.0,0.0,0.0,0.0,0.0,0.0,0.0,20.743013381958008,-1.1629897356033325,-8.687186241149902,0.0,0.0,0.0,0.0,0.0,0.0,0.0,0.0,0.0,0.0035410753916949034,-0.04248395189642906,0.3053213655948639,0.0,0.0,0.0,0.0,0.0,0.0,0.0,0.0,0.0
1606828541241627513,2382981,1606828541231408601,imu_link,-0.07267454266548157,-0.02358757145702839,0.1787566989660263,0.9809221029281616,0.0,0.0,0.0,0.0,0.0,0.0,0.0,0.0,0.0,20.744062423706055,-1.1627839803695679,-8.68720531463623,0.0,0.0,0.0,0.0,0.0,0.0,0.0,0.0,0.0,-0.0005720932967960835,-0.04350210726261139,0.29466965794563293,0.0,0.0,0.0,0.0,0.0,0.0,0.0,0.0,0.0
1606828541241651052,2382982,1606828541231525622,imu_link,-0.07267454266548157,-0.02358757145702839,0.1787566989660263,0.9809221029281616,0.0,0.0,0.0,0.0,0.0,0.0,0.0,0.0,0.0,20.744062423706055,-1.1627839803695679,-8.68720531463623,0.0,0.0,0.0,0.0,0.0,0.0,0.0,0.0,0.0,-0.0005720932967960835,-0.04350210726261139,0.29466965794563293,0.0,0.0,0.0,0.0,0.0,0.0,0.0,0.0,0.0
1606828541241659625,2382983,1606828541231598380,imu_link,-0.07267491519451141,-0.02358642965555191,0.17875710129737854,0.9809220433235168,0.0,0.0,0.0,0.0,0.0,0.0,0.0,0.0,0.0,20.744098663330078,-1.1626445055007935,-8.687225341796875,0.0,0.0,0.0,0.0,0.0,0.0,0.0,0.0,0.0,-0.027072817087173462,-0.04853994771838188,0.31952571868896484,0.0,0.0,0.0,0.0,0.0,0.0,0.0,0.0,0.0
1606828541241669695,2382984,1606828541231666181,imu_link,-0.07267491519451141,-0.02358642965555191,0.17875710129737854,0.9809220433235168,0.0,0.0,0.0,0.0,0.0,0.0,0.0,0.0,0.0,20.744098663330078,-1.1626445055007935,-8.687225341796875,0.0,0.0,0.0,0.0,0.0,0.0,0.0,0.0,0.0,-0.027072817087173462,-0.04853994771838188,0.31952571868896484,0.0,0.0,0.0,0.0,0.0,0.0,0.0,0.0,0.0
1606828541242627670,2382985,1606828541231734076,imu_link,-0.07267514616250992,-0.023594433441758156,0.17876464128494263,0.9809204339981079,0.0,0.0,0.0,0.0,0.0,0.0,0.0,0.0,0.0,20.74504852294922,-1.1634724140167236,-8.687427520751953,0.0,0.0,0.0,0.0,0.0,0.0,0.0,0.0,0.0,-0.022067692130804062,-0.05597218871116638,0.32901978492736816,0.0,0.0,0.0,0.0,0.0,0.0,0.0,0.0,0.0
1606828541242645281,2382986,1606828541231806123,imu_link,-0.07267514616250992,-0.023594433441758156,0.17876464128494263,0.9809204339981079,0.0,0.0,0.0,0.0,0.0,0.0,0.0,0.0,0.0,20.74504852294922,-1.1634724140167236,-8.687427520751953,0.0,0.0,0.0,0.0,0.0,0.0,0.0,0.0,0.0,-0.022067692130804062,-0.05597218871116638,0.32901978492736816,0.0,0.0,0.0,0.0,0.0,0.0,0.0,0.0,0.0
1606828541242654089,2382987,1606828541231880499,imu_link,-0.0726744756102562,-0.023595048114657402,0.17876531183719635,0.9809203743934631,0.0,0.0,0.0,0.0,0.0,0.0,0.0,0.0,0.0,20.74513053894043,-1.163549542427063,-8.687363624572754,0.0,0.0,0.0,0.0,0.0,0.0,0.0,0.0,0.0,-0.0017839334905147552,-0.05328287184238434,0.3096466660499573,0.0,0.0,0.0,0.0,0.0,0.0,0.0,0.0,0.0
1606828541253439570,2382988,1606828541244186976,imu_link,-0.0726744756102562,-0.023595048114657402,0.17876531183719635,0.9809203743934631,0.0,0.0,0.0,0.0,0.0,0.0,0.0,0.0,0.0,20.74513053894043,-1.163549542427063,-8.687363624572754,0.0,0.0,0.0,0.0,0.0,0.0,0.0,0.0,0.0,-0.0017839334905147552,-0.05328287184238434,0.3096466660499573,0.0,0.0,0.0,0.0,0.0,0.0,0.0,0.0,0.0
1606828541254139560,2382989,1606828541244301725,imu_link,-0.07267221063375473,-0.023597193881869316,0.17877022922039032,0.980919599533081,0.0,0.0,0.0,0.0,0.0,0.0,0.0,0.0,0.0,20.745716094970703,-1.1637941598892212,-8.687158584594727,0.0,0.0,0.0,0.0,0.0,0.0,0.0,0.0,0.0,0.0024240873754024506,-0.03491995483636856,0.31617945432662964,0.0,0.0,0.0,0.0,0.0,0.0,0.0,0.0,0.0
1606828541254164199,2382990,1606828541244441500,imu_link,-0.07267221063375473,-0.023597193881869316,0.17877022922039032,0.980919599533081,0.0,0.0,0.0,0.0,0.0,0.0,0.0,0.0,0.0,20.745716094970703,-1.1637941598892212,-8.687158584594727,0.0,0.0,0.0,0.0,0.0,0.0,0.0,0.0,0.0,0.0024240873754024506,-0.03491995483636856,0.31617945432662964,0.0,0.0,0.0,0.0,0.0,0.0,0.0,0.0,0.0
1606828541254175472,2382991,1606828541244507135,imu_link,-0.07267145812511444,-0.023598309606313705,0.17877240478992462,0.9809192419052124,0.0,0.0,0.0,0.0,0.0,0.0,0.0,0.0,0.0,20.745981216430664,-1.1639158725738525,-8.68709945678711,0.0,0.0,0.0,0.0,0.0,0.0,0.0,0.0,0.0,-0.00516099389642477,-0.03494025021791458,0.33979475498199463,0.0,0.0,0.0,0.0,0.0,0.0,0.0,0.0,0.0
1606828541254181016,2382992,1606828541244569094,imu_link,-0.07267145812511444,-0.023598309606313705,0.17877240478992462,0.9809192419052124,0.0,0.0,0.0,0.0,0.0,0.0,0.0,0.0,0.0,20.745981216430664,-1.1639158725738525,-8.68709945678711,0.0,0.0,0.0,0.0,0.0,0.0,0.0,0.0,0.0,-0.00516099389642477,-0.03494025021791458,0.33979475498199463,0.0,0.0,0.0,0.0,0.0,0.0,0.0,0.0,0.0
1606828541255998664,2382993,1606828541244662342,imu_link,-0.0726713091135025,-0.023600729182362556,0.1787753850221634,0.9809186458587646,0.0,0.0,0.0,0.0,0.0,0.0,0.0,0.0,0.0,20.746349334716797,-1.164164662361145,-8.68713665008545,0.0,0.0,0.0,0.0,0.0,0.0,0.0,0.0,0.0,-0.01608763262629509,-0.050112128257751465,0.3174549341201782,0.0,0.0,0.0,0.0,0.0,0.0,0.0,0.0,0.0
1606828541256021853,2382994,1606828541244728963,imu_link,-0.0726713091135025,-0.023600729182362556,0.1787753850221634,0.9809186458587646,0.0,0.0,0.0,0.0,0.0,0.0,0.0,0.0,0.0,20.746349334716797,-1.164164662361145,-8.68713665008545,0.0,0.0,0.0,0.0,0.0,0.0,0.0,0.0,0.0,-0.01608763262629509,-0.050112128257751465,0.3174549341201782,0.0,0.0,0.0,0.0,0.0,0.0,0.0,0.0,0.0
1606828541256035944,2382995,1606828541244797734,imu_link,-0.07267303019762039,-0.023602182045578957,0.17877712845802307,0.9809181094169617,0.0,0.0,0.0,0.0,0.0,0.0,0.0,0.0,0.0,20.746566772460938,-1.1642765998840332,-8.687363624572754,0.0,0.0,0.0,0.0,0.0,0.0,0.0,0.0,0.0,-0.005258567165583372,-0.054294049739837646,0.29725006222724915,0.0,0.0,0.0,0.0,0.0,0.0,0.0,0.0,0.0
1606828541256052879,2382996,1606828541244886787,imu_link,-0.07267303019762039,-0.023602182045578957,0.17877712845802307,0.9809181094169617,0.0,0.0,0.0,0.0,0.0,0.0,0.0,0.0,0.0,20.746566772460938,-1.1642765998840332,-8.687363624572754,0.0,0.0,0.0,0.0,0.0,0.0,0.0,0.0,0.0,-0.005258567165583372,-0.054294049739837646,0.29725006222724915,0.0,0.0,0.0,0.0,0.0,0.0,0.0,0.0,0.0
1606828541256060614,2382997,1606828541244971006,imu_link,-0.07267133891582489,-0.023606758564710617,0.17877954244613647,0.9809176921844482,0.0,0.0,0.0,0.0,0.0,0.0,0.0,0.0,0.0,20.74688720703125,-1.1648046970367432,-8.687271118164062,0.0,0.0,0.0,0.0,0.0,0.0,0.0,0.0,0.0,0.020396757870912552,-0.04826264828443527,0.30244752764701843,0.0,0.0,0.0,0.0,0.0,0.0,0.0,0.0,0.0
1606828541292533349,2382998,1606828541257969995,imu_link,-0.07267133891582489,-0.023606758564710617,0.17877954244613647,0.9809176921844482,0.0,0.0,0.0,0.0,0.0,0.0,0.0,0.0,0.0,20.74688720703125,-1.1648046970367432,-8.687271118164062,0.0,0.0,0.0,0.0,0.0,0.0,0.0,0.0,0.0,0.020396757870912552,-0.04826264828443527,0.30244752764701843,0.0,0.0,0.0,0.0,0.0,0.0,0.0,0.0,0.0
1606828541292554167,2382999,1606828541258145965,imu_link,-0.07267192751169205,-0.023606784641742706,0.1787809580564499,0.9809173941612244,0.0,0.0,0.0,0.0,0.0,0.0,0.0,0.0,0.0,20.747055053710938,-1.1647828817367554,-8.687339782714844,0.0,0.0,0.0,0.0,0.0,0.0,0.0,0.0,0.0,0.03586044907569885,-0.05522445961833,0.3021406829357147,0.0,0.0,0.0,0.0,0.0,0.0,0.0,0.0,0.0
1606828541292563127,2383000,1606828541258276017,imu_link,-0.07267192751169205,-0.023606784641742706,0.1787809580564499,0.9809173941612244,0.0,0.0,0.0,0.0,0.0,0.0,0.0,0.0,0.0,20.747055053710938,-1.1647828817367554,-8.687339782714844,0.0,0.0,0.0,0.0,0.0,0.0,0.0,0.0,0.0,0.03586044907569885,-0.05522445961833,0.3021406829357147,0.0,0.0,0.0,0.0,0.0,0.0,0.0,0.0,0.0
1606828541292571918,2383001,1606828541258384231,imu_link,-0.07267282903194427,-0.023599157109856606,0.1787693351507187,0.9809196591377258,0.0,0.0,0.0,0.0,0.0,0.0,0.0,0.0,0.0,20.74563217163086,-1.1640098094940186,-8.68726921081543,0.0,0.0,0.0,0.0,0.0,0.0,0.0,0.0,0.0,0.0181280467659235,-0.06708618253469467,0.30118241906166077,0.0,0.0,0.0,0.0,0.0,0.0,0.0,0.0,0.0
1606828541292593304,2383002,1606828541258490463,imu_link,-0.07267282903194427,-0.023599157109856606,0.1787693351507187,0.9809196591377258,0.0,0.0,0.0,0.0,0.0,0.0,0.0,0.0,0.0,20.74563217163086,-1.1640098094940186,-8.68726921081543,0.0,0.0,0.0,0.0,0.0,0.0,0.0,0.0,0.0,0.0181280467659235,-0.06708618253469467,0.30118241906166077,0.0,0.0,0.0,0.0,0.0,0.0,0.0,0.0,0.0
1606828541293568136,2383003,1606828541258571231,imu_link,-0.07267390191555023,-0.023598752915859222,0.17876964807510376,0.9809195399284363,0.0,0.0,0.0,0.0,0.0,0.0,0.0,0.0,0.0,20.745668411254883,-1.163939356803894,-8.687381744384766,0.0,0.0,0.0,0.0,0.0,0.0,0.0,0.0,0.0,0.000511782243847847,-0.061249930411577225,0.314811646938324,0.0,0.0,0.0,0.0,0.0,0.0,0.0,0.0,0.0
1606828541293591878,2383004,1606828541258695781,imu_link,-0.07267390191555023,-0.023598752915859222,0.17876964807510376,0.9809195399284363,0.0,0.0,0.0,0.0,0.0,0.0,0.0,0.0,0.0,20.745668411254883,-1.163939356803894,-8.687381744384766,0.0,0.0,0.0,0.0,0.0,0.0,0.0,0.0,0.0,0.000511782243847847,-0.061249930411577225,0.314811646938324,0.0,0.0,0.0,0.0,0.0,0.0,0.0,0.0,0.0
1606828541293613224,2383005,1606828541258816801,imu_link,-0.07267095148563385,-0.0235982034355402,0.17875854671001434,0.9809216856956482,0.0,0.0,0.0,0.0,0.0,0.0,0.0,0.0,0.0,20.74437141418457,-1.1640362739562988,-8.687024116516113,0.0,0.0,0.0,0.0,0.0,0.0,0.0,0.0,0.0,-0.0022464292123913765,-0.06818275153636932,0.31927356123924255,0.0,0.0,0.0,0.0,0.0,0.0,0.0,0.0,0.0
1606828541293623117,2383006,1606828541258922601,imu_link,-0.07267095148563385,-0.0235982034355402,0.17875854671001434,0.9809216856956482,0.0,0.0,0.0,0.0,0.0,0.0,0.0,0.0,0.0,20.74437141418457,-1.1640362739562988,-8.687024116516113,0.0,0.0,0.0,0.0,0.0,0.0,0.0,0.0,0.0,-0.0022464292123913765,-0.06818275153636932,0.31927356123924255,0.0,0.0,0.0,0.0,0.0,0.0,0.0,0.0,0.0
1606828541293633721,2383007,1606828541259033897,imu_link,-0.0726708248257637,-0.02359726093709469,0.17875845730304718,0.9809218645095825,0.0,0.0,0.0,0.0,0.0,0.0,0.0,0.0,0.0,20.744348526000977,-1.1639342308044434,-8.686989784240723,0.0,0.0,0.0,0.0,0.0,0.0,0.0,0.0,0.0,-0.007230889517813921,-0.06034136191010475,0.3226400911808014,0.0,0.0,0.0,0.0,0.0,0.0,0.0,0.0,0.0
1606828541293643061,2383008,1606828541259152571,imu_link,-0.0726708248257637,-0.02359726093709469,0.17875845730304718,0.9809218645095825,0.0,0.0,0.0,0.0,0.0,0.0,0.0,0.0,0.0,20.744348526000977,-1.1639342308044434,-8.686989784240723,0.0,0.0,0.0,0.0,0.0,0.0,0.0,0.0,0.0,-0.007230889517813921,-0.06034136191010475,0.3226400911808014,0.0,0.0,0.0,0.0,0.0,0.0,0.0,0.0,0.0
1606828541293649166,2383009,1606828541271647635,imu_link,-0.07267051190137863,-0.023597002029418945,0.17875222861766815,0.9809229373931885,0.0,0.0,0.0,0.0,0.0,0.0,0.0,0.0,0.0,20.74362564086914,-1.1639662981033325,-8.686943054199219,0.0,0.0,0.0,0.0,0.0,0.0,0.0,0.0,0.0,0.0035775047726929188,-0.04566582292318344,0.3131715655326843,0.0,0.0,0.0,0.0,0.0,0.0,0.0,0.0,0.0
1606828541293667002,2383010,1606828541271768808,imu_link,-0.07267051190137863,-0.023597002029418945,0.17875222861766815,0.9809229373931885,0.0,0.0,0.0,0.0,0.0,0.0,0.0,0.0,0.0,20.74362564086914,-1.1639662981033325,-8.686943054199219,0.0,0.0,0.0,0.0,0.0,0.0,0.0,0.0,0.0,0.0035775047726929188,-0.04566582292318344,0.3131715655326843,0.0,0.0,0.0,0.0,0.0,0.0,0.0,0.0,0.0
1606828541293700484,2383011,1606828541271922246,imu_link,-0.07267037034034729,-0.023595841601490974,0.1787518858909607,0.9809231162071228,0.0,0.0,0.0,0.0,0.0,0.0,0.0,0.0,0.0,20.743574142456055,-1.1638422012329102,-8.686901092529297,0.0,0.0,0.0,0.0,0.0,0.0,0.0,0.0,0.0,0.015437973663210869,-0.05806959420442581,0.32222795486450195,0.0,0.0,0.0,0.0,0.0,0.0,0.0,0.0,0.0
1606828541293713948,2383012,1606828541272008308,imu_link,-0.07267037034034729,-0.023595841601490974,0.1787518858909607,0.9809231162071228,0.0,0.0,0.0,0.0,0.0,0.0,0.0,0.0,0.0,20.743574142456055,-1.1638422012329102,-8.686901092529297,0.0,0.0,0.0,0.0,0.0,0.0,0.0,0.0,0.0,0.015437973663210869,-0.05806959420442581,0.32222795486450195,0.0,0.0,0.0,0.0,0.0,0.0,0.0,0.0,0.0
1606828541293728831,2383013,1606828541272083393,imu_link,-0.07266945391893387,-0.023594414815306664,0.17874537408351898,0.9809243679046631,0.0,0.0,0.0,0.0,0.0,0.0,0.0,0.0,0.0,20.7428035736084,-1.1637580394744873,-8.686759948730469,0.0,0.0,0.0,0.0,0.0,0.0,0.0,0.0,0.0,0.019937047734856606,-0.06293878704309464,0.32728350162506104,0.0,0.0,0.0,0.0,0.0,0.0,0.0,0.0,0.0
1606828541293736898,2383014,1606828541272156471,imu_link,-0.07266945391893387,-0.023594414815306664,0.17874537408351898,0.9809243679046631,0.0,0.0,0.0,0.0,0.0,0.0,0.0,0.0,0.0,20.7428035736084,-1.1637580394744873,-8.686759948730469,0.0,0.0,0.0,0.0,0.0,0.0,0.0,0.0,0.0,0.019937047734856606,-0.06293878704309464,0.32728350162506104,0.0,0.0,0.0,0.0,0.0,0.0,0.0,0.0,0.0
1606828541293745512,2383015,1606828541272243214,imu_link,-0.07266891747713089,-0.02359517104923725,0.1787470281124115,0.980924129486084,0.0,0.0,0.0,0.0,0.0,0.0,0.0,0.0,0.0,20.74300193786621,-1.16383957862854,-8.68671703338623,0.0,0.0,0.0,0.0,0.0,0.0,0.0,0.0,0.0,0.01206034142524004,-0.061053283512592316,0.30749189853668213,0.0,0.0,0.0,0.0,0.0,0.0,0.0,0.0,0.0
1606828541295133871,2383016,1606828541272312169,imu_link,-0.07266891747713089,-0.02359517104923725,0.1787470281124115,0.980924129486084,0.0,0.0,0.0,0.0,0.0,0.0,0.0,0.0,0.0,20.74300193786621,-1.16383957862854,-8.68671703338623,0.0,0.0,0.0,0.0,0.0,0.0,0.0,0.0,0.0,0.01206034142524004,-0.061053283512592316,0.30749189853668213,0.0,0.0,0.0,0.0,0.0,0.0,0.0,0.0,0.0
1606828541295167451,2383017,1606828541272394443,imu_link,-0.0726647824048996,-0.023593133315443993,0.17874988913536072,0.9809239506721497,0.0,0.0,0.0,0.0,0.0,0.0,0.0,0.0,0.0,20.743310928344727,-1.1636711359024048,-8.686209678649902,0.0,0.0,0.0,0.0,0.0,0.0,0.0,0.0,0.0,-0.0014421092346310616,-0.0617627277970314,0.31718021631240845,0.0,0.0,0.0,0.0,0.0,0.0,0.0,0.0,0.0
1606828541295179413,2383018,1606828541272475238,imu_link,-0.0726647824048996,-0.023593133315443993,0.17874988913536072,0.9809239506721497,0.0,0.0,0.0,0.0,0.0,0.0,0.0,0.0,0.0,20.743310928344727,-1.1636711359024048,-8.686209678649902,0.0,0.0,0.0,0.0,0.0,0.0,0.0,0.0,0.0,-0.0014421092346310616,-0.0617627277970314,0.31718021631240845,0.0,0.0,0.0,0.0,0.0,0.0,0.0,0.0,0.0
1606828541295198431,2383019,1606828541272551927,imu_link,-0.07266655564308167,-0.0235938411206007,0.1787494421005249,0.9809238910675049,0.0,0.0,0.0,0.0,0.0,0.0,0.0,0.0,0.0,20.743267059326172,-1.1637178659439087,-8.68642520904541,0.0,0.0,0.0,0.0,0.0,0.0,0.0,0.0,0.0,-0.000710800290107727,-0.06362713128328323,0.33250656723976135,0.0,0.0,0.0,0.0,0.0,0.0,0.0,0.0,0.0
1606828541295226812,2383020,1606828541285339528,imu_link,-0.07266655564308167,-0.0235938411206007,0.1787494421005249,0.9809238910675049,0.0,0.0,0.0,0.0,0.0,0.0,0.0,0.0,0.0,20.743267059326172,-1.1637178659439087,-8.68642520904541,0.0,0.0,0.0,0.0,0.0,0.0,0.0,0.0,0.0,-0.000710800290107727,-0.06362713128328323,0.33250656723976135,0.0,0.0,0.0,0.0,0.0,0.0,0.0,0.0,0.0
1606828541295239089,2383021,1606828541285468947,imu_link,-0.0726645439863205,-0.0235952939838171,0.17875052988529205,0.9809238314628601,0.0,0.0,0.0,0.0,0.0,0.0,0.0,0.0,0.0,20.743404388427734,-1.1639131307601929,-8.68622875213623,0.0,0.0,0.0,0.0,0.0,0.0,0.0,0.0,0.0,0.0034479843452572823,-0.04769008979201317,0.3175169825553894,0.0,0.0,0.0,0.0,0.0,0.0,0.0,0.0,0.0
1606828541295267165,2383022,1606828541285637639,imu_link,-0.0726645439863205,-0.0235952939838171,0.17875052988529205,0.9809238314628601,0.0,0.0,0.0,0.0,0.0,0.0,0.0,0.0,0.0,20.743404388427734,-1.1639131307601929,-8.68622875213623,0.0,0.0,0.0,0.0,0.0,0.0,0.0,0.0,0.0,0.0034479843452572823,-0.04769008979201317,0.3175169825553894,0.0,0.0,0.0,0.0,0.0,0.0,0.0,0.0,0.0
1606828541295278974,2383023,1606828541285713614,imu_link,-0.07266488671302795,-0.023594481870532036,0.1787530928850174,0.9809232354164124,0.0,0.0,0.0,0.0,0.0,0.0,0.0,0.0,0.0,20.743698120117188,-1.1637918949127197,-8.68625545501709,0.0,0.0,0.0,0.0,0.0,0.0,0.0,0.0,0.0,0.001632233615964651,-0.04395816847681999,0.29937753081321716,0.0,0.0,0.0,0.0,0.0,0.0,0.0,0.0,0.0
1606828541295286866,2383024,1606828541285785838,imu_link,-0.07266488671302795,-0.023594481870532036,0.1787530928850174,0.9809232354164124,0.0,0.0,0.0,0.0,0.0,0.0,0.0,0.0,0.0,20.743698120117188,-1.1637918949127197,-8.68625545501709,0.0,0.0,0.0,0.0,0.0,0.0,0.0,0.0,0.0,0.001632233615964651,-0.04395816847681999,0.29937753081321716,0.0,0.0,0.0,0.0,0.0,0.0,0.0,0.0,0.0
1606828541299143472,2383025,1606828541285873824,imu_link,-0.07266680151224136,-0.023598527535796165,0.17876893281936646,0.980920135974884,0.0,0.0,0.0,0.0,0.0,0.0,0.0,0.0,0.0,20.745574951171875,-1.164067029953003,-8.68657398223877,0.0,0.0,0.0,0.0,0.0,0.0,0.0,0.0,0.0,0.007423470262438059,-0.060720738023519516,0.2909879684448242,0.0,0.0,0.0,0.0,0.0,0.0,0.0,0.0,0.0
1606828541299162256,2383026,1606828541285951501,imu_link,-0.07266680151224136,-0.023598527535796165,0.17876893281936646,0.980920135974884,0.0,0.0,0.0,0.0,0.0,0.0,0.0,0.0,0.0,20.745574951171875,-1.164067029953003,-8.68657398223877,0.0,0.0,0.0,0.0,0.0,0.0,0.0,0.0,0.0,0.007423470262438059,-0.060720738023519516,0.2909879684448242,0.0,0.0,0.0,0.0,0.0,0.0,0.0,0.0,0.0
1606828541299172670,2383027,1606828541286020723,imu_link,-0.07266756147146225,-0.0235975943505764,0.1787693053483963,0.9809200167655945,0.0,0.0,0.0,0.0,0.0,0.0,0.0,0.0,0.0,20.7456111907959,-1.1639431715011597,-8.686641693115234,0.0,0.0,0.0,0.0,0.0,0.0,0.0,0.0,0.0,0.011936964467167854,-0.06542670726776123,0.30796483159065247,0.0,0.0,0.0,0.0,0.0,0.0,0.0,0.0,0.0
1606828541299180921,2383028,1606828541286091073,imu_link,-0.07266756147146225,-0.0235975943505764,0.1787693053483963,0.9809200167655945,0.0,0.0,0.0,0.0,0.0,0.0,0.0,0.0,0.0,20.7456111907959,-1.1639431715011597,-8.686641693115234,0.0,0.0,0.0,0.0,0.0,0.0,0.0,0.0,0.0,0.011936964467167854,-0.06542670726776123,0.30796483159065247,0.0,0.0,0.0,0.0,0.0,0.0,0.0,0.0,0.0
1606828541299195893,2383029,1606828541286169903,imu_link,-0.07266314327716827,-0.023598456755280495,0.1787828505039215,0.9809179306030273,0.0,0.0,0.0,0.0,0.0,0.0,0.0,0.0,0.0,20.74718475341797,-1.1640123128890991,-8.686175346374512,0.0,0.0,0.0,0.0,0.0,0.0,0.0,0.0,0.0,0.0067658270709216595,-0.062117382884025574,0.34515389800071716,0.0,0.0,0.0,0.0,0.0,0.0,0.0,0.0,0.0
1606828541307929503,2383030,1606828541286253522,imu_link,-0.07266314327716827,-0.023598456755280495,0.1787828505039215,0.9809179306030273,0.0,0.0,0.0,0.0,0.0,0.0,0.0,0.0,0.0,20.74718475341797,-1.1640123128890991,-8.686175346374512,0.0,0.0,0.0,0.0,0.0,0.0,0.0,0.0,0.0,0.0067658270709216595,-0.062117382884025574,0.34515389800071716,0.0,0.0,0.0,0.0,0.0,0.0,0.0,0.0,0.0
1606828541307945161,2383031,1606828541298276592,imu_link,-0.07266241312026978,-0.02359837107360363,0.17878292500972748,0.9809179306030273,0.0,0.0,0.0,0.0,0.0,0.0,0.0,0.0,0.0,20.747196197509766,-1.1640169620513916,-8.686092376708984,0.0,0.0,0.0,0.0,0.0,0.0,0.0,0.0,0.0,0.0024823821149766445,-0.05791490525007248,0.3378884494304657,0.0,0.0,0.0,0.0,0.0,0.0,0.0,0.0,0.0
1606828541307978826,2383032,1606828541298421026,imu_link,-0.07266241312026978,-0.02359837107360363,0.17878292500972748,0.9809179306030273,0.0,0.0,0.0,0.0,0.0,0.0,0.0,0.0,0.0,20.747196197509766,-1.1640169620513916,-8.686092376708984,0.0,0.0,0.0,0.0,0.0,0.0,0.0,0.0,0.0,0.0024823821149766445,-0.05791490525007248,0.3378884494304657,0.0,0.0,0.0,0.0,0.0,0.0,0.0,0.0,0.0
1606828541308663333,2383033,1606828541298641028,imu_link,-0.07266179472208023,-0.023598872125148773,0.17879138886928558,0.980916440486908,0.0,0.0,0.0,0.0,0.0,0.0,0.0,0.0,0.0,20.748180389404297,-1.1640114784240723,-8.686040878295898,0.0,0.0,0.0,0.0,0.0,0.0,0.0,0.0,0.0,0.012289823032915592,-0.05321529880166054,0.33779406547546387,0.0,0.0,0.0,0.0,0.0,0.0,0.0,0.0,0.0
1606828541308674767,2383034,1606828541298782700,imu_link,-0.07266179472208023,-0.023598872125148773,0.17879138886928558,0.980916440486908,0.0,0.0,0.0,0.0,0.0,0.0,0.0,0.0,0.0,20.748180389404297,-1.1640114784240723,-8.686040878295898,0.0,0.0,0.0,0.0,0.0,0.0,0.0,0.0,0.0,0.012289823032915592,-0.05321529880166054,0.33779406547546387,0.0,0.0,0.0,0.0,0.0,0.0,0.0,0.0,0.0
1606828541308682435,2383035,1606828541298875575,imu_link,-0.0726633295416832,-0.023599209263920784,0.17878994345664978,0.9809165596961975,0.0,0.0,0.0,0.0,0.0,0.0,0.0,0.0,0.0,20.748018264770508,-1.1640303134918213,-8.6862211227417,0.0,0.0,0.0,0.0,0.0,0.0,0.0,0.0,0.0,0.004421093966811895,-0.0504460483789444,0.32747021317481995,0.0,0.0,0.0,0.0,0.0,0.0,0.0,0.0,0.0
1606828541308690832,2383036,1606828541298981169,imu_link,-0.0726633295416832,-0.023599209263920784,0.17878994345664978,0.9809165596961975,0.0,0.0,0.0,0.0,0.0,0.0,0.0,0.0,0.0,20.748018264770508,-1.1640303134918213,-8.6862211227417,0.0,0.0,0.0,0.0,0.0,0.0,0.0,0.0,0.0,0.004421093966811895,-0.0504460483789444,0.32747021317481995,0.0,0.0,0.0,0.0,0.0,0.0,0.0,0.0,0.0
1606828541321311718,2383037,1606828541299059765,imu_link,-0.07266351580619812,-0.023599324747920036,0.17879760265350342,0.9809151291847229,0.0,0.0,0.0,0.0,0.0,0.0,0.0,0.0,0.0,20.74890899658203,-1.1639719009399414,-8.68625259399414,0.0,0.0,0.0,0.0,0.0,0.0,0.0,0.0,0.0,-0.01302029937505722,-0.048900358378887177,0.3131526708602905,0.0,0.0,0.0,0.0,0.0,0.0,0.0,0.0,0.0
1606828541321334809,2383038,1606828541299151041,imu_link,-0.07266351580619812,-0.023599324747920036,0.17879760265350342,0.9809151291847229,0.0,0.0,0.0,0.0,0.0,0.0,0.0,0.0,0.0,20.74890899658203,-1.1639719009399414,-8.68625259399414,0.0,0.0,0.0,0.0,0.0,0.0,0.0,0.0,0.0,-0.01302029937505722,-0.048900358378887177,0.3131526708602905,0.0,0.0,0.0,0.0,0.0,0.0,0.0,0.0,0.0
1606828541321351335,2383039,1606828541299233787,imu_link,-0.07266297936439514,-0.023600222542881966,0.17879807949066162,0.9809150695800781,0.0,0.0,0.0,0.0,0.0,0.0,0.0,0.0,0.0,20.748973846435547,-1.1640796661376953,-8.686211585998535,0.0,0.0,0.0,0.0,0.0,0.0,0.0,0.0,0.0,-0.003477507270872593,-0.05633147060871124,0.32781317830085754,0.0,0.0,0.0,0.0,0.0,0.0,0.0,0.0,0.0
1606828541321361599,2383040,1606828541299367896,imu_link,-0.07266297936439514,-0.023600222542881966,0.17879807949066162,0.9809150695800781,0.0,0.0,0.0,0.0,0.0,0.0,0.0,0.0,0.0,20.748973846435547,-1.1640796661376953,-8.686211585998535,0.0,0.0,0.0,0.0,0.0,0.0,0.0,0.0,0.0,-0.003477507270872593,-0.05633147060871124,0.32781317830085754,0.0,0.0,0.0,0.0,0.0,0.0,0.0,0.0,0.0
1606828541322244147,2383041,1606828541311666888,imu_link,-0.07266245037317276,-0.02360057272017002,0.17879711091518402,0.9809153079986572,0.0,0.0,0.0,0.0,0.0,0.0,0.0,0.0,0.0,20.74886131286621,-1.1641385555267334,-8.6861572265625,0.0,0.0,0.0,0.0,0.0,0.0,0.0,0.0,0.0,0.0069815367460250854,-0.061178673058748245,0.310067743062973,0.0,0.0,0.0,0.0,0.0,0.0,0.0,0.0,0.0
1606828541322261192,2383042,1606828541311817596,imu_link,-0.07266245037317276,-0.02360057272017002,0.17879711091518402,0.9809153079986572,0.0,0.0,0.0,0.0,0.0,0.0,0.0,0.0,0.0,20.74886131286621,-1.1641385555267334,-8.6861572265625,0.0,0.0,0.0,0.0,0.0,0.0,0.0,0.0,0.0,0.0069815367460250854,-0.061178673058748245,0.310067743062973,0.0,0.0,0.0,0.0,0.0,0.0,0.0,0.0,0.0
1606828541322286846,2383043,1606828541311992108,imu_link,-0.0726635530591011,-0.0236005038022995,0.1787990927696228,0.980914831161499,0.0,0.0,0.0,0.0,0.0,0.0,0.0,0.0,0.0,20.749095916748047,-1.1640903949737549,-8.686283111572266,0.0,0.0,0.0,0.0,0.0,0.0,0.0,0.0,0.0,0.0072732288390398026,-0.06407402455806732,0.27860239148139954,0.0,0.0,0.0,0.0,0.0,0.0,0.0,0.0,0.0
1606828541322299080,2383044,1606828541312136522,imu_link,-0.0726635530591011,-0.0236005038022995,0.1787990927696228,0.980914831161499,0.0,0.0,0.0,0.0,0.0,0.0,0.0,0.0,0.0,20.749095916748047,-1.1640903949737549,-8.686283111572266,0.0,0.0,0.0,0.0,0.0,0.0,0.0,0.0,0.0,0.0072732288390398026,-0.06407402455806732,0.27860239148139954,0.0,0.0,0.0,0.0,0.0,0.0,0.0,0.0,0.0
1606828541322308544,2383045,1606828541312249092,imu_link,-0.07266014069318771,-0.023601913824677467,0.1787985861301422,0.9809151887893677,0.0,0.0,0.0,0.0,0.0,0.0,0.0,0.0,0.0,20.74904441833496,-1.1643240451812744,-8.68592643737793,0.0,0.0,0.0,0.0,0.0,0.0,0.0,0.0,0.0,0.006306922063231468,-0.060191281139850616,0.3100655972957611,0.0,0.0,0.0,0.0,0.0,0.0,0.0,0.0,0.0
1606828541322316433,2383046,1606828541312341324,imu_link,-0.07266014069318771,-0.023601913824677467,0.1787985861301422,0.9809151887893677,0.0,0.0,0.0,0.0,0.0,0.0,0.0,0.0,0.0,20.74904441833496,-1.1643240451812744,-8.68592643737793,0.0,0.0,0.0,0.0,0.0,0.0,0.0,0.0,0.0,0.006306922063231468,-0.060191281139850616,0.3100655972957611,0.0,0.0,0.0,0.0,0.0,0.0,0.0,0.0,0.0
1606828541322324062,2383047,1606828541312446557,imu_link,-0.07266020029783249,-0.023601016029715538,0.17879867553710938,0.9809151887893677,0.0,0.0,0.0,0.0,0.0,0.0,0.0,0.0,0.0,20.749046325683594,-1.164221167564392,-8.6859130859375,0.0,0.0,0.0,0.0,0.0,0.0,0.0,0.0,0.0,0.011954366229474545,-0.052192866802215576,0.3219980299472809,0.0,0.0,0.0,0.0,0.0,0.0,0.0,0.0,0.0
1606828541322329646,2383048,1606828541312532436,imu_link,-0.07266020029783249,-0.023601016029715538,0.17879867553710938,0.9809151887893677,0.0,0.0,0.0,0.0,0.0,0.0,0.0,0.0,0.0,20.749046325683594,-1.164221167564392,-8.6859130859375,0.0,0.0,0.0,0.0,0.0,0.0,0.0,0.0,0.0,0.011954366229474545,-0.052192866802215576,0.3219980299472809,0.0,0.0,0.0,0.0,0.0,0.0,0.0,0.0,0.0
1606828541322337188,2383049,1606828541312618554,imu_link,-0.0726594552397728,-0.023599760606884956,0.1787862479686737,0.9809175133705139,0.0,0.0,0.0,0.0,0.0,0.0,0.0,0.0,0.0,20.747591018676758,-1.1642050743103027,-8.685790061950684,0.0,0.0,0.0,0.0,0.0,0.0,0.0,0.0,0.0,0.01509401760995388,-0.055508822202682495,0.2835327982902527,0.0,0.0,0.0,0.0,0.0,0.0,0.0,0.0,0.0
1606828541340609490,2383050,1606828541312696875,imu_link,-0.0726594552397728,-0.023599760606884956,0.1787862479686737,0.9809175133705139,0.0,0.0,0.0,0.0,0.0,0.0,0.0,0.0,0.0,20.747591018676758,-1.1642050743103027,-8.685790061950684,0.0,0.0,0.0,0.0,0.0,0.0,0.0,0.0,0.0,0.01509401760995388,-0.055508822202682495,0.2835327982902527,0.0,0.0,0.0,0.0,0.0,0.0,0.0,0.0,0.0
1606828541340630027,2383051,1606828541312801121,imu_link,-0.07266022264957428,-0.023599443957209587,0.17878852784633636,0.9809170365333557,0.0,0.0,0.0,0.0,0.0,0.0,0.0,0.0,0.0,20.74785041809082,-1.1641334295272827,-8.685872077941895,0.0,0.0,0.0,0.0,0.0,0.0,0.0,0.0,0.0,0.017129182815551758,-0.05629783868789673,0.30166661739349365,0.0,0.0,0.0,0.0,0.0,0.0,0.0,0.0,0.0
1606828541340644793,2383052,1606828541325549624,imu_link,-0.07266022264957428,-0.023599443957209587,0.17878852784633636,0.9809170365333557,0.0,0.0,0.0,0.0,0.0,0.0,0.0,0.0,0.0,20.74785041809082,-1.1641334295272827,-8.685872077941895,0.0,0.0,0.0,0.0,0.0,0.0,0.0,0.0,0.0,0.017129182815551758,-0.05629783868789673,0.30166661739349365,0.0,0.0,0.0,0.0,0.0,0.0,0.0,0.0,0.0
1606828541340651326,2383053,1606828541325661326,imu_link,-0.07265949994325638,-0.023599304258823395,0.17877671122550964,0.9809192419052124,0.0,0.0,0.0,0.0,0.0,0.0,0.0,0.0,0.0,20.746479034423828,-1.1642369031906128,-8.685774803161621,0.0,0.0,0.0,0.0,0.0,0.0,0.0,0.0,0.0,0.029997749254107475,-0.0489746630191803,0.33151715993881226,0.0,0.0,0.0,0.0,0.0,0.0,0.0,0.0,0.0
1606828541340657474,2383054,1606828541325811380,imu_link,-0.07265949994325638,-0.023599304258823395,0.17877671122550964,0.9809192419052124,0.0,0.0,0.0,0.0,0.0,0.0,0.0,0.0,0.0,20.746479034423828,-1.1642369031906128,-8.685774803161621,0.0,0.0,0.0,0.0,0.0,0.0,0.0,0.0,0.0,0.029997749254107475,-0.0489746630191803,0.33151715993881226,0.0,0.0,0.0,0.0,0.0,0.0,0.0,0.0,0.0
1606828541341344906,2383055,1606828541325877369,imu_link,-0.07265905290842056,-0.02359904535114765,0.1787789911031723,0.9809188842773438,0.0,0.0,0.0,0.0,0.0,0.0,0.0,0.0,0.0,20.746740341186523,-1.1641970872879028,-8.68571949005127,0.0,0.0,0.0,0.0,0.0,0.0,0.0,0.0,0.0,0.023557933047413826,-0.04499926045536995,0.3236592710018158,0.0,0.0,0.0,0.0,0.0,0.0,0.0,0.0,0.0
1606828541341360615,2383056,1606828541325941589,imu_link,-0.07265905290842056,-0.02359904535114765,0.1787789911031723,0.9809188842773438,0.0,0.0,0.0,0.0,0.0,0.0,0.0,0.0,0.0,20.746740341186523,-1.1641970872879028,-8.68571949005127,0.0,0.0,0.0,0.0,0.0,0.0,0.0,0.0,0.0,0.023557933047413826,-0.04499926045536995,0.3236592710018158,0.0,0.0,0.0,0.0,0.0,0.0,0.0,0.0,0.0
1606828541341367843,2383057,1606828541326002790,imu_link,-0.07265743613243103,-0.023596201092004776,0.17877578735351562,0.9809196591377258,0.0,0.0,0.0,0.0,0.0,0.0,0.0,0.0,0.0,20.746339797973633,-1.163939118385315,-8.685474395751953,0.0,0.0,0.0,0.0,0.0,0.0,0.0,0.0,0.0,0.004958994686603546,-0.028442418202757835,0.30347317457199097,0.0,0.0,0.0,0.0,0.0,0.0,0.0,0.0,0.0
1606828541341381714,2383058,1606828541326078946,imu_link,-0.07265743613243103,-0.023596201092004776,0.17877578735351562,0.9809196591377258,0.0,0.0,0.0,0.0,0.0,0.0,0.0,0.0,0.0,20.746339797973633,-1.163939118385315,-8.685474395751953,0.0,0.0,0.0,0.0,0.0,0.0,0.0,0.0,0.0,0.004958994686603546,-0.028442418202757835,0.30347317457199097,0.0,0.0,0.0,0.0,0.0,0.0,0.0,0.0,0.0
1606828541348386664,2383059,1606828541326151116,imu_link,-0.07265789061784744,-0.023597626015543938,0.1787780225276947,0.9809191823005676,0.0,0.0,0.0,0.0,0.0,0.0,0.0,0.0,0.0,20.746612548828125,-1.1640700101852417,-8.685558319091797,0.0,0.0,0.0,0.0,0.0,0.0,0.0,0.0,0.0,0.0040297661907970905,-0.029411664232611656,0.30639827251434326,0.0,0.0,0.0,0.0,0.0,0.0,0.0,0.0,0.0
1606828541348407910,2383060,1606828541326212807,imu_link,-0.07265789061784744,-0.023597626015543938,0.1787780225276947,0.9809191823005676,0.0,0.0,0.0,0.0,0.0,0.0,0.0,0.0,0.0,20.746612548828125,-1.1640700101852417,-8.685558319091797,0.0,0.0,0.0,0.0,0.0,0.0,0.0,0.0,0.0,0.0040297661907970905,-0.029411664232611656,0.30639827251434326,0.0,0.0,0.0,0.0,0.0,0.0,0.0,0.0,0.0
1606828541348420594,2383061,1606828541326278017,imu_link,-0.07266079634428024,-0.02359727956354618,0.17877279222011566,0.9809198975563049,0.0,0.0,0.0,0.0,0.0,0.0,0.0,0.0,0.0,20.74600601196289,-1.1640170812606812,-8.685873031616211,0.0,0.0,0.0,0.0,0.0,0.0,0.0,0.0,0.0,-0.004430336412042379,-0.05341546982526779,0.3229016363620758,0.0,0.0,0.0,0.0,0.0,0.0,0.0,0.0,0.0
1606828541348429667,2383062,1606828541326348235,imu_link,-0.07266079634428024,-0.02359727956354618,0.17877279222011566,0.9809198975563049,0.0,0.0,0.0,0.0,0.0,0.0,0.0,0.0,0.0,20.74600601196289,-1.1640170812606812,-8.685873031616211,0.0,0.0,0.0,0.0,0.0,0.0,0.0,0.0,0.0,-0.004430336412042379,-0.05341546982526779,0.3229016363620758,0.0,0.0,0.0,0.0,0.0,0.0,0.0,0.0,0.0
1606828541348437955,2383063,1606828541338944150,imu_link,-0.07265930622816086,-0.023596668615937233,0.17877274751663208,0.9809200763702393,0.0,0.0,0.0,0.0,0.0,0.0,0.0,0.0,0.0,20.745990753173828,-1.1639798879623413,-8.685691833496094,0.0,0.0,0.0,0.0,0.0,0.0,0.0,0.0,0.0,-0.0025919927284121513,-0.05063450708985329,0.3512140214443207,0.0,0.0,0.0,0.0,0.0,0.0,0.0,0.0,0.0
1606828541350081851,2383064,1606828541339080971,imu_link,-0.07265930622816086,-0.023596668615937233,0.17877274751663208,0.9809200763702393,0.0,0.0,0.0,0.0,0.0,0.0,0.0,0.0,0.0,20.745990753173828,-1.1639798879623413,-8.685691833496094,0.0,0.0,0.0,0.0,0.0,0.0,0.0,0.0,0.0,-0.0025919927284121513,-0.05063450708985329,0.3512140214443207,0.0,0.0,0.0,0.0,0.0,0.0,0.0,0.0,0.0
1606828541350108245,2383065,1606828541339262385,imu_link,-0.07265840470790863,-0.023597165942192078,0.17877516150474548,0.9809196591377258,0.0,0.0,0.0,0.0,0.0,0.0,0.0,0.0,0.0,20.74627685546875,-1.1640329360961914,-8.685603141784668,0.0,0.0,0.0,0.0,0.0,0.0,0.0,0.0,0.0,0.006898546125739813,-0.0392894446849823,0.35145512223243713,0.0,0.0,0.0,0.0,0.0,0.0,0.0,0.0,0.0
1606828541350120805,2383066,1606828541339386391,imu_link,-0.07265840470790863,-0.023597165942192078,0.17877516150474548,0.9809196591377258,0.0,0.0,0.0,0.0,0.0,0.0,0.0,0.0,0.0,20.74627685546875,-1.1640329360961914,-8.685603141784668,0.0,0.0,0.0,0.0,0.0,0.0,0.0,0.0,0.0,0.006898546125739813,-0.0392894446849823,0.35145512223243713,0.0,0.0,0.0,0.0,0.0,0.0,0.0,0.0,0.0
1606828541350164489,2383067,1606828541339466561,imu_link,-0.07265772670507431,-0.023598607629537582,0.17877604067325592,0.9809195399284363,0.0,0.0,0.0,0.0,0.0,0.0,0.0,0.0,0.0,20.74639129638672,-1.1642013788223267,-8.685558319091797,0.0,0.0,0.0,0.0,0.0,0.0,0.0,0.0,0.0,0.013398770242929459,-0.045832667499780655,0.3132307529449463,0.0,0.0,0.0,0.0,0.0,0.0,0.0,0.0,0.0
1606828541350192582,2383068,1606828541339543398,imu_link,-0.07265772670507431,-0.023598607629537582,0.17877604067325592,0.9809195399284363,0.0,0.0,0.0,0.0,0.0,0.0,0.0,0.0,0.0,20.74639129638672,-1.1642013788223267,-8.685558319091797,0.0,0.0,0.0,0.0,0.0,0.0,0.0,0.0,0.0,0.013398770242929459,-0.045832667499780655,0.3132307529449463,0.0,0.0,0.0,0.0,0.0,0.0,0.0,0.0,0.0
1606828541350218100,2383069,1606828541339643705,imu_link,-0.07265634834766388,-0.023599106818437576,0.1787792444229126,0.9809190630912781,0.0,0.0,0.0,0.0,0.0,0.0,0.0,0.0,0.0,20.746768951416016,-1.1642577648162842,-8.685416221618652,0.0,0.0,0.0,0.0,0.0,0.0,0.0,0.0,0.0,0.023202095180749893,-0.04432680085301399,0.31501153111457825,0.0,0.0,0.0,0.0,0.0,0.0,0.0,0.0,0.0
1606828541350236540,2383070,1606828541339736634,imu_link,-0.07265634834766388,-0.023599106818437576,0.1787792444229126,0.9809190630912781,0.0,0.0,0.0,0.0,0.0,0.0,0.0,0.0,0.0,20.746768951416016,-1.1642577648162842,-8.685416221618652,0.0,0.0,0.0,0.0,0.0,0.0,0.0,0.0,0.0,0.023202095180749893,-0.04432680085301399,0.31501153111457825,0.0,0.0,0.0,0.0,0.0,0.0,0.0,0.0,0.0
1606828541350254612,2383071,1606828541339814599,imu_link,-0.07265666872262955,-0.02359907515347004,0.17878161370754242,0.9809185862541199,0.0,0.0,0.0,0.0,0.0,0.0,0.0,0.0,0.0,20.747041702270508,-1.1642266511917114,-8.685454368591309,0.0,0.0,0.0,0.0,0.0,0.0,0.0,0.0,0.0,0.0225943885743618,-0.02515159361064434,0.3207091689109802,0.0,0.0,0.0,0.0,0.0,0.0,0.0,0.0,0.0
1606828541350270381,2383072,1606828541339902267,imu_link,-0.07265666872262955,-0.02359907515347004,0.17878161370754242,0.9809185862541199,0.0,0.0,0.0,0.0,0.0,0.0,0.0,0.0,0.0,20.747041702270508,-1.1642266511917114,-8.685454368591309,0.0,0.0,0.0,0.0,0.0,0.0,0.0,0.0,0.0,0.0225943885743618,-0.02515159361064434,0.3207091689109802,0.0,0.0,0.0,0.0,0.0,0.0,0.0,0.0,0.0
1606828541362897026,2383073,1606828541339985639,imu_link,-0.07265995442867279,-0.023599393665790558,0.1787899136543274,0.9809167981147766,0.0,0.0,0.0,0.0,0.0,0.0,0.0,0.0,0.0,20.74801254272461,-1.1641210317611694,-8.685842514038086,0.0,0.0,0.0,0.0,0.0,0.0,0.0,0.0,0.0,0.021293479949235916,-0.0336400642991066,0.28760597109794617,0.0,0.0,0.0,0.0,0.0,0.0,0.0,0.0,0.0
1606828541362924720,2383074,1606828541352806465,imu_link,-0.07265995442867279,-0.023599393665790558,0.1787899136543274,0.9809167981147766,0.0,0.0,0.0,0.0,0.0,0.0,0.0,0.0,0.0,20.74801254272461,-1.1641210317611694,-8.685842514038086,0.0,0.0,0.0,0.0,0.0,0.0,0.0,0.0,0.0,0.021293479949235916,-0.0336400642991066,0.28760597109794617,0.0,0.0,0.0,0.0,0.0,0.0,0.0,0.0,0.0
1606828541362940581,2383075,1606828541352943511,imu_link,-0.07266005128622055,-0.023600414395332336,0.1787894368171692,0.9809168577194214,0.0,0.0,0.0,0.0,0.0,0.0,0.0,0.0,0.0,20.747968673706055,-1.1642378568649292,-8.685873985290527,0.0,0.0,0.0,0.0,0.0,0.0,0.0,0.0,0.0,0.015283986926078796,-0.04701977223157883,0.2932274639606476,0.0,0.0,0.0,0.0,0.0,0.0,0.0,0.0,0.0
1606828541362950265,2383076,1606828541353123808,imu_link,-0.07266005128622055,-0.023600414395332336,0.1787894368171692,0.9809168577194214,0.0,0.0,0.0,0.0,0.0,0.0,0.0,0.0,0.0,20.747968673706055,-1.1642378568649292,-8.685873985290527,0.0,0.0,0.0,0.0,0.0,0.0,0.0,0.0,0.0,0.015283986926078796,-0.04701977223157883,0.2932274639606476,0.0,0.0,0.0,0.0,0.0,0.0,0.0,0.0,0.0
1606828541379347165,2383077,1606828541353261811,imu_link,-0.07266189157962799,-0.02359790727496147,0.17879828810691833,0.9809151887893677,0.0,0.0,0.0,0.0,0.0,0.0,0.0,0.0,0.0,20.748973846435547,-1.1638402938842773,-8.686039924621582,0.0,0.0,0.0,0.0,0.0,0.0,0.0,0.0,0.0,0.007895324379205704,-0.04345045983791351,0.33086830377578735,0.0,0.0,0.0,0.0,0.0,0.0,0.0,0.0,0.0
1606828541379370244,2383078,1606828541353365676,imu_link,-0.07266189157962799,-0.02359790727496147,0.17879828810691833,0.9809151887893677,0.0,0.0,0.0,0.0,0.0,0.0,0.0,0.0,0.0,20.748973846435547,-1.1638402938842773,-8.686039924621582,0.0,0.0,0.0,0.0,0.0,0.0,0.0,0.0,0.0,0.007895324379205704,-0.04345045983791351,0.33086830377578735,0.0,0.0,0.0,0.0,0.0,0.0,0.0,0.0,0.0
1606828541379393031,2383079,1606828541353473971,imu_link,-0.07266202569007874,-0.023598313331604004,0.17880026996135712,0.9809147715568542,0.0,0.0,0.0,0.0,0.0,0.0,0.0,0.0,0.0,20.749210357666016,-1.163865566253662,-8.686067581176758,0.0,0.0,0.0,0.0,0.0,0.0,0.0,0.0,0.0,0.0042350515723228455,-0.037646640092134476,0.33587807416915894,0.0,0.0,0.0,0.0,0.0,0.0,0.0,0.0,0.0
1606828541379422994,2383080,1606828541353560962,imu_link,-0.07266202569007874,-0.023598313331604004,0.17880026996135712,0.9809147715568542,0.0,0.0,0.0,0.0,0.0,0.0,0.0,0.0,0.0,20.749210357666016,-1.163865566253662,-8.686067581176758,0.0,0.0,0.0,0.0,0.0,0.0,0.0,0.0,0.0,0.0042350515723228455,-0.037646640092134476,0.33587807416915894,0.0,0.0,0.0,0.0,0.0,0.0,0.0,0.0,0.0
1606828541379438640,2383081,1606828541353648509,imu_link,-0.07266352325677872,-0.023599129170179367,0.17880314588546753,0.9809141755104065,0.0,0.0,0.0,0.0,0.0,0.0,0.0,0.0,0.0,20.74955177307129,-1.1639009714126587,-8.686256408691406,0.0,0.0,0.0,0.0,0.0,0.0,0.0,0.0,0.0,-0.0075858356431126595,-0.038432225584983826,0.3303484618663788,0.0,0.0,0.0,0.0,0.0,0.0,0.0,0.0,0.0
1606828541379461262,2383082,1606828541353734322,imu_link,-0.07266352325677872,-0.023599129170179367,0.17880314588546753,0.9809141755104065,0.0,0.0,0.0,0.0,0.0,0.0,0.0,0.0,0.0,20.74955177307129,-1.1639009714126587,-8.686256408691406,0.0,0.0,0.0,0.0,0.0,0.0,0.0,0.0,0.0,-0.0075858356431126595,-0.038432225584983826,0.3303484618663788,0.0,0.0,0.0,0.0,0.0,0.0,0.0,0.0,0.0
1606828541379475909,2383083,1606828541353819874,imu_link,-0.07266385853290558,-0.023598620668053627,0.17880140244960785,0.9809144735336304,0.0,0.0,0.0,0.0,0.0,0.0,0.0,0.0,0.0,20.749345779418945,-1.163852334022522,-8.686281204223633,0.0,0.0,0.0,0.0,0.0,0.0,0.0,0.0,0.0,-0.02587617188692093,-0.04139161482453346,0.3184932470321655,0.0,0.0,0.0,0.0,0.0,0.0,0.0,0.0,0.0
1606828541379489980,2383084,1606828541353900806,imu_link,-0.07266385853290558,-0.023598620668053627,0.17880140244960785,0.9809144735336304,0.0,0.0,0.0,0.0,0.0,0.0,0.0,0.0,0.0,20.749345779418945,-1.163852334022522,-8.686281204223633,0.0,0.0,0.0,0.0,0.0,0.0,0.0,0.0,0.0,-0.02587617188692093,-0.04139161482453346,0.3184932470321655,0.0,0.0,0.0,0.0,0.0,0.0,0.0,0.0,0.0
1606828541379586286,2383085,1606828541365802487,imu_link,-0.07266486436128616,-0.02360285259783268,0.17880472540855408,0.9809136986732483,0.0,0.0,0.0,0.0,0.0,0.0,0.0,0.0,0.0,20.749771118164062,-1.1642775535583496,-8.68648624420166,0.0,0.0,0.0,0.0,0.0,0.0,0.0,0.0,0.0,-0.03192584961652756,-0.0479043647646904,0.31555595993995667,0.0,0.0,0.0,0.0,0.0,0.0,0.0,0.0,0.0
1606828541389002436,2383086,1606828541365947792,imu_link,-0.07266486436128616,-0.02360285259783268,0.17880472540855408,0.9809136986732483,0.0,0.0,0.0,0.0,0.0,0.0,0.0,0.0,0.0,20.749771118164062,-1.1642775535583496,-8.68648624420166,0.0,0.0,0.0,0.0,0.0,0.0,0.0,0.0,0.0,-0.03192584961652756,-0.0479043647646904,0.31555595993995667,0.0,0.0,0.0,0.0,0.0,0.0,0.0,0.0,0.0
1606828541389022736,2383087,1606828541366129266,imu_link,-0.07266407459974289,-0.02360587753355503,0.17880387604236603,0.9809138178825378,0.0,0.0,0.0,0.0,0.0,0.0,0.0,0.0,0.0,20.74970054626465,-1.164641261100769,-8.6864595413208,0.0,0.0,0.0,0.0,0.0,0.0,0.0,0.0,0.0,-0.007096432615071535,-0.056677743792533875,0.31644949316978455,0.0,0.0,0.0,0.0,0.0,0.0,0.0,0.0,0.0
1606828541389033280,2383088,1606828541366227147,imu_link,-0.07266407459974289,-0.02360587753355503,0.17880387604236603,0.9809138178825378,0.0,0.0,0.0,0.0,0.0,0.0,0.0,0.0,0.0,20.74970054626465,-1.164641261100769,-8.6864595413208,0.0,0.0,0.0,0.0,0.0,0.0,0.0,0.0,0.0,-0.007096432615071535,-0.056677743792533875,0.31644949316978455,0.0,0.0,0.0,0.0,0.0,0.0,0.0,0.0,0.0
1606828541389044304,2383089,1606828541366305578,imu_link,-0.07266342639923096,-0.023605169728398323,0.17880235612392426,0.9809141755104065,0.0,0.0,0.0,0.0,0.0,0.0,0.0,0.0,0.0,20.749513626098633,-1.1645885705947876,-8.686369895935059,0.0,0.0,0.0,0.0,0.0,0.0,0.0,0.0,0.0,0.017647769302129745,-0.04900183901190758,0.32784634828567505,0.0,0.0,0.0,0.0,0.0,0.0,0.0,0.0,0.0
1606828541389057546,2383090,1606828541366410515,imu_link,-0.07266342639923096,-0.023605169728398323,0.17880235612392426,0.9809141755104065,0.0,0.0,0.0,0.0,0.0,0.0,0.0,0.0,0.0,20.749513626098633,-1.1645885705947876,-8.686369895935059,0.0,0.0,0.0,0.0,0.0,0.0,0.0,0.0,0.0,0.017647769302129745,-0.04900183901190758,0.32784634828567505,0.0,0.0,0.0,0.0,0.0,0.0,0.0,0.0,0.0
1606828541389075031,2383091,1606828541366491843,imu_link,-0.07266359776258469,-0.023605428636074066,0.17880268394947052,0.9809141159057617,0.0,0.0,0.0,0.0,0.0,0.0,0.0,0.0,0.0,20.749557495117188,-1.1646112203598022,-8.686395645141602,0.0,0.0,0.0,0.0,0.0,0.0,0.0,0.0,0.0,0.023637453094124794,-0.050008904188871384,0.33312833309173584,0.0,0.0,0.0,0.0,0.0,0.0,0.0,0.0,0.0
1606828541389092445,2383092,1606828541366568640,imu_link,-0.07266359776258469,-0.023605428636074066,0.17880268394947052,0.9809141159057617,0.0,0.0,0.0,0.0,0.0,0.0,0.0,0.0,0.0,20.749557495117188,-1.1646112203598022,-8.686395645141602,0.0,0.0,0.0,0.0,0.0,0.0,0.0,0.0,0.0,0.023637453094124794,-0.050008904188871384,0.33312833309173584,0.0,0.0,0.0,0.0,0.0,0.0,0.0,0.0,0.0
1606828541389132385,2383093,1606828541366646058,imu_link,-0.07266536355018616,-0.023602090775966644,0.17880265414714813,0.9809140563011169,0.0,0.0,0.0,0.0,0.0,0.0,0.0,0.0,0.0,20.74952507019043,-1.1642000675201416,-8.686524391174316,0.0,0.0,0.0,0.0,0.0,0.0,0.0,0.0,0.0,0.026551716029644012,-0.05599449574947357,0.3203277289867401,0.0,0.0,0.0,0.0,0.0,0.0,0.0,0.0,0.0
1606828541401289463,2383094,1606828541366729952,imu_link,-0.07266536355018616,-0.023602090775966644,0.17880265414714813,0.9809140563011169,0.0,0.0,0.0,0.0,0.0,0.0,0.0,0.0,0.0,20.74952507019043,-1.1642000675201416,-8.686524391174316,0.0,0.0,0.0,0.0,0.0,0.0,0.0,0.0,0.0,0.026551716029644012,-0.05599449574947357,0.3203277289867401,0.0,0.0,0.0,0.0,0.0,0.0,0.0,0.0,0.0
1606828541401323519,2383095,1606828541379192647,imu_link,-0.07266370207071304,-0.023602541536092758,0.17880365252494812,0.9809139966964722,0.0,0.0,0.0,0.0,0.0,0.0,0.0,0.0,0.0,20.74964141845703,-1.164276123046875,-8.686347007751465,0.0,0.0,0.0,0.0,0.0,0.0,0.0,0.0,0.0,0.01856105774641037,-0.03316628187894821,0.32238078117370605,0.0,0.0,0.0,0.0,0.0,0.0,0.0,0.0,0.0
1606828541401375485,2383096,1606828541379440770,imu_link,-0.07266370207071304,-0.023602541536092758,0.17880365252494812,0.9809139966964722,0.0,0.0,0.0,0.0,0.0,0.0,0.0,0.0,0.0,20.74964141845703,-1.164276123046875,-8.686347007751465,0.0,0.0,0.0,0.0,0.0,0.0,0.0,0.0,0.0,0.01856105774641037,-0.03316628187894821,0.32238078117370605,0.0,0.0,0.0,0.0,0.0,0.0,0.0,0.0,0.0
1606828541401391741,2383097,1606828541379550247,imu_link,-0.07266449183225632,-0.023598264902830124,0.17879325151443481,0.9809159636497498,0.0,0.0,0.0,0.0,0.0,0.0,0.0,0.0,0.0,20.748394012451172,-1.1638710498809814,-8.686335563659668,0.0,0.0,0.0,0.0,0.0,0.0,0.0,0.0,0.0,0.0037457337602972984,-0.03143126517534256,0.3147185444831848,0.0,0.0,0.0,0.0,0.0,0.0,0.0,0.0,0.0
1606828541401419791,2383098,1606828541379641283,imu_link,-0.07266449183225632,-0.023598264902830124,0.17879325151443481,0.9809159636497498,0.0,0.0,0.0,0.0,0.0,0.0,0.0,0.0,0.0,20.748394012451172,-1.1638710498809814,-8.686335563659668,0.0,0.0,0.0,0.0,0.0,0.0,0.0,0.0,0.0,0.0037457337602972984,-0.03143126517534256,0.3147185444831848,0.0,0.0,0.0,0.0,0.0,0.0,0.0,0.0,0.0
1606828541401434651,2383099,1606828541379733876,imu_link,-0.07266542315483093,-0.023600734770298004,0.17879414558410645,0.9809156656265259,0.0,0.0,0.0,0.0,0.0,0.0,0.0,0.0,0.0,20.748523712158203,-1.1641215085983276,-8.686493873596191,0.0,0.0,0.0,0.0,0.0,0.0,0.0,0.0,0.0,0.0011966824531555176,-0.051466118544340134,0.3314034938812256,0.0,0.0,0.0,0.0,0.0,0.0,0.0,0.0,0.0
1606828541401446994,2383100,1606828541379816452,imu_link,-0.07266542315483093,-0.023600734770298004,0.17879414558410645,0.9809156656265259,0.0,0.0,0.0,0.0,0.0,0.0,0.0,0.0,0.0,20.748523712158203,-1.1641215085983276,-8.686493873596191,0.0,0.0,0.0,0.0,0.0,0.0,0.0,0.0,0.0,0.0011966824531555176,-0.051466118544340134,0.3314034938812256,0.0,0.0,0.0,0.0,0.0,0.0,0.0,0.0,0.0
1606828541401472444,2383101,1606828541379920998,imu_link,-0.07266490161418915,-0.02360338158905506,0.17878496646881104,0.9809173345565796,0.0,0.0,0.0,0.0,0.0,0.0,0.0,0.0,0.0,20.747478485107422,-1.164510726928711,-8.686478614807129,0.0,0.0,0.0,0.0,0.0,0.0,0.0,0.0,0.0,0.0020669521763920784,-0.051824163645505905,0.32785332202911377,0.0,0.0,0.0,0.0,0.0,0.0,0.0,0.0,0.0
1606828541427120748,2383102,1606828541380007332,imu_link,-0.07266490161418915,-0.02360338158905506,0.17878496646881104,0.9809173345565796,0.0,0.0,0.0,0.0,0.0,0.0,0.0,0.0,0.0,20.747478485107422,-1.164510726928711,-8.686478614807129,0.0,0.0,0.0,0.0,0.0,0.0,0.0,0.0,0.0,0.0020669521763920784,-0.051824163645505905,0.32785332202911377,0.0,0.0,0.0,0.0,0.0,0.0,0.0,0.0,0.0
1606828541427138285,2383103,1606828541380094624,imu_link,-0.07266360521316528,-0.023605233058333397,0.17878535389900208,0.9809172749519348,0.0,0.0,0.0,0.0,0.0,0.0,0.0,0.0,0.0,20.747541427612305,-1.164742112159729,-8.686370849609375,0.0,0.0,0.0,0.0,0.0,0.0,0.0,0.0,0.0,0.009015962481498718,-0.059239648282527924,0.30607154965400696,0.0,0.0,0.0,0.0,0.0,0.0,0.0,0.0,0.0
1606828541427148044,2383104,1606828541380174513,imu_link,-0.07266360521316528,-0.023605233058333397,0.17878535389900208,0.9809172749519348,0.0,0.0,0.0,0.0,0.0,0.0,0.0,0.0,0.0,20.747541427612305,-1.164742112159729,-8.686370849609375,0.0,0.0,0.0,0.0,0.0,0.0,0.0,0.0,0.0,0.009015962481498718,-0.059239648282527924,0.30607154965400696,0.0,0.0,0.0,0.0,0.0,0.0,0.0,0.0,0.0
1606828541427157343,2383105,1606828541380271698,imu_link,-0.0726613700389862,-0.02360551245510578,0.17878484725952148,0.9809175133705139,0.0,0.0,0.0,0.0,0.0,0.0,0.0,0.0,0.0,20.747480392456055,-1.1648240089416504,-8.686124801635742,0.0,0.0,0.0,0.0,0.0,0.0,0.0,0.0,0.0,0.013577291741967201,-0.06303951889276505,0.3287005126476288,0.0,0.0,0.0,0.0,0.0,0.0,0.0,0.0,0.0
1606828541427172363,2383106,1606828541392912177,imu_link,-0.0726613700389862,-0.02360551245510578,0.17878484725952148,0.9809175133705139,0.0,0.0,0.0,0.0,0.0,0.0,0.0,0.0,0.0,20.747480392456055,-1.1648240089416504,-8.686124801635742,0.0,0.0,0.0,0.0,0.0,0.0,0.0,0.0,0.0,0.013577291741967201,-0.06303951889276505,0.3287005126476288,0.0,0.0,0.0,0.0,0.0,0.0,0.0,0.0,0.0
1606828541431610601,2383107,1606828541393047259,imu_link,-0.07266245782375336,-0.02360801212489605,0.1787852942943573,0.9809172749519348,0.0,0.0,0.0,0.0,0.0,0.0,0.0,0.0,0.0,20.747560501098633,-1.1650785207748413,-8.686300277709961,0.0,0.0,0.0,0.0,0.0,0.0,0.0,0.0,0.0,-0.0029679425060749054,-0.05302828922867775,0.3284030556678772,0.0,0.0,0.0,0.0,0.0,0.0,0.0,0.0,0.0
1606828541431628196,2383108,1606828541393249496,imu_link,-0.07266245782375336,-0.02360801212489605,0.1787852942943573,0.9809172749519348,0.0,0.0,0.0,0.0,0.0,0.0,0.0,0.0,0.0,20.747560501098633,-1.1650785207748413,-8.686300277709961,0.0,0.0,0.0,0.0,0.0,0.0,0.0,0.0,0.0,-0.0029679425060749054,-0.05302828922867775,0.3284030556678772,0.0,0.0,0.0,0.0,0.0,0.0,0.0,0.0,0.0
1606828541431650254,2383109,1606828541393346740,imu_link,-0.07266069203615189,-0.023607896640896797,0.17878350615501404,0.980917751789093,0.0,0.0,0.0,0.0,0.0,0.0,0.0,0.0,0.0,20.747346878051758,-1.165117859840393,-8.686095237731934,0.0,0.0,0.0,0.0,0.0,0.0,0.0,0.0,0.0,-0.005744891241192818,-0.040148667991161346,0.3166166841983795,0.0,0.0,0.0,0.0,0.0,0.0,0.0,0.0,0.0
1606828541431659902,2383110,1606828541393483556,imu_link,-0.07266069203615189,-0.023607896640896797,0.17878350615501404,0.980917751789093,0.0,0.0,0.0,0.0,0.0,0.0,0.0,0.0,0.0,20.747346878051758,-1.165117859840393,-8.686095237731934,0.0,0.0,0.0,0.0,0.0,0.0,0.0,0.0,0.0,-0.005744891241192818,-0.040148667991161346,0.3166166841983795,0.0,0.0,0.0,0.0,0.0,0.0,0.0,0.0,0.0
1606828541435942215,2383111,1606828541393578380,imu_link,-0.07266251742839813,-0.023608284071087837,0.17878282070159912,0.9809176921844482,0.0,0.0,0.0,0.0,0.0,0.0,0.0,0.0,0.0,20.747276306152344,-1.1651294231414795,-8.686309814453125,0.0,0.0,0.0,0.0,0.0,0.0,0.0,0.0,0.0,0.0009132008999586105,-0.03682021051645279,0.32872864603996277,0.0,0.0,0.0,0.0,0.0,0.0,0.0,0.0,0.0
1606828541435960882,2383112,1606828541393730877,imu_link,-0.07266251742839813,-0.023608284071087837,0.17878282070159912,0.9809176921844482,0.0,0.0,0.0,0.0,0.0,0.0,0.0,0.0,0.0,20.747276306152344,-1.1651294231414795,-8.686309814453125,0.0,0.0,0.0,0.0,0.0,0.0,0.0,0.0,0.0,0.0009132008999586105,-0.03682021051645279,0.32872864603996277,0.0,0.0,0.0,0.0,0.0,0.0,0.0,0.0,0.0
1606828541435972954,2383113,1606828541393811277,imu_link,-0.07266338914632797,-0.023611003533005714,0.17878860235214233,0.9809165596961975,0.0,0.0,0.0,0.0,0.0,0.0,0.0,0.0,0.0,20.74797248840332,-1.165366291999817,-8.686471939086914,0.0,0.0,0.0,0.0,0.0,0.0,0.0,0.0,0.0,0.010211666114628315,-0.046945590525865555,0.33877816796302795,0.0,0.0,0.0,0.0,0.0,0.0,0.0,0.0,0.0
1606828541435996218,2383114,1606828541393887533,imu_link,-0.07266338914632797,-0.023611003533005714,0.17878860235214233,0.9809165596961975,0.0,0.0,0.0,0.0,0.0,0.0,0.0,0.0,0.0,20.74797248840332,-1.165366291999817,-8.686471939086914,0.0,0.0,0.0,0.0,0.0,0.0,0.0,0.0,0.0,0.010211666114628315,-0.046945590525865555,0.33877816796302795,0.0,0.0,0.0,0.0,0.0,0.0,0.0,0.0,0.0
1606828541436010495,2383115,1606828541393979922,imu_link,-0.07266410440206528,-0.0236081313341856,0.178789421916008,0.980916440486908,0.0,0.0,0.0,0.0,0.0,0.0,0.0,0.0,0.0,20.748043060302734,-1.1650214195251465,-8.686492919921875,0.0,0.0,0.0,0.0,0.0,0.0,0.0,0.0,0.0,0.0065726288594305515,-0.054239120334386826,0.3265000879764557,0.0,0.0,0.0,0.0,0.0,0.0,0.0,0.0,0.0
1606828541472541790,2383116,1606828541394066301,imu_link,-0.07266410440206528,-0.0236081313341856,0.178789421916008,0.980916440486908,0.0,0.0,0.0,0.0,0.0,0.0,0.0,0.0,0.0,20.748043060302734,-1.1650214195251465,-8.686492919921875,0.0,0.0,0.0,0.0,0.0,0.0,0.0,0.0,0.0,0.0065726288594305515,-0.054239120334386826,0.3265000879764557,0.0,0.0,0.0,0.0,0.0,0.0,0.0,0.0,0.0
1606828541472564478,2383117,1606828541406376830,imu_link,-0.07266335934400558,-0.02360844612121582,0.1787952035665512,0.9809154272079468,0.0,0.0,0.0,0.0,0.0,0.0,0.0,0.0,0.0,20.74871253967285,-1.165021300315857,-8.686422348022461,0.0,0.0,0.0,0.0,0.0,0.0,0.0,0.0,0.0,-0.000660985242575407,-0.056553713977336884,0.29984819889068604,0.0,0.0,0.0,0.0,0.0,0.0,0.0,0.0,0.0
1606828541472578965,2383118,1606828541406522040,imu_link,-0.07266335934400558,-0.02360844612121582,0.1787952035665512,0.9809154272079468,0.0,0.0,0.0,0.0,0.0,0.0,0.0,0.0,0.0,20.74871253967285,-1.165021300315857,-8.686422348022461,0.0,0.0,0.0,0.0,0.0,0.0,0.0,0.0,0.0,-0.000660985242575407,-0.056553713977336884,0.29984819889068604,0.0,0.0,0.0,0.0,0.0,0.0,0.0,0.0,0.0
1606828541472587839,2383119,1606828541406672447,imu_link,-0.0726642906665802,-0.02360861375927925,0.1787971556186676,0.9809150099754333,0.0,0.0,0.0,0.0,0.0,0.0,0.0,0.0,0.0,20.74894142150879,-1.1650036573410034,-8.686532974243164,0.0,0.0,0.0,0.0,0.0,0.0,0.0,0.0,0.0,-7.532117888331413e-05,-0.05397849529981613,0.32364678382873535,0.0,0.0,0.0,0.0,0.0,0.0,0.0,0.0,0.0
1606828541472613741,2383120,1606828541406760916,imu_link,-0.0726642906665802,-0.02360861375927925,0.1787971556186676,0.9809150099754333,0.0,0.0,0.0,0.0,0.0,0.0,0.0,0.0,0.0,20.74894142150879,-1.1650036573410034,-8.686532974243164,0.0,0.0,0.0,0.0,0.0,0.0,0.0,0.0,0.0,-7.532117888331413e-05,-0.05397849529981613,0.32364678382873535,0.0,0.0,0.0,0.0,0.0,0.0,0.0,0.0,0.0
1606828541472629966,2383121,1606828541406841247,imu_link,-0.07266388833522797,-0.023610487580299377,0.17880672216415405,0.9809132218360901,0.0,0.0,0.0,0.0,0.0,0.0,0.0,0.0,0.0,20.750072479248047,-1.1651380062103271,-8.686538696289062,0.0,0.0,0.0,0.0,0.0,0.0,0.0,0.0,0.0,0.01085275411605835,-0.04506450518965721,0.34654033184051514,0.0,0.0,0.0,0.0,0.0,0.0,0.0,0.0,0.0
1606828541472638402,2383122,1606828541406939724,imu_link,-0.07266388833522797,-0.023610487580299377,0.17880672216415405,0.9809132218360901,0.0,0.0,0.0,0.0,0.0,0.0,0.0,0.0,0.0,20.750072479248047,-1.1651380062103271,-8.686538696289062,0.0,0.0,0.0,0.0,0.0,0.0,0.0,0.0,0.0,0.01085275411605835,-0.04506450518965721,0.34654033184051514,0.0,0.0,0.0,0.0,0.0,0.0,0.0,0.0,0.0
1606828541499580514,2383123,1606828541407017965,imu_link,-0.07266378402709961,-0.02361215651035309,0.17880965769290924,0.9809126853942871,0.0,0.0,0.0,0.0,0.0,0.0,0.0,0.0,0.0,20.75042724609375,-1.1653019189834595,-8.686565399169922,0.0,0.0,0.0,0.0,0.0,0.0,0.0,0.0,0.0,-0.004752964247018099,-0.04810088872909546,0.3555702567100525,0.0,0.0,0.0,0.0,0.0,0.0,0.0,0.0,0.0
1606828541499591720,2383124,1606828541407115916,imu_link,-0.07266378402709961,-0.02361215651035309,0.17880965769290924,0.9809126853942871,0.0,0.0,0.0,0.0,0.0,0.0,0.0,0.0,0.0,20.75042724609375,-1.1653019189834595,-8.686565399169922,0.0,0.0,0.0,0.0,0.0,0.0,0.0,0.0,0.0,-0.004752964247018099,-0.04810088872909546,0.3555702567100525,0.0,0.0,0.0,0.0,0.0,0.0,0.0,0.0,0.0
1606828541499618305,2383125,1606828541407193420,imu_link,-0.07266425341367722,-0.023615650832653046,0.17881719768047333,0.9809111952781677,0.0,0.0,0.0,0.0,0.0,0.0,0.0,0.0,0.0,20.7513370513916,-1.1656184196472168,-8.686699867248535,0.0,0.0,0.0,0.0,0.0,0.0,0.0,0.0,0.0,-0.005731178913265467,-0.07122975587844849,0.3643510639667511,0.0,0.0,0.0,0.0,0.0,0.0,0.0,0.0,0.0
1606828541499626707,2383126,1606828541407311572,imu_link,-0.07266425341367722,-0.023615650832653046,0.17881719768047333,0.9809111952781677,0.0,0.0,0.0,0.0,0.0,0.0,0.0,0.0,0.0,20.7513370513916,-1.1656184196472168,-8.686699867248535,0.0,0.0,0.0,0.0,0.0,0.0,0.0,0.0,0.0,-0.005731178913265467,-0.07122975587844849,0.3643510639667511,0.0,0.0,0.0,0.0,0.0,0.0,0.0,0.0,0.0
1606828541522790162,2383127,1606828541407404958,imu_link,-0.07266363501548767,-0.02361447364091873,0.178816020488739,0.9809114336967468,0.0,0.0,0.0,0.0,0.0,0.0,0.0,0.0,0.0,20.751190185546875,-1.1655092239379883,-8.686604499816895,0.0,0.0,0.0,0.0,0.0,0.0,0.0,0.0,0.0,0.029583169147372246,-0.07573718577623367,0.3511710464954376,0.0,0.0,0.0,0.0,0.0,0.0,0.0,0.0,0.0
1606828541522824978,2383128,1606828541419409163,imu_link,-0.07266363501548767,-0.02361447364091873,0.178816020488739,0.9809114336967468,0.0,0.0,0.0,0.0,0.0,0.0,0.0,0.0,0.0,20.751190185546875,-1.1655092239379883,-8.686604499816895,0.0,0.0,0.0,0.0,0.0,0.0,0.0,0.0,0.0,0.029583169147372246,-0.07573718577623367,0.3511710464954376,0.0,0.0,0.0,0.0,0.0,0.0,0.0,0.0,0.0
1606828541522846656,2383129,1606828541419531392,imu_link,-0.07266298681497574,-0.023610472679138184,0.17882485687732697,0.9809099435806274,0.0,0.0,0.0,0.0,0.0,0.0,0.0,0.0,0.0,20.75217628479004,-1.1649949550628662,-8.686457633972168,0.0,0.0,0.0,0.0,0.0,0.0,0.0,0.0,0.0,0.03719030320644379,-0.03260049223899841,0.3633321225643158,0.0,0.0,0.0,0.0,0.0,0.0,0.0,0.0,0.0
1606828541522874423,2383130,1606828541419686282,imu_link,-0.07266298681497574,-0.023610472679138184,0.17882485687732697,0.9809099435806274,0.0,0.0,0.0,0.0,0.0,0.0,0.0,0.0,0.0,20.75217628479004,-1.1649949550628662,-8.686457633972168,0.0,0.0,0.0,0.0,0.0,0.0,0.0,0.0,0.0,0.03719030320644379,-0.03260049223899841,0.3633321225643158,0.0,0.0,0.0,0.0,0.0,0.0,0.0,0.0,0.0
1606828541522881880,2383131,1606828541419763665,imu_link,-0.0726616308093071,-0.02360924705862999,0.17882274091243744,0.9809104800224304,0.0,0.0,0.0,0.0,0.0,0.0,0.0,0.0,0.0,20.75191879272461,-1.1649041175842285,-8.68627643585205,0.0,0.0,0.0,0.0,0.0,0.0,0.0,0.0,0.0,0.013117117807269096,-0.02397182583808899,0.36174219846725464,0.0,0.0,0.0,0.0,0.0,0.0,0.0,0.0,0.0
1606828541522893364,2383132,1606828541419836861,imu_link,-0.0726616308093071,-0.02360924705862999,0.17882274091243744,0.9809104800224304,0.0,0.0,0.0,0.0,0.0,0.0,0.0,0.0,0.0,20.75191879272461,-1.1649041175842285,-8.68627643585205,0.0,0.0,0.0,0.0,0.0,0.0,0.0,0.0,0.0,0.013117117807269096,-0.02397182583808899,0.36174219846725464,0.0,0.0,0.0,0.0,0.0,0.0,0.0,0.0,0.0
1606828541522901653,2383133,1606828541419935498,imu_link,-0.0726655125617981,-0.023609446361660957,0.1788315623998642,0.9809085726737976,0.0,0.0,0.0,0.0,0.0,0.0,0.0,0.0,0.0,20.75295066833496,-1.1647683382034302,-8.68673038482666,0.0,0.0,0.0,0.0,0.0,0.0,0.0,0.0,0.0,-0.0033431993797421455,-0.05491942539811134,0.325031042098999,0.0,0.0,0.0,0.0,0.0,0.0,0.0,0.0,0.0
1606828541522908861,2383134,1606828541420010475,imu_link,-0.0726655125617981,-0.023609446361660957,0.1788315623998642,0.9809085726737976,0.0,0.0,0.0,0.0,0.0,0.0,0.0,0.0,0.0,20.75295066833496,-1.1647683382034302,-8.68673038482666,0.0,0.0,0.0,0.0,0.0,0.0,0.0,0.0,0.0,-0.0033431993797421455,-0.05491942539811134,0.325031042098999,0.0,0.0,0.0,0.0,0.0,0.0,0.0,0.0,0.0
1606828541522949974,2383135,1606828541420151311,imu_link,-0.07266643643379211,-0.023611146956682205,0.17883121967315674,0.9809085130691528,0.0,0.0,0.0,0.0,0.0,0.0,0.0,0.0,0.0,20.752925872802734,-1.1649433374404907,-8.686868667602539,0.0,0.0,0.0,0.0,0.0,0.0,0.0,0.0,0.0,0.023792313411831856,-0.07065315544605255,0.32118120789527893,0.0,0.0,0.0,0.0,0.0,0.0,0.0,0.0,0.0
1606828541522955899,2383136,1606828541420219598,imu_link,-0.07266643643379211,-0.023611146956682205,0.17883121967315674,0.9809085130691528,0.0,0.0,0.0,0.0,0.0,0.0,0.0,0.0,0.0,20.752925872802734,-1.1649433374404907,-8.686868667602539,0.0,0.0,0.0,0.0,0.0,0.0,0.0,0.0,0.0,0.023792313411831856,-0.07065315544605255,0.32118120789527893,0.0,0.0,0.0,0.0,0.0,0.0,0.0,0.0,0.0
1606828541522964684,2383137,1606828541420292477,imu_link,-0.07266415655612946,-0.023605844005942345,0.17883047461509705,0.9809089303016663,0.0,0.0,0.0,0.0,0.0,0.0,0.0,0.0,0.0,20.752790451049805,-1.1644009351730347,-8.68649959564209,0.0,0.0,0.0,0.0,0.0,0.0,0.0,0.0,0.0,0.035862814635038376,-0.06777356564998627,0.33453792333602905,0.0,0.0,0.0,0.0,0.0,0.0,0.0,0.0,0.0
1606828541522982297,2383138,1606828541433097277,imu_link,-0.07266415655612946,-0.023605844005942345,0.17883047461509705,0.9809089303016663,0.0,0.0,0.0,0.0,0.0,0.0,0.0,0.0,0.0,20.752790451049805,-1.1644009351730347,-8.68649959564209,0.0,0.0,0.0,0.0,0.0,0.0,0.0,0.0,0.0,0.035862814635038376,-0.06777356564998627,0.33453792333602905,0.0,0.0,0.0,0.0,0.0,0.0,0.0,0.0,0.0
1606828541522994954,2383139,1606828541433239165,imu_link,-0.07266376912593842,-0.02360401675105095,0.1788298338651657,0.9809091091156006,0.0,0.0,0.0,0.0,0.0,0.0,0.0,0.0,0.0,20.752696990966797,-1.1642093658447266,-8.686417579650879,0.0,0.0,0.0,0.0,0.0,0.0,0.0,0.0,0.0,0.023157786577939987,-0.0592413954436779,0.3219422996044159,0.0,0.0,0.0,0.0,0.0,0.0,0.0,0.0,0.0
1606828541523000653,2383140,1606828541433429178,imu_link,-0.07266376912593842,-0.02360401675105095,0.1788298338651657,0.9809091091156006,0.0,0.0,0.0,0.0,0.0,0.0,0.0,0.0,0.0,20.752696990966797,-1.1642093658447266,-8.686417579650879,0.0,0.0,0.0,0.0,0.0,0.0,0.0,0.0,0.0,0.023157786577939987,-0.0592413954436779,0.3219422996044159,0.0,0.0,0.0,0.0,0.0,0.0,0.0,0.0,0.0
1606828541524050900,2383141,1606828541433545832,imu_link,-0.07266245037317276,-0.023601720109581947,0.17882540822029114,0.9809101223945618,0.0,0.0,0.0,0.0,0.0,0.0,0.0,0.0,0.0,20.75216293334961,-1.1640177965164185,-8.686214447021484,0.0,0.0,0.0,0.0,0.0,0.0,0.0,0.0,0.0,0.01612836681306362,-0.052803121507167816,0.3234390914440155,0.0,0.0,0.0,0.0,0.0,0.0,0.0,0.0,0.0
1606828541524071991,2383142,1606828541433639799,imu_link,-0.07266245037317276,-0.023601720109581947,0.17882540822029114,0.9809101223945618,0.0,0.0,0.0,0.0,0.0,0.0,0.0,0.0,0.0,20.75216293334961,-1.1640177965164185,-8.686214447021484,0.0,0.0,0.0,0.0,0.0,0.0,0.0,0.0,0.0,0.01612836681306362,-0.052803121507167816,0.3234390914440155,0.0,0.0,0.0,0.0,0.0,0.0,0.0,0.0,0.0
1606828541524085410,2383143,1606828541433722826,imu_link,-0.07266370952129364,-0.023603195324540138,0.17882601916790009,0.9809098839759827,0.0,0.0,0.0,0.0,0.0,0.0,0.0,0.0,0.0,20.752246856689453,-1.1641522645950317,-8.686388969421387,0.0,0.0,0.0,0.0,0.0,0.0,0.0,0.0,0.0,-0.007111870218068361,-0.0252179354429245,0.3033873438835144,0.0,0.0,0.0,0.0,0.0,0.0,0.0,0.0,0.0
1606828541524101091,2383144,1606828541433825864,imu_link,-0.07266370952129364,-0.023603195324540138,0.17882601916790009,0.9809098839759827,0.0,0.0,0.0,0.0,0.0,0.0,0.0,0.0,0.0,20.752246856689453,-1.1641522645950317,-8.686388969421387,0.0,0.0,0.0,0.0,0.0,0.0,0.0,0.0,0.0,-0.007111870218068361,-0.0252179354429245,0.3033873438835144,0.0,0.0,0.0,0.0,0.0,0.0,0.0,0.0,0.0
1606828541524135971,2383145,1606828541433908966,imu_link,-0.07266496866941452,-0.02360566519200802,0.17881618440151215,0.9809115529060364,0.0,0.0,0.0,0.0,0.0,0.0,0.0,0.0,0.0,20.751127243041992,-1.1644903421401978,-8.68657112121582,0.0,0.0,0.0,0.0,0.0,0.0,0.0,0.0,0.0,-0.030082276090979576,-0.03310137614607811,0.29333406686782837,0.0,0.0,0.0,0.0,0.0,0.0,0.0,0.0,0.0
1606828541524154160,2383146,1606828541433985532,imu_link,-0.07266496866941452,-0.02360566519200802,0.17881618440151215,0.9809115529060364,0.0,0.0,0.0,0.0,0.0,0.0,0.0,0.0,0.0,20.751127243041992,-1.1644903421401978,-8.68657112121582,0.0,0.0,0.0,0.0,0.0,0.0,0.0,0.0,0.0,-0.030082276090979576,-0.03310137614607811,0.29333406686782837,0.0,0.0,0.0,0.0,0.0,0.0,0.0,0.0,0.0
1606828541524170340,2383147,1606828541434066730,imu_link,-0.07266576588153839,-0.023606516420841217,0.17881591618061066,0.9809114933013916,0.0,0.0,0.0,0.0,0.0,0.0,0.0,0.0,0.0,20.751108169555664,-1.1645718812942505,-8.686678886413574,0.0,0.0,0.0,0.0,0.0,0.0,0.0,0.0,0.0,-0.008828666061162949,-0.05157405138015747,0.3257032036781311,0.0,0.0,0.0,0.0,0.0,0.0,0.0,0.0,0.0
1606828541524184423,2383148,1606828541434153289,imu_link,-0.07266576588153839,-0.023606516420841217,0.17881591618061066,0.9809114933013916,0.0,0.0,0.0,0.0,0.0,0.0,0.0,0.0,0.0,20.751108169555664,-1.1645718812942505,-8.686678886413574,0.0,0.0,0.0,0.0,0.0,0.0,0.0,0.0,0.0,-0.008828666061162949,-0.05157405138015747,0.3257032036781311,0.0,0.0,0.0,0.0,0.0,0.0,0.0,0.0,0.0
1606828541524194544,2383149,1606828541446382925,imu_link,-0.07266546040773392,-0.02360677719116211,0.1788070946931839,0.9809131622314453,0.0,0.0,0.0,0.0,0.0,0.0,0.0,0.0,0.0,20.75008201599121,-1.1646853685379028,-8.686638832092285,0.0,0.0,0.0,0.0,0.0,0.0,0.0,0.0,0.0,0.00746941426768899,-0.04359085485339165,0.3124707043170929,0.0,0.0,0.0,0.0,0.0,0.0,0.0,0.0,0.0
1606828541524245591,2383150,1606828541446474372,imu_link,-0.07266546040773392,-0.02360677719116211,0.1788070946931839,0.9809131622314453,0.0,0.0,0.0,0.0,0.0,0.0,0.0,0.0,0.0,20.75008201599121,-1.1646853685379028,-8.686638832092285,0.0,0.0,0.0,0.0,0.0,0.0,0.0,0.0,0.0,0.00746941426768899,-0.04359085485339165,0.3124707043170929,0.0,0.0,0.0,0.0,0.0,0.0,0.0,0.0,0.0
1606828541524265802,2383151,1606828541446599799,imu_link,-0.07266631722450256,-0.02360674925148487,0.1788085550069809,0.9809128046035767,0.0,0.0,0.0,0.0,0.0,0.0,0.0,0.0,0.0,20.750255584716797,-1.16465163230896,-8.686737060546875,0.0,0.0,0.0,0.0,0.0,0.0,0.0,0.0,0.0,0.007917140610516071,-0.0679398775100708,0.3047831356525421,0.0,0.0,0.0,0.0,0.0,0.0,0.0,0.0,0.0
1606828541524339284,2383152,1606828541446662797,imu_link,-0.07266631722450256,-0.02360674925148487,0.1788085550069809,0.9809128046035767,0.0,0.0,0.0,0.0,0.0,0.0,0.0,0.0,0.0,20.750255584716797,-1.16465163230896,-8.686737060546875,0.0,0.0,0.0,0.0,0.0,0.0,0.0,0.0,0.0,0.007917140610516071,-0.0679398775100708,0.3047831356525421,0.0,0.0,0.0,0.0,0.0,0.0,0.0,0.0,0.0
1606828541524373683,2383153,1606828541446755324,imu_link,-0.07266440242528915,-0.023605933412909508,0.17880745232105255,0.9809131622314453,0.0,0.0,0.0,0.0,0.0,0.0,0.0,0.0,0.0,20.75011444091797,-1.1646091938018799,-8.686502456665039,0.0,0.0,0.0,0.0,0.0,0.0,0.0,0.0,0.0,-0.003902754746377468,-0.07322653383016586,0.30695804953575134,0.0,0.0,0.0,0.0,0.0,0.0,0.0,0.0,0.0
1606828541524396418,2383154,1606828541446814812,imu_link,-0.07266440242528915,-0.023605933412909508,0.17880745232105255,0.9809131622314453,0.0,0.0,0.0,0.0,0.0,0.0,0.0,0.0,0.0,20.75011444091797,-1.1646091938018799,-8.686502456665039,0.0,0.0,0.0,0.0,0.0,0.0,0.0,0.0,0.0,-0.003902754746377468,-0.07322653383016586,0.30695804953575134,0.0,0.0,0.0,0.0,0.0,0.0,0.0,0.0,0.0
1606828541524403956,2383155,1606828541446877065,imu_link,-0.07266547530889511,-0.023605912923812866,0.17880921065807343,0.9809128046035767,0.0,0.0,0.0,0.0,0.0,0.0,0.0,0.0,0.0,20.750320434570312,-1.16456937789917,-8.686624526977539,0.0,0.0,0.0,0.0,0.0,0.0,0.0,0.0,0.0,0.002971302717924118,-0.04930631071329117,0.3134876787662506,0.0,0.0,0.0,0.0,0.0,0.0,0.0,0.0,0.0
1606828541524420671,2383156,1606828541446931437,imu_link,-0.07266547530889511,-0.023605912923812866,0.17880921065807343,0.9809128046035767,0.0,0.0,0.0,0.0,0.0,0.0,0.0,0.0,0.0,20.750320434570312,-1.16456937789917,-8.686624526977539,0.0,0.0,0.0,0.0,0.0,0.0,0.0,0.0,0.0,0.002971302717924118,-0.04930631071329117,0.3134876787662506,0.0,0.0,0.0,0.0,0.0,0.0,0.0,0.0,0.0
1606828541524429982,2383157,1606828541447039691,imu_link,-0.07266634702682495,-0.023609336465597153,0.17880718410015106,0.9809129238128662,0.0,0.0,0.0,0.0,0.0,0.0,0.0,0.0,0.0,20.750118255615234,-1.164953589439392,-8.68679428100586,0.0,0.0,0.0,0.0,0.0,0.0,0.0,0.0,0.0,0.017148351296782494,-0.06037236005067825,0.33405011892318726,0.0,0.0,0.0,0.0,0.0,0.0,0.0,0.0,0.0
1606828541524445783,2383158,1606828541447096031,imu_link,-0.07266634702682495,-0.023609336465597153,0.17880718410015106,0.9809129238128662,0.0,0.0,0.0,0.0,0.0,0.0,0.0,0.0,0.0,20.750118255615234,-1.164953589439392,-8.68679428100586,0.0,0.0,0.0,0.0,0.0,0.0,0.0,0.0,0.0,0.017148351296782494,-0.06037236005067825,0.33405011892318726,0.0,0.0,0.0,0.0,0.0,0.0,0.0,0.0,0.0
1606828541525197471,2383159,1606828541447153256,imu_link,-0.0726676806807518,-0.023609932512044907,0.17880907654762268,0.9809125661849976,0.0,0.0,0.0,0.0,0.0,0.0,0.0,0.0,0.0,20.750343322753906,-1.1649764776229858,-8.686957359313965,0.0,0.0,0.0,0.0,0.0,0.0,0.0,0.0,0.0,0.0050057293847203255,-0.0649891048669815,0.3237839937210083,0.0,0.0,0.0,0.0,0.0,0.0,0.0,0.0,0.0
1606828541525212986,2383160,1606828541460467248,imu_link,-0.0726676806807518,-0.023609932512044907,0.17880907654762268,0.9809125661849976,0.0,0.0,0.0,0.0,0.0,0.0,0.0,0.0,0.0,20.750343322753906,-1.1649764776229858,-8.686957359313965,0.0,0.0,0.0,0.0,0.0,0.0,0.0,0.0,0.0,0.0050057293847203255,-0.0649891048669815,0.3237839937210083,0.0,0.0,0.0,0.0,0.0,0.0,0.0,0.0,0.0
1606828541525233559,2383161,1606828541460627885,imu_link,-0.07266749441623688,-0.023610401898622513,0.17881254851818085,0.980911910533905,0.0,0.0,0.0,0.0,0.0,0.0,0.0,0.0,0.0,20.750749588012695,-1.1650023460388184,-8.68695068359375,0.0,0.0,0.0,0.0,0.0,0.0,0.0,0.0,0.0,0.00130871357396245,-0.04914744943380356,0.31710097193717957,0.0,0.0,0.0,0.0,0.0,0.0,0.0,0.0,0.0
1606828541525261414,2383162,1606828541460771546,imu_link,-0.07266749441623688,-0.023610401898622513,0.17881254851818085,0.980911910533905,0.0,0.0,0.0,0.0,0.0,0.0,0.0,0.0,0.0,20.750749588012695,-1.1650023460388184,-8.68695068359375,0.0,0.0,0.0,0.0,0.0,0.0,0.0,0.0,0.0,0.00130871357396245,-0.04914744943380356,0.31710097193717957,0.0,0.0,0.0,0.0,0.0,0.0,0.0,0.0,0.0
1606828541525289236,2383163,1606828541461182566,imu_link,-0.07266616076231003,-0.023609086871147156,0.17881259322166443,0.9809120297431946,0.0,0.0,0.0,0.0,0.0,0.0,0.0,0.0,0.0,20.750743865966797,-1.1648818254470825,-8.686772346496582,0.0,0.0,0.0,0.0,0.0,0.0,0.0,0.0,0.0,0.014043344184756279,-0.04396713525056839,0.3468102812767029,0.0,0.0,0.0,0.0,0.0,0.0,0.0,0.0,0.0
1606828541525305019,2383164,1606828541461321801,imu_link,-0.07266616076231003,-0.023609086871147156,0.17881259322166443,0.9809120297431946,0.0,0.0,0.0,0.0,0.0,0.0,0.0,0.0,0.0,20.750743865966797,-1.1648818254470825,-8.686772346496582,0.0,0.0,0.0,0.0,0.0,0.0,0.0,0.0,0.0,0.014043344184756279,-0.04396713525056839,0.3468102812767029,0.0,0.0,0.0,0.0,0.0,0.0,0.0,0.0,0.0
1606828541525326301,2383165,1606828541461451074,imu_link,-0.07266771048307419,-0.023608509451150894,0.17881691455841064,0.980911135673523,0.0,0.0,0.0,0.0,0.0,0.0,0.0,0.0,0.0,20.75124168395996,-1.164746880531311,-8.686942100524902,0.0,0.0,0.0,0.0,0.0,0.0,0.0,0.0,0.0,0.011590177193284035,-0.05192163959145546,0.3438728451728821,0.0,0.0,0.0,0.0,0.0,0.0,0.0,0.0,0.0
1606828541525401433,2383166,1606828541461608838,imu_link,-0.07266771048307419,-0.023608509451150894,0.17881691455841064,0.980911135673523,0.0,0.0,0.0,0.0,0.0,0.0,0.0,0.0,0.0,20.75124168395996,-1.164746880531311,-8.686942100524902,0.0,0.0,0.0,0.0,0.0,0.0,0.0,0.0,0.0,0.011590177193284035,-0.05192163959145546,0.3438728451728821,0.0,0.0,0.0,0.0,0.0,0.0,0.0,0.0,0.0
1606828541525424584,2383167,1606828541461739192,imu_link,-0.07266910374164581,-0.023607250303030014,0.1788167655467987,0.9809110760688782,0.0,0.0,0.0,0.0,0.0,0.0,0.0,0.0,0.0,20.75121307373047,-1.1645777225494385,-8.687071800231934,0.0,0.0,0.0,0.0,0.0,0.0,0.0,0.0,0.0,0.0008031195029616356,-0.05567142367362976,0.3300781846046448,0.0,0.0,0.0,0.0,0.0,0.0,0.0,0.0,0.0
1606828541525442275,2383168,1606828541461863221,imu_link,-0.07266910374164581,-0.023607250303030014,0.1788167655467987,0.9809110760688782,0.0,0.0,0.0,0.0,0.0,0.0,0.0,0.0,0.0,20.75121307373047,-1.1645777225494385,-8.687071800231934,0.0,0.0,0.0,0.0,0.0,0.0,0.0,0.0,0.0,0.0008031195029616356,-0.05567142367362976,0.3300781846046448,0.0,0.0,0.0,0.0,0.0,0.0,0.0,0.0,0.0
1606828541525511612,2383169,1606828541461979462,imu_link,-0.0726684182882309,-0.023610416799783707,0.17882466316223145,0.9809095859527588,0.0,0.0,0.0,0.0,0.0,0.0,0.0,0.0,0.0,20.752161026000977,-1.1648781299591064,-8.687070846557617,0.0,0.0,0.0,0.0,0.0,0.0,0.0,0.0,0.0,0.016136368736624718,-0.050831492990255356,0.32899409532546997,0.0,0.0,0.0,0.0,0.0,0.0,0.0,0.0,0.0
1606828541525526397,2383170,1606828541462055861,imu_link,-0.0726684182882309,-0.023610416799783707,0.17882466316223145,0.9809095859527588,0.0,0.0,0.0,0.0,0.0,0.0,0.0,0.0,0.0,20.752161026000977,-1.1648781299591064,-8.687070846557617,0.0,0.0,0.0,0.0,0.0,0.0,0.0,0.0,0.0,0.016136368736624718,-0.050831492990255356,0.32899409532546997,0.0,0.0,0.0,0.0,0.0,0.0,0.0,0.0,0.0
1606828541525536008,2383171,1606828541473960598,imu_link,-0.07266893982887268,-0.023609094321727753,0.17882099747657776,0.9809102416038513,0.0,0.0,0.0,0.0,0.0,0.0,0.0,0.0,0.0,20.751724243164062,-1.1647510528564453,-8.687098503112793,0.0,0.0,0.0,0.0,0.0,0.0,0.0,0.0,0.0,0.027018649503588676,-0.06007187440991402,0.31573188304901123,0.0,0.0,0.0,0.0,0.0,0.0,0.0,0.0,0.0
1606828541526192624,2383172,1606828541474072533,imu_link,-0.07266893982887268,-0.023609094321727753,0.17882099747657776,0.9809102416038513,0.0,0.0,0.0,0.0,0.0,0.0,0.0,0.0,0.0,20.751724243164062,-1.1647510528564453,-8.687098503112793,0.0,0.0,0.0,0.0,0.0,0.0,0.0,0.0,0.0,0.027018649503588676,-0.06007187440991402,0.31573188304901123,0.0,0.0,0.0,0.0,0.0,0.0,0.0,0.0,0.0
1606828541526224541,2383173,1606828541474226905,imu_link,-0.07266778498888016,-0.023603256791830063,0.17883089184761047,0.9809086918830872,0.0,0.0,0.0,0.0,0.0,0.0,0.0,0.0,0.0,20.75282096862793,-1.164031744003296,-8.686856269836426,0.0,0.0,0.0,0.0,0.0,0.0,0.0,0.0,0.0,0.021716013550758362,-0.062141336500644684,0.3167659342288971,0.0,0.0,0.0,0.0,0.0,0.0,0.0,0.0,0.0
1606828541526249585,2383174,1606828541474299404,imu_link,-0.07266778498888016,-0.023603256791830063,0.17883089184761047,0.9809086918830872,0.0,0.0,0.0,0.0,0.0,0.0,0.0,0.0,0.0,20.75282096862793,-1.164031744003296,-8.686856269836426,0.0,0.0,0.0,0.0,0.0,0.0,0.0,0.0,0.0,0.021716013550758362,-0.062141336500644684,0.3167659342288971,0.0,0.0,0.0,0.0,0.0,0.0,0.0,0.0,0.0
1606828541526268709,2383175,1606828541474369646,imu_link,-0.0726674273610115,-0.02360398694872856,0.17883126437664032,0.9809086322784424,0.0,0.0,0.0,0.0,0.0,0.0,0.0,0.0,0.0,20.752866744995117,-1.1641179323196411,-8.686832427978516,0.0,0.0,0.0,0.0,0.0,0.0,0.0,0.0,0.0,0.005932662170380354,-0.04711250215768814,0.30509480834007263,0.0,0.0,0.0,0.0,0.0,0.0,0.0,0.0,0.0
1606828541526281749,2383176,1606828541474448998,imu_link,-0.0726674273610115,-0.02360398694872856,0.17883126437664032,0.9809086322784424,0.0,0.0,0.0,0.0,0.0,0.0,0.0,0.0,0.0,20.752866744995117,-1.1641179323196411,-8.686832427978516,0.0,0.0,0.0,0.0,0.0,0.0,0.0,0.0,0.0,0.005932662170380354,-0.04711250215768814,0.30509480834007263,0.0,0.0,0.0,0.0,0.0,0.0,0.0,0.0,0.0
1606828541526316707,2383177,1606828541474515575,imu_link,-0.0726686492562294,-0.02360662817955017,0.17883552610874176,0.980907678604126,0.0,0.0,0.0,0.0,0.0,0.0,0.0,0.0,0.0,20.753387451171875,-1.1643517017364502,-8.687029838562012,0.0,0.0,0.0,0.0,0.0,0.0,0.0,0.0,0.0,-0.0026739886961877346,-0.029893141239881516,0.2979242503643036,0.0,0.0,0.0,0.0,0.0,0.0,0.0,0.0,0.0
1606828541526346300,2383178,1606828541474581090,imu_link,-0.0726686492562294,-0.02360662817955017,0.17883552610874176,0.980907678604126,0.0,0.0,0.0,0.0,0.0,0.0,0.0,0.0,0.0,20.753387451171875,-1.1643517017364502,-8.687029838562012,0.0,0.0,0.0,0.0,0.0,0.0,0.0,0.0,0.0,-0.0026739886961877346,-0.029893141239881516,0.2979242503643036,0.0,0.0,0.0,0.0,0.0,0.0,0.0,0.0,0.0
1606828541526359176,2383179,1606828541474639645,imu_link,-0.072670578956604,-0.02360641583800316,0.17883579432964325,0.9809074997901917,0.0,0.0,0.0,0.0,0.0,0.0,0.0,0.0,0.0,20.753419876098633,-1.1642855405807495,-8.687244415283203,0.0,0.0,0.0,0.0,0.0,0.0,0.0,0.0,0.0,-0.008232291787862778,-0.033613596111536026,0.310833603143692,0.0,0.0,0.0,0.0,0.0,0.0,0.0,0.0,0.0
1606828541526366951,2383180,1606828541474711700,imu_link,-0.072670578956604,-0.02360641583800316,0.17883579432964325,0.9809074997901917,0.0,0.0,0.0,0.0,0.0,0.0,0.0,0.0,0.0,20.753419876098633,-1.1642855405807495,-8.687244415283203,0.0,0.0,0.0,0.0,0.0,0.0,0.0,0.0,0.0,-0.008232291787862778,-0.033613596111536026,0.310833603143692,0.0,0.0,0.0,0.0,0.0,0.0,0.0,0.0,0.0
1606828541526416998,2383181,1606828541474776405,imu_link,-0.07267212867736816,-0.02360968291759491,0.17884241044521332,0.9809061288833618,0.0,0.0,0.0,0.0,0.0,0.0,0.0,0.0,0.0,20.75421905517578,-1.1645621061325073,-8.687495231628418,0.0,0.0,0.0,0.0,0.0,0.0,0.0,0.0,0.0,-0.004290790297091007,-0.054023757576942444,0.356659859418869,0.0,0.0,0.0,0.0,0.0,0.0,0.0,0.0,0.0
1606828541526431908,2383182,1606828541486718686,imu_link,-0.07267212867736816,-0.02360968291759491,0.17884241044521332,0.9809061288833618,0.0,0.0,0.0,0.0,0.0,0.0,0.0,0.0,0.0,20.75421905517578,-1.1645621061325073,-8.687495231628418,0.0,0.0,0.0,0.0,0.0,0.0,0.0,0.0,0.0,-0.004290790297091007,-0.054023757576942444,0.356659859418869,0.0,0.0,0.0,0.0,0.0,0.0,0.0,0.0,0.0
1606828541526541195,2383183,1606828541486839869,imu_link,-0.0726725310087204,-0.02361004427075386,0.17884160578250885,0.9809061884880066,0.0,0.0,0.0,0.0,0.0,0.0,0.0,0.0,0.0,20.754131317138672,-1.1646015644073486,-8.68754768371582,0.0,0.0,0.0,0.0,0.0,0.0,0.0,0.0,0.0,0.012162860482931137,-0.048876773566007614,0.36733728647232056,0.0,0.0,0.0,0.0,0.0,0.0,0.0,0.0,0.0
1606828541526565240,2383184,1606828541486989494,imu_link,-0.0726725310087204,-0.02361004427075386,0.17884160578250885,0.9809061884880066,0.0,0.0,0.0,0.0,0.0,0.0,0.0,0.0,0.0,20.754131317138672,-1.1646015644073486,-8.68754768371582,0.0,0.0,0.0,0.0,0.0,0.0,0.0,0.0,0.0,0.012162860482931137,-0.048876773566007614,0.36733728647232056,0.0,0.0,0.0,0.0,0.0,0.0,0.0,0.0,0.0
1606828541526572539,2383185,1606828541487068698,imu_link,-0.07267337292432785,-0.02360672317445278,0.1788342446088791,0.9809075593948364,0.0,0.0,0.0,0.0,0.0,0.0,0.0,0.0,0.0,20.753246307373047,-1.1642760038375854,-8.687564849853516,0.0,0.0,0.0,0.0,0.0,0.0,0.0,0.0,0.0,0.012491192668676376,-0.0403023399412632,0.35129880905151367,0.0,0.0,0.0,0.0,0.0,0.0,0.0,0.0,0.0
1606828541796376178,2383186,1606828541487146602,imu_link,-0.07267337292432785,-0.02360672317445278,0.1788342446088791,0.9809075593948364,0.0,0.0,0.0,0.0,0.0,0.0,0.0,0.0,0.0,20.753246307373047,-1.1642760038375854,-8.687564849853516,0.0,0.0,0.0,0.0,0.0,0.0,0.0,0.0,0.0,0.012491192668676376,-0.0403023399412632,0.35129880905151367,0.0,0.0,0.0,0.0,0.0,0.0,0.0,0.0,0.0
1606828541796411283,2383187,1606828541487239266,imu_link,-0.07267289608716965,-0.023606525734066963,0.17883430421352386,0.9809076189994812,0.0,0.0,0.0,0.0,0.0,0.0,0.0,0.0,0.0,20.75324821472168,-1.1642632484436035,-8.687505722045898,0.0,0.0,0.0,0.0,0.0,0.0,0.0,0.0,0.0,0.008437888696789742,-0.04086354374885559,0.34482163190841675,0.0,0.0,0.0,0.0,0.0,0.0,0.0,0.0,0.0
1606828541796425333,2383188,1606828541487355035,imu_link,-0.07267289608716965,-0.023606525734066963,0.17883430421352386,0.9809076189994812,0.0,0.0,0.0,0.0,0.0,0.0,0.0,0.0,0.0,20.75324821472168,-1.1642632484436035,-8.687505722045898,0.0,0.0,0.0,0.0,0.0,0.0,0.0,0.0,0.0,0.008437888696789742,-0.04086354374885559,0.34482163190841675,0.0,0.0,0.0,0.0,0.0,0.0,0.0,0.0,0.0
1606828541796439270,2383189,1606828541487435629,imu_link,-0.07267510145902634,-0.02360623888671398,0.1788284182548523,0.9809085130691528,0.0,0.0,0.0,0.0,0.0,0.0,0.0,0.0,0.0,20.752567291259766,-1.164237141609192,-8.687743186950684,0.0,0.0,0.0,0.0,0.0,0.0,0.0,0.0,0.0,0.015169084072113037,-0.0554303340613842,0.3306455612182617,0.0,0.0,0.0,0.0,0.0,0.0,0.0,0.0,0.0
1606828541832569092,2383190,1606828541487509783,imu_link,-0.07267510145902634,-0.02360623888671398,0.1788284182548523,0.9809085130691528,0.0,0.0,0.0,0.0,0.0,0.0,0.0,0.0,0.0,20.752567291259766,-1.164237141609192,-8.687743186950684,0.0,0.0,0.0,0.0,0.0,0.0,0.0,0.0,0.0,0.015169084072113037,-0.0554303340613842,0.3306455612182617,0.0,0.0,0.0,0.0,0.0,0.0,0.0,0.0,0.0
1606828541832591544,2383191,1606828541487574934,imu_link,-0.07267366349697113,-0.023605413734912872,0.17882944643497467,0.9809084534645081,0.0,0.0,0.0,0.0,0.0,0.0,0.0,0.0,0.0,20.752676010131836,-1.1641652584075928,-8.687564849853516,0.0,0.0,0.0,0.0,0.0,0.0,0.0,0.0,0.0,0.023992259055376053,-0.06583470106124878,0.30493226647377014,0.0,0.0,0.0,0.0,0.0,0.0,0.0,0.0,0.0
1606828541832615103,2383192,1606828541500602884,imu_link,-0.07267366349697113,-0.023605413734912872,0.17882944643497467,0.9809084534645081,0.0,0.0,0.0,0.0,0.0,0.0,0.0,0.0,0.0,20.752676010131836,-1.1641652584075928,-8.687564849853516,0.0,0.0,0.0,0.0,0.0,0.0,0.0,0.0,0.0,0.023992259055376053,-0.06583470106124878,0.30493226647377014,0.0,0.0,0.0,0.0,0.0,0.0,0.0,0.0,0.0
1606828541832637410,2383193,1606828541500760809,imu_link,-0.07267307490110397,-0.023600874468684196,0.1788204163312912,0.9809103012084961,0.0,0.0,0.0,0.0,0.0,0.0,0.0,0.0,0.0,20.751583099365234,-1.1637471914291382,-8.687393188476562,0.0,0.0,0.0,0.0,0.0,0.0,0.0,0.0,0.0,0.02460631914436817,-0.05496692284941673,0.31088986992836,0.0,0.0,0.0,0.0,0.0,0.0,0.0,0.0,0.0
