%time,field.header.seq,field.header.stamp,field.header.frame_id,field.orientation.x,field.orientation.y,field.orientation.z,field.orientation.w,field.orientation_covariance0,field.orientation_covariance1,field.orientation_covariance2,field.orientation_covariance3,field.orientation_covariance4,field.orientation_covariance5,field.orientation_covariance6,field.orientation_covariance7,field.orientation_covariance8,field.angular_velocity.x,field.angular_velocity.y,field.angular_velocity.z,field.angular_velocity_covariance0,field.angular_velocity_covariance1,field.angular_velocity_covariance2,field.angular_velocity_covariance3,field.angular_velocity_covariance4,field.angular_velocity_covariance5,field.angular_velocity_covariance6,field.angular_velocity_covariance7,field.angular_velocity_covariance8,field.linear_acceleration.x,field.linear_acceleration.y,field.linear_acceleration.z,field.linear_acceleration_covariance0,field.linear_acceleration_covariance1,field.linear_acceleration_covariance2,field.linear_acceleration_covariance3,field.linear_acceleration_covariance4,field.linear_acceleration_covariance5,field.linear_acceleration_covariance6,field.linear_acceleration_covariance7,field.linear_acceleration_covariance8
1606827283428719320,1376735,1606827283418384342,imu_link,0.08022047579288483,0.0018479716964066029,0.05518243461847305,0.9952468276023865,0.0,0.0,0.0,0.0,0.0,0.0,0.0,0.0,0.0,6.323284149169922,-0.2965153455734253,9.200188636779785,0.0,0.0,0.0,0.0,0.0,0.0,0.0,0.0,0.0,-0.00603108573704958,0.06204277276992798,0.32565370202064514,0.0,0.0,0.0,0.0,0.0,0.0,0.0,0.0,0.0
1606827283428747893,1376736,1606827283418509240,imu_link,0.08022047579288483,0.0018479716964066029,0.05518243461847305,0.9952468276023865,0.0,0.0,0.0,0.0,0.0,0.0,0.0,0.0,0.0,6.323284149169922,-0.2965153455734253,9.200188636779785,0.0,0.0,0.0,0.0,0.0,0.0,0.0,0.0,0.0,-0.00603108573704958,0.06204277276992798,0.32565370202064514,0.0,0.0,0.0,0.0,0.0,0.0,0.0,0.0,0.0
1606827283428762767,1376737,1606827283418593976,imu_link,0.08021973818540573,0.0018458610866218805,0.05518133565783501,0.995246946811676,0.0,0.0,0.0,0.0,0.0,0.0,0.0,0.0,0.0,6.323139190673828,-0.296741247177124,9.200090408325195,0.0,0.0,0.0,0.0,0.0,0.0,0.0,0.0,0.0,-0.002573747653514147,0.03668276220560074,0.353251576423645,0.0,0.0,0.0,0.0,0.0,0.0,0.0,0.0,0.0
1606827283428773505,1376738,1606827283418669650,imu_link,0.08021973818540573,0.0018458610866218805,0.05518133565783501,0.995246946811676,0.0,0.0,0.0,0.0,0.0,0.0,0.0,0.0,0.0,6.323139190673828,-0.296741247177124,9.200090408325195,0.0,0.0,0.0,0.0,0.0,0.0,0.0,0.0,0.0,-0.002573747653514147,0.03668276220560074,0.353251576423645,0.0,0.0,0.0,0.0,0.0,0.0,0.0,0.0,0.0
1606827283429450518,1376739,1606827283418765411,imu_link,0.0802188366651535,0.001845482038334012,0.055182263255119324,0.995246946811676,0.0,0.0,0.0,0.0,0.0,0.0,0.0,0.0,0.0,6.323242664337158,-0.2967873215675354,9.199983596801758,0.0,0.0,0.0,0.0,0.0,0.0,0.0,0.0,0.0,-0.007873163558542728,0.05544118583202362,0.32473084330558777,0.0,0.0,0.0,0.0,0.0,0.0,0.0,0.0,0.0
1606827283429476971,1376740,1606827283418843522,imu_link,0.0802188366651535,0.001845482038334012,0.055182263255119324,0.995246946811676,0.0,0.0,0.0,0.0,0.0,0.0,0.0,0.0,0.0,6.323242664337158,-0.2967873215675354,9.199983596801758,0.0,0.0,0.0,0.0,0.0,0.0,0.0,0.0,0.0,-0.007873163558542728,0.05544118583202362,0.32473084330558777,0.0,0.0,0.0,0.0,0.0,0.0,0.0,0.0,0.0
1606827283429490889,1376741,1606827283418918550,imu_link,0.08021722733974457,0.0018448937917128205,0.05518633872270584,0.9952468276023865,0.0,0.0,0.0,0.0,0.0,0.0,0.0,0.0,0.0,6.323703765869141,-0.2968817353248596,9.19979476928711,0.0,0.0,0.0,0.0,0.0,0.0,0.0,0.0,0.0,-0.014306173659861088,0.08217034488916397,0.3038550913333893,0.0,0.0,0.0,0.0,0.0,0.0,0.0,0.0,0.0
1606827283429525624,1376742,1606827283419045297,imu_link,0.08021722733974457,0.0018448937917128205,0.05518633872270584,0.9952468276023865,0.0,0.0,0.0,0.0,0.0,0.0,0.0,0.0,0.0,6.323703765869141,-0.2968817353248596,9.19979476928711,0.0,0.0,0.0,0.0,0.0,0.0,0.0,0.0,0.0,-0.014306173659861088,0.08217034488916397,0.3038550913333893,0.0,0.0,0.0,0.0,0.0,0.0,0.0,0.0,0.0
1606827283429663374,1376743,1606827283419131516,imu_link,0.08021734654903412,0.0018454642267897725,0.05518592894077301,0.9952468872070312,0.0,0.0,0.0,0.0,0.0,0.0,0.0,0.0,0.0,6.323662281036377,-0.29681363701820374,9.199810981750488,0.0,0.0,0.0,0.0,0.0,0.0,0.0,0.0,0.0,-0.007011823821812868,0.07303134351968765,0.3161068558692932,0.0,0.0,0.0,0.0,0.0,0.0,0.0,0.0,0.0
1606827283429674745,1376744,1606827283419206189,imu_link,0.08021734654903412,0.0018454642267897725,0.05518592894077301,0.9952468872070312,0.0,0.0,0.0,0.0,0.0,0.0,0.0,0.0,0.0,6.323662281036377,-0.29681363701820374,9.199810981750488,0.0,0.0,0.0,0.0,0.0,0.0,0.0,0.0,0.0,-0.007011823821812868,0.07303134351968765,0.3161068558692932,0.0,0.0,0.0,0.0,0.0,0.0,0.0,0.0,0.0
1606827283437619956,1376745,1606827283431023467,imu_link,0.08021357655525208,0.0018435993697494268,0.05518936738371849,0.9952470064163208,0.0,0.0,0.0,0.0,0.0,0.0,0.0,0.0,0.0,6.324039459228516,-0.2970340847969055,9.199365615844727,0.0,0.0,0.0,0.0,0.0,0.0,0.0,0.0,0.0,-0.008249483071267605,0.05995146930217743,0.3078925311565399,0.0,0.0,0.0,0.0,0.0,0.0,0.0,0.0,0.0
1606827283438979341,1376746,1606827283431144960,imu_link,0.08021357655525208,0.0018435993697494268,0.05518936738371849,0.9952470064163208,0.0,0.0,0.0,0.0,0.0,0.0,0.0,0.0,0.0,6.324039459228516,-0.2970340847969055,9.199365615844727,0.0,0.0,0.0,0.0,0.0,0.0,0.0,0.0,0.0,-0.008249483071267605,0.05995146930217743,0.3078925311565399,0.0,0.0,0.0,0.0,0.0,0.0,0.0,0.0,0.0
1606827283438998890,1376747,1606827283431255095,imu_link,0.08021144568920135,0.0018445400055497885,0.05518963187932968,0.9952471256256104,0.0,0.0,0.0,0.0,0.0,0.0,0.0,0.0,0.0,6.324079513549805,-0.2969157099723816,9.199127197265625,0.0,0.0,0.0,0.0,0.0,0.0,0.0,0.0,0.0,-0.010354220867156982,0.049676477909088135,0.30767789483070374,0.0,0.0,0.0,0.0,0.0,0.0,0.0,0.0,0.0
1606827283439006343,1376748,1606827283431379662,imu_link,0.08021144568920135,0.0018445400055497885,0.05518963187932968,0.9952471256256104,0.0,0.0,0.0,0.0,0.0,0.0,0.0,0.0,0.0,6.324079513549805,-0.2969157099723816,9.199127197265625,0.0,0.0,0.0,0.0,0.0,0.0,0.0,0.0,0.0,-0.010354220867156982,0.049676477909088135,0.30767789483070374,0.0,0.0,0.0,0.0,0.0,0.0,0.0,0.0,0.0
1606827283439011080,1376749,1606827283431452791,imu_link,0.0802115723490715,0.0018434487283229828,0.055195827037096024,0.9952467679977417,0.0,0.0,0.0,0.0,0.0,0.0,0.0,0.0,0.0,6.324778079986572,-0.2970980107784271,9.19913387298584,0.0,0.0,0.0,0.0,0.0,0.0,0.0,0.0,0.0,0.001159155392087996,0.054295770823955536,0.309511661529541,0.0,0.0,0.0,0.0,0.0,0.0,0.0,0.0,0.0
1606827283441180040,1376750,1606827283431541423,imu_link,0.0802115723490715,0.0018434487283229828,0.055195827037096024,0.9952467679977417,0.0,0.0,0.0,0.0,0.0,0.0,0.0,0.0,0.0,6.324778079986572,-0.2970980107784271,9.19913387298584,0.0,0.0,0.0,0.0,0.0,0.0,0.0,0.0,0.0,0.001159155392087996,0.054295770823955536,0.309511661529541,0.0,0.0,0.0,0.0,0.0,0.0,0.0,0.0,0.0
1606827283441194429,1376751,1606827283431621380,imu_link,0.08021140843629837,0.0018443184671923518,0.05519658699631691,0.9952467679977417,0.0,0.0,0.0,0.0,0.0,0.0,0.0,0.0,0.0,6.324872970581055,-0.29700472950935364,9.19912052154541,0.0,0.0,0.0,0.0,0.0,0.0,0.0,0.0,0.0,0.0036999147851020098,0.06375547498464584,0.3104396164417267,0.0,0.0,0.0,0.0,0.0,0.0,0.0,0.0,0.0
1606827283441200910,1376752,1606827283431687146,imu_link,0.08021140843629837,0.0018443184671923518,0.05519658699631691,0.9952467679977417,0.0,0.0,0.0,0.0,0.0,0.0,0.0,0.0,0.0,6.324872970581055,-0.29700472950935364,9.19912052154541,0.0,0.0,0.0,0.0,0.0,0.0,0.0,0.0,0.0,0.0036999147851020098,0.06375547498464584,0.3104396164417267,0.0,0.0,0.0,0.0,0.0,0.0,0.0,0.0,0.0
1606827283441206334,1376753,1606827283431755388,imu_link,0.08020980656147003,0.0018442111322656274,0.05520142987370491,0.9952465891838074,0.0,0.0,0.0,0.0,0.0,0.0,0.0,0.0,0.0,6.32542610168457,-0.29705142974853516,9.198934555053711,0.0,0.0,0.0,0.0,0.0,0.0,0.0,0.0,0.0,-0.008029751479625702,0.043989147990942,0.3112087547779083,0.0,0.0,0.0,0.0,0.0,0.0,0.0,0.0,0.0
1606827283441672611,1376754,1606827283431831193,imu_link,0.08020980656147003,0.0018442111322656274,0.05520142987370491,0.9952465891838074,0.0,0.0,0.0,0.0,0.0,0.0,0.0,0.0,0.0,6.32542610168457,-0.29705142974853516,9.198934555053711,0.0,0.0,0.0,0.0,0.0,0.0,0.0,0.0,0.0,-0.008029751479625702,0.043989147990942,0.3112087547779083,0.0,0.0,0.0,0.0,0.0,0.0,0.0,0.0,0.0
1606827283451313794,1376755,1606827283444547250,imu_link,0.0802120491862297,0.0018445743480697274,0.055201634764671326,0.995246410369873,0.0,0.0,0.0,0.0,0.0,0.0,0.0,0.0,0.0,6.3254523277282715,-0.297026127576828,9.199193000793457,0.0,0.0,0.0,0.0,0.0,0.0,0.0,0.0,0.0,-0.006096952129155397,0.03965352475643158,0.34636300802230835,0.0,0.0,0.0,0.0,0.0,0.0,0.0,0.0,0.0
1606827283452465391,1376756,1606827283444670623,imu_link,0.0802120491862297,0.0018445743480697274,0.055201634764671326,0.995246410369873,0.0,0.0,0.0,0.0,0.0,0.0,0.0,0.0,0.0,6.3254523277282715,-0.297026127576828,9.199193000793457,0.0,0.0,0.0,0.0,0.0,0.0,0.0,0.0,0.0,-0.006096952129155397,0.03965352475643158,0.34636300802230835,0.0,0.0,0.0,0.0,0.0,0.0,0.0,0.0,0.0
1606827283452490538,1376757,1606827283444838210,imu_link,0.08021404594182968,0.0018429310293868184,0.05520424619317055,0.9952461123466492,0.0,0.0,0.0,0.0,0.0,0.0,0.0,0.0,0.0,6.325735569000244,-0.2972501814365387,9.19941234588623,0.0,0.0,0.0,0.0,0.0,0.0,0.0,0.0,0.0,-0.014701588079333305,0.06391692161560059,0.3434893488883972,0.0,0.0,0.0,0.0,0.0,0.0,0.0,0.0,0.0
1606827283452503083,1376758,1606827283444951610,imu_link,0.08021404594182968,0.0018429310293868184,0.05520424619317055,0.9952461123466492,0.0,0.0,0.0,0.0,0.0,0.0,0.0,0.0,0.0,6.325735569000244,-0.2972501814365387,9.19941234588623,0.0,0.0,0.0,0.0,0.0,0.0,0.0,0.0,0.0,-0.014701588079333305,0.06391692161560059,0.3434893488883972,0.0,0.0,0.0,0.0,0.0,0.0,0.0,0.0,0.0
1606827283452516797,1376759,1606827283445034036,imu_link,0.08021263778209686,0.0018437212565913796,0.05520481616258621,0.995246171951294,0.0,0.0,0.0,0.0,0.0,0.0,0.0,0.0,0.0,6.325808525085449,-0.297156423330307,9.199254035949707,0.0,0.0,0.0,0.0,0.0,0.0,0.0,0.0,0.0,-0.02353581413626671,0.05296733230352402,0.30582013726234436,0.0,0.0,0.0,0.0,0.0,0.0,0.0,0.0,0.0
1606827283453885856,1376760,1606827283445111383,imu_link,0.08021263778209686,0.0018437212565913796,0.05520481616258621,0.995246171951294,0.0,0.0,0.0,0.0,0.0,0.0,0.0,0.0,0.0,6.325808525085449,-0.297156423330307,9.199254035949707,0.0,0.0,0.0,0.0,0.0,0.0,0.0,0.0,0.0,-0.02353581413626671,0.05296733230352402,0.30582013726234436,0.0,0.0,0.0,0.0,0.0,0.0,0.0,0.0,0.0
1606827283453910123,1376761,1606827283445201965,imu_link,0.08021176606416702,0.0018426483729854226,0.055208850651979446,0.9952460527420044,0.0,0.0,0.0,0.0,0.0,0.0,0.0,0.0,0.0,6.326260089874268,-0.29731035232543945,9.199146270751953,0.0,0.0,0.0,0.0,0.0,0.0,0.0,0.0,0.0,-0.009490919299423695,0.04593446105718613,0.2896663248538971,0.0,0.0,0.0,0.0,0.0,0.0,0.0,0.0,0.0
1606827283453922805,1376762,1606827283445271080,imu_link,0.08021176606416702,0.0018426483729854226,0.055208850651979446,0.9952460527420044,0.0,0.0,0.0,0.0,0.0,0.0,0.0,0.0,0.0,6.326260089874268,-0.29731035232543945,9.199146270751953,0.0,0.0,0.0,0.0,0.0,0.0,0.0,0.0,0.0,-0.009490919299423695,0.04593446105718613,0.2896663248538971,0.0,0.0,0.0,0.0,0.0,0.0,0.0,0.0,0.0
1606827283453931462,1376763,1606827283445346507,imu_link,0.08021162450313568,0.001841607503592968,0.05520655959844589,0.9952462315559387,0.0,0.0,0.0,0.0,0.0,0.0,0.0,0.0,0.0,6.325988292694092,-0.2974070608615875,9.199124336242676,0.0,0.0,0.0,0.0,0.0,0.0,0.0,0.0,0.0,-0.022124551236629486,0.055814310908317566,0.29377391934394836,0.0,0.0,0.0,0.0,0.0,0.0,0.0,0.0,0.0
1606827283454098487,1376764,1606827283445422599,imu_link,0.08021162450313568,0.001841607503592968,0.05520655959844589,0.9952462315559387,0.0,0.0,0.0,0.0,0.0,0.0,0.0,0.0,0.0,6.325988292694092,-0.2974070608615875,9.199124336242676,0.0,0.0,0.0,0.0,0.0,0.0,0.0,0.0,0.0,-0.022124551236629486,0.055814310908317566,0.29377391934394836,0.0,0.0,0.0,0.0,0.0,0.0,0.0,0.0,0.0
1606827283454112161,1376765,1606827283445491322,imu_link,0.08021091669797897,0.001839259173721075,0.05521107465028763,0.9952460527420044,0.0,0.0,0.0,0.0,0.0,0.0,0.0,0.0,0.0,6.326483249664307,-0.29771196842193604,9.199026107788086,0.0,0.0,0.0,0.0,0.0,0.0,0.0,0.0,0.0,-0.05298936367034912,0.05598711594939232,0.32224172353744507,0.0,0.0,0.0,0.0,0.0,0.0,0.0,0.0,0.0
1606827283495077347,1376766,1606827283458382943,imu_link,0.08021091669797897,0.001839259173721075,0.05521107465028763,0.9952460527420044,0.0,0.0,0.0,0.0,0.0,0.0,0.0,0.0,0.0,6.326483249664307,-0.29771196842193604,9.199026107788086,0.0,0.0,0.0,0.0,0.0,0.0,0.0,0.0,0.0,-0.05298936367034912,0.05598711594939232,0.32224172353744507,0.0,0.0,0.0,0.0,0.0,0.0,0.0,0.0,0.0
1606827283496158372,1376767,1606827283458504299,imu_link,0.08021091669797897,0.001839259173721075,0.05521107465028763,0.9952460527420044,0.0,0.0,0.0,0.0,0.0,0.0,0.0,0.0,0.0,6.326483249664307,-0.29771196842193604,9.199026107788086,0.0,0.0,0.0,0.0,0.0,0.0,0.0,0.0,0.0,-0.02776631899178028,0.05898343399167061,0.34744885563850403,0.0,0.0,0.0,0.0,0.0,0.0,0.0,0.0,0.0
1606827283496201620,1376768,1606827283458668811,imu_link,0.08021091669797897,0.001839259173721075,0.05521107465028763,0.9952460527420044,0.0,0.0,0.0,0.0,0.0,0.0,0.0,0.0,0.0,6.326483249664307,-0.29771196842193604,9.199026107788086,0.0,0.0,0.0,0.0,0.0,0.0,0.0,0.0,0.0,-0.02776631899178028,0.05898343399167061,0.34744885563850403,0.0,0.0,0.0,0.0,0.0,0.0,0.0,0.0,0.0
1606827283496224533,1376769,1606827283458761328,imu_link,0.08021211624145508,0.0018364987336099148,0.055207666009664536,0.995246171951294,0.0,0.0,0.0,0.0,0.0,0.0,0.0,0.0,0.0,6.3260674476623535,-0.29800301790237427,9.199148178100586,0.0,0.0,0.0,0.0,0.0,0.0,0.0,0.0,0.0,-0.004474245943129063,0.05281694978475571,0.3562857210636139,0.0,0.0,0.0,0.0,0.0,0.0,0.0,0.0,0.0
1606827283496237214,1376770,1606827283458830340,imu_link,0.08021211624145508,0.0018364987336099148,0.055207666009664536,0.995246171951294,0.0,0.0,0.0,0.0,0.0,0.0,0.0,0.0,0.0,6.3260674476623535,-0.29800301790237427,9.199148178100586,0.0,0.0,0.0,0.0,0.0,0.0,0.0,0.0,0.0,-0.004474245943129063,0.05281694978475571,0.3562857210636139,0.0,0.0,0.0,0.0,0.0,0.0,0.0,0.0,0.0
1606827283497289599,1376771,1606827283458899259,imu_link,0.08021330088376999,0.0018366426229476929,0.05520926043391228,0.9952458739280701,0.0,0.0,0.0,0.0,0.0,0.0,0.0,0.0,0.0,6.326251983642578,-0.29800882935523987,9.199285507202148,0.0,0.0,0.0,0.0,0.0,0.0,0.0,0.0,0.0,-0.008159373886883259,0.03625226765871048,0.3420914113521576,0.0,0.0,0.0,0.0,0.0,0.0,0.0,0.0,0.0
1606827283497333863,1376772,1606827283458995785,imu_link,0.08021330088376999,0.0018366426229476929,0.05520926043391228,0.9952458739280701,0.0,0.0,0.0,0.0,0.0,0.0,0.0,0.0,0.0,6.326251983642578,-0.29800882935523987,9.199285507202148,0.0,0.0,0.0,0.0,0.0,0.0,0.0,0.0,0.0,-0.008159373886883259,0.03625226765871048,0.3420914113521576,0.0,0.0,0.0,0.0,0.0,0.0,0.0,0.0,0.0
1606827283497351576,1376773,1606827283459065506,imu_link,0.08021548390388489,0.0018354271305724978,0.05520743876695633,0.9952458143234253,0.0,0.0,0.0,0.0,0.0,0.0,0.0,0.0,0.0,6.326031684875488,-0.29814451932907104,9.199528694152832,0.0,0.0,0.0,0.0,0.0,0.0,0.0,0.0,0.0,0.0005300577031448483,0.03411974757909775,0.320992648601532,0.0,0.0,0.0,0.0,0.0,0.0,0.0,0.0,0.0
1606827283497409203,1376774,1606827283459130241,imu_link,0.08021548390388489,0.0018354271305724978,0.05520743876695633,0.9952458143234253,0.0,0.0,0.0,0.0,0.0,0.0,0.0,0.0,0.0,6.326031684875488,-0.29814451932907104,9.199528694152832,0.0,0.0,0.0,0.0,0.0,0.0,0.0,0.0,0.0,0.0005300577031448483,0.03411974757909775,0.320992648601532,0.0,0.0,0.0,0.0,0.0,0.0,0.0,0.0,0.0
1606827283497973557,1376775,1606827283459203325,imu_link,0.08021647483110428,0.0018362543778494,0.05520731210708618,0.9952457547187805,0.0,0.0,0.0,0.0,0.0,0.0,0.0,0.0,0.0,6.326024532318115,-0.2980552911758423,9.199646949768066,0.0,0.0,0.0,0.0,0.0,0.0,0.0,0.0,0.0,-0.007301615551114082,0.05334838107228279,0.33076420426368713,0.0,0.0,0.0,0.0,0.0,0.0,0.0,0.0,0.0
1606827283498034813,1376776,1606827283459309691,imu_link,0.08021647483110428,0.0018362543778494,0.05520731210708618,0.9952457547187805,0.0,0.0,0.0,0.0,0.0,0.0,0.0,0.0,0.0,6.326024532318115,-0.2980552911758423,9.199646949768066,0.0,0.0,0.0,0.0,0.0,0.0,0.0,0.0,0.0,-0.007301615551114082,0.05334838107228279,0.33076420426368713,0.0,0.0,0.0,0.0,0.0,0.0,0.0,0.0,0.0
1606827283498056500,1376777,1606827283471960254,imu_link,0.08021815866231918,0.0018353554187342525,0.05520699545741081,0.995245635509491,0.0,0.0,0.0,0.0,0.0,0.0,0.0,0.0,0.0,6.325979709625244,-0.29816558957099915,9.199835777282715,0.0,0.0,0.0,0.0,0.0,0.0,0.0,0.0,0.0,-0.0004965185653418303,0.06277494877576828,0.32847991585731506,0.0,0.0,0.0,0.0,0.0,0.0,0.0,0.0,0.0
1606827283498070784,1376778,1606827283472083719,imu_link,0.08021815866231918,0.0018353554187342525,0.05520699545741081,0.995245635509491,0.0,0.0,0.0,0.0,0.0,0.0,0.0,0.0,0.0,6.325979709625244,-0.29816558957099915,9.199835777282715,0.0,0.0,0.0,0.0,0.0,0.0,0.0,0.0,0.0,-0.0004965185653418303,0.06277494877576828,0.32847991585731506,0.0,0.0,0.0,0.0,0.0,0.0,0.0,0.0,0.0
1606827283498088872,1376779,1606827283472261564,imu_link,0.08021772652864456,0.0018359203822910786,0.0552062951028347,0.9952457547187805,0.0,0.0,0.0,0.0,0.0,0.0,0.0,0.0,0.0,6.32590389251709,-0.29809194803237915,9.199790000915527,0.0,0.0,0.0,0.0,0.0,0.0,0.0,0.0,0.0,0.0031525390222668648,0.04791264981031418,0.31663888692855835,0.0,0.0,0.0,0.0,0.0,0.0,0.0,0.0,0.0
1606827283500332540,1376780,1606827283472354363,imu_link,0.08021772652864456,0.0018359203822910786,0.0552062951028347,0.9952457547187805,0.0,0.0,0.0,0.0,0.0,0.0,0.0,0.0,0.0,6.32590389251709,-0.29809194803237915,9.199790000915527,0.0,0.0,0.0,0.0,0.0,0.0,0.0,0.0,0.0,0.0031525390222668648,0.04791264981031418,0.31663888692855835,0.0,0.0,0.0,0.0,0.0,0.0,0.0,0.0,0.0
1606827283500371828,1376781,1606827283472432604,imu_link,0.08021902292966843,0.001836338429711759,0.05520578846335411,0.995245635509491,0.0,0.0,0.0,0.0,0.0,0.0,0.0,0.0,0.0,6.325850009918213,-0.29804784059524536,9.199941635131836,0.0,0.0,0.0,0.0,0.0,0.0,0.0,0.0,0.0,0.0005679767346009612,0.02605208195745945,0.3073669672012329,0.0,0.0,0.0,0.0,0.0,0.0,0.0,0.0,0.0
1606827283500392862,1376782,1606827283472531136,imu_link,0.08021902292966843,0.001836338429711759,0.05520578846335411,0.995245635509491,0.0,0.0,0.0,0.0,0.0,0.0,0.0,0.0,0.0,6.325850009918213,-0.29804784059524536,9.199941635131836,0.0,0.0,0.0,0.0,0.0,0.0,0.0,0.0,0.0,0.0005679767346009612,0.02605208195745945,0.3073669672012329,0.0,0.0,0.0,0.0,0.0,0.0,0.0,0.0,0.0
1606827283500413485,1376783,1606827283472605287,imu_link,0.08021879941225052,0.0018347407458350062,0.055206529796123505,0.995245635509491,0.0,0.0,0.0,0.0,0.0,0.0,0.0,0.0,0.0,6.325920104980469,-0.2982354462146759,9.199904441833496,0.0,0.0,0.0,0.0,0.0,0.0,0.0,0.0,0.0,0.01623796857893467,0.030678991228342056,0.29751336574554443,0.0,0.0,0.0,0.0,0.0,0.0,0.0,0.0,0.0
1606827283501098975,1376784,1606827283472693130,imu_link,0.08021879941225052,0.0018347407458350062,0.055206529796123505,0.995245635509491,0.0,0.0,0.0,0.0,0.0,0.0,0.0,0.0,0.0,6.325920104980469,-0.2982354462146759,9.199904441833496,0.0,0.0,0.0,0.0,0.0,0.0,0.0,0.0,0.0,0.01623796857893467,0.030678991228342056,0.29751336574554443,0.0,0.0,0.0,0.0,0.0,0.0,0.0,0.0,0.0
1606827283501142246,1376785,1606827283472777455,imu_link,0.08022207766771317,0.001834568683989346,0.05520202964544296,0.995245635509491,0.0,0.0,0.0,0.0,0.0,0.0,0.0,0.0,0.0,6.325402736663818,-0.2982344627380371,9.200281143188477,0.0,0.0,0.0,0.0,0.0,0.0,0.0,0.0,0.0,0.015908174216747284,0.04560718312859535,0.30168911814689636,0.0,0.0,0.0,0.0,0.0,0.0,0.0,0.0,0.0
1606827283501164251,1376786,1606827283472864345,imu_link,0.08022207766771317,0.001834568683989346,0.05520202964544296,0.995245635509491,0.0,0.0,0.0,0.0,0.0,0.0,0.0,0.0,0.0,6.325402736663818,-0.2982344627380371,9.200281143188477,0.0,0.0,0.0,0.0,0.0,0.0,0.0,0.0,0.0,0.015908174216747284,0.04560718312859535,0.30168911814689636,0.0,0.0,0.0,0.0,0.0,0.0,0.0,0.0,0.0
1606827283501181321,1376787,1606827283472950023,imu_link,0.08022067695856094,0.001836373470723629,0.05520370975136757,0.995245635509491,0.0,0.0,0.0,0.0,0.0,0.0,0.0,0.0,0.0,6.325612545013428,-0.2980351746082306,9.200132369995117,0.0,0.0,0.0,0.0,0.0,0.0,0.0,0.0,0.0,0.012113072909414768,0.054177045822143555,0.3068733215332031,0.0,0.0,0.0,0.0,0.0,0.0,0.0,0.0,0.0
1606827283501189486,1376788,1606827283484728874,imu_link,0.08022067695856094,0.001836373470723629,0.05520370975136757,0.995245635509491,0.0,0.0,0.0,0.0,0.0,0.0,0.0,0.0,0.0,6.325612545013428,-0.2980351746082306,9.200132369995117,0.0,0.0,0.0,0.0,0.0,0.0,0.0,0.0,0.0,0.012113072909414768,0.054177045822143555,0.3068733215332031,0.0,0.0,0.0,0.0,0.0,0.0,0.0,0.0,0.0
1606827283501501880,1376789,1606827283484878820,imu_link,0.08021967113018036,0.0018369617173448205,0.055200252681970596,0.9952458739280701,0.0,0.0,0.0,0.0,0.0,0.0,0.0,0.0,0.0,6.325222492218018,-0.29792991280555725,9.200021743774414,0.0,0.0,0.0,0.0,0.0,0.0,0.0,0.0,0.0,0.020486727356910706,0.06313178688287735,0.3034929931163788,0.0,0.0,0.0,0.0,0.0,0.0,0.0,0.0,0.0
1606827283501537040,1376790,1606827283485064814,imu_link,0.08021967113018036,0.0018369617173448205,0.055200252681970596,0.9952458739280701,0.0,0.0,0.0,0.0,0.0,0.0,0.0,0.0,0.0,6.325222492218018,-0.29792991280555725,9.200021743774414,0.0,0.0,0.0,0.0,0.0,0.0,0.0,0.0,0.0,0.020486727356910706,0.06313178688287735,0.3034929931163788,0.0,0.0,0.0,0.0,0.0,0.0,0.0,0.0,0.0
1606827283501558770,1376791,1606827283485163146,imu_link,0.08022010326385498,0.0018385846633464098,0.055197931826114655,0.9952459931373596,0.0,0.0,0.0,0.0,0.0,0.0,0.0,0.0,0.0,6.3249711990356445,-0.29772621393203735,9.200081825256348,0.0,0.0,0.0,0.0,0.0,0.0,0.0,0.0,0.0,0.009504256770014763,0.07116707414388657,0.2929283678531647,0.0,0.0,0.0,0.0,0.0,0.0,0.0,0.0,0.0
1606827283501567596,1376792,1606827283485251410,imu_link,0.08022010326385498,0.0018385846633464098,0.055197931826114655,0.9952459931373596,0.0,0.0,0.0,0.0,0.0,0.0,0.0,0.0,0.0,6.3249711990356445,-0.29772621393203735,9.200081825256348,0.0,0.0,0.0,0.0,0.0,0.0,0.0,0.0,0.0,0.009504256770014763,0.07116707414388657,0.2929283678531647,0.0,0.0,0.0,0.0,0.0,0.0,0.0,0.0,0.0
1606827283501956317,1376793,1606827283485360507,imu_link,0.08021768927574158,0.001838716329075396,0.05520430952310562,0.9952458143234253,0.0,0.0,0.0,0.0,0.0,0.0,0.0,0.0,0.0,6.325703144073486,-0.29775455594062805,9.199803352355957,0.0,0.0,0.0,0.0,0.0,0.0,0.0,0.0,0.0,-0.0012746276333928108,0.06990031898021698,0.30390557646751404,0.0,0.0,0.0,0.0,0.0,0.0,0.0,0.0,0.0
1606827283501983964,1376794,1606827283485444987,imu_link,0.08021768927574158,0.001838716329075396,0.05520430952310562,0.9952458143234253,0.0,0.0,0.0,0.0,0.0,0.0,0.0,0.0,0.0,6.325703144073486,-0.29775455594062805,9.199803352355957,0.0,0.0,0.0,0.0,0.0,0.0,0.0,0.0,0.0,-0.0012746276333928108,0.06990031898021698,0.30390557646751404,0.0,0.0,0.0,0.0,0.0,0.0,0.0,0.0,0.0
1606827283502002534,1376795,1606827283485533526,imu_link,0.08021830022335052,0.0018385200528427958,0.05520465970039368,0.9952457547187805,0.0,0.0,0.0,0.0,0.0,0.0,0.0,0.0,0.0,6.325740814208984,-0.29778406023979187,9.199872016906738,0.0,0.0,0.0,0.0,0.0,0.0,0.0,0.0,0.0,0.0010663970606401563,0.06927409768104553,0.3148441016674042,0.0,0.0,0.0,0.0,0.0,0.0,0.0,0.0,0.0
1606827283502022133,1376796,1606827283485622421,imu_link,0.08021830022335052,0.0018385200528427958,0.05520465970039368,0.9952457547187805,0.0,0.0,0.0,0.0,0.0,0.0,0.0,0.0,0.0,6.325740814208984,-0.29778406023979187,9.199872016906738,0.0,0.0,0.0,0.0,0.0,0.0,0.0,0.0,0.0,0.0010663970606401563,0.06927409768104553,0.3148441016674042,0.0,0.0,0.0,0.0,0.0,0.0,0.0,0.0,0.0
1606827283502038766,1376797,1606827283485705067,imu_link,0.0802137553691864,0.0018409303156659007,0.05521312355995178,0.9952456951141357,0.0,0.0,0.0,0.0,0.0,0.0,0.0,0.0,0.0,6.326732158660889,-0.2975582480430603,9.199361801147461,0.0,0.0,0.0,0.0,0.0,0.0,0.0,0.0,0.0,-0.0026553915813565254,0.07229011505842209,0.3127378523349762,0.0,0.0,0.0,0.0,0.0,0.0,0.0,0.0,0.0
1606827283505053201,1376798,1606827283498506925,imu_link,0.0802137553691864,0.0018409303156659007,0.05521312355995178,0.9952456951141357,0.0,0.0,0.0,0.0,0.0,0.0,0.0,0.0,0.0,6.326732158660889,-0.2975582480430603,9.199361801147461,0.0,0.0,0.0,0.0,0.0,0.0,0.0,0.0,0.0,-0.0026553915813565254,0.07229011505842209,0.3127378523349762,0.0,0.0,0.0,0.0,0.0,0.0,0.0,0.0,0.0
1606827283505870610,1376799,1606827283498648366,imu_link,0.08021298795938492,0.0018418044783174992,0.055212490260601044,0.9952457547187805,0.0,0.0,0.0,0.0,0.0,0.0,0.0,0.0,0.0,6.3266682624816895,-0.2974478304386139,9.199281692504883,0.0,0.0,0.0,0.0,0.0,0.0,0.0,0.0,0.0,-0.018828868865966797,0.054848335683345795,0.303135484457016,0.0,0.0,0.0,0.0,0.0,0.0,0.0,0.0,0.0
1606827283505903830,1376800,1606827283498832356,imu_link,0.08021298795938492,0.0018418044783174992,0.055212490260601044,0.9952457547187805,0.0,0.0,0.0,0.0,0.0,0.0,0.0,0.0,0.0,6.3266682624816895,-0.2974478304386139,9.199281692504883,0.0,0.0,0.0,0.0,0.0,0.0,0.0,0.0,0.0,-0.018828868865966797,0.054848335683345795,0.303135484457016,0.0,0.0,0.0,0.0,0.0,0.0,0.0,0.0,0.0
1606827283505928441,1376801,1606827283498940050,imu_link,0.08021344244480133,0.001840826473198831,0.05521440505981445,0.995245635509491,0.0,0.0,0.0,0.0,0.0,0.0,0.0,0.0,0.0,6.326878547668457,-0.29757991433143616,9.199325561523438,0.0,0.0,0.0,0.0,0.0,0.0,0.0,0.0,0.0,-0.0242361631244421,0.06506109982728958,0.3083694577217102,0.0,0.0,0.0,0.0,0.0,0.0,0.0,0.0,0.0
1606827283505949489,1376802,1606827283499017754,imu_link,0.08021344244480133,0.001840826473198831,0.05521440505981445,0.995245635509491,0.0,0.0,0.0,0.0,0.0,0.0,0.0,0.0,0.0,6.326878547668457,-0.29757991433143616,9.199325561523438,0.0,0.0,0.0,0.0,0.0,0.0,0.0,0.0,0.0,-0.0242361631244421,0.06506109982728958,0.3083694577217102,0.0,0.0,0.0,0.0,0.0,0.0,0.0,0.0,0.0
1606827283507166864,1376803,1606827283499113114,imu_link,0.08021416515111923,0.0018426957540214062,0.05521530285477638,0.9952455163002014,0.0,0.0,0.0,0.0,0.0,0.0,0.0,0.0,0.0,6.326998233795166,-0.2973795235157013,9.199419975280762,0.0,0.0,0.0,0.0,0.0,0.0,0.0,0.0,0.0,-0.010783838108181953,0.09135165810585022,0.3370218873023987,0.0,0.0,0.0,0.0,0.0,0.0,0.0,0.0,0.0
1606827283507228016,1376804,1606827283499214468,imu_link,0.08021416515111923,0.0018426957540214062,0.05521530285477638,0.9952455163002014,0.0,0.0,0.0,0.0,0.0,0.0,0.0,0.0,0.0,6.326998233795166,-0.2973795235157013,9.199419975280762,0.0,0.0,0.0,0.0,0.0,0.0,0.0,0.0,0.0,-0.010783838108181953,0.09135165810585022,0.3370218873023987,0.0,0.0,0.0,0.0,0.0,0.0,0.0,0.0,0.0
1606827283507251457,1376805,1606827283499339241,imu_link,0.08020972460508347,0.0018434253288432956,0.055218130350112915,0.9952456951141357,0.0,0.0,0.0,0.0,0.0,0.0,0.0,0.0,0.0,6.327329158782959,-0.2972941994667053,9.198914527893066,0.0,0.0,0.0,0.0,0.0,0.0,0.0,0.0,0.0,-0.017263703048229218,0.07614415884017944,0.3334769606590271,0.0,0.0,0.0,0.0,0.0,0.0,0.0,0.0,0.0
1606827283507283454,1376806,1606827283499430597,imu_link,0.08020972460508347,0.0018434253288432956,0.055218130350112915,0.9952456951141357,0.0,0.0,0.0,0.0,0.0,0.0,0.0,0.0,0.0,6.327329158782959,-0.2972941994667053,9.198914527893066,0.0,0.0,0.0,0.0,0.0,0.0,0.0,0.0,0.0,-0.017263703048229218,0.07614415884017944,0.3334769606590271,0.0,0.0,0.0,0.0,0.0,0.0,0.0,0.0,0.0
1606827283507308411,1376807,1606827283499527801,imu_link,0.08020853996276855,0.0018427802715450525,0.05521976947784424,0.9952456951141357,0.0,0.0,0.0,0.0,0.0,0.0,0.0,0.0,0.0,6.327511787414551,-0.2973753809928894,9.198773384094238,0.0,0.0,0.0,0.0,0.0,0.0,0.0,0.0,0.0,-0.04191380739212036,0.05078247934579849,0.32778409123420715,0.0,0.0,0.0,0.0,0.0,0.0,0.0,0.0,0.0
1606827283507325972,1376808,1606827283499611078,imu_link,0.08020853996276855,0.0018427802715450525,0.05521976947784424,0.9952456951141357,0.0,0.0,0.0,0.0,0.0,0.0,0.0,0.0,0.0,6.327511787414551,-0.2973753809928894,9.198773384094238,0.0,0.0,0.0,0.0,0.0,0.0,0.0,0.0,0.0,-0.04191380739212036,0.05078247934579849,0.32778409123420715,0.0,0.0,0.0,0.0,0.0,0.0,0.0,0.0,0.0
1606827283519191054,1376809,1606827283512002488,imu_link,0.08020925521850586,0.00183489837218076,0.05521948263049126,0.9952456951141357,0.0,0.0,0.0,0.0,0.0,0.0,0.0,0.0,0.0,6.327406406402588,-0.2982761561870575,9.198805809020996,0.0,0.0,0.0,0.0,0.0,0.0,0.0,0.0,0.0,-0.043391626328229904,0.045857708901166916,0.33293184638023376,0.0,0.0,0.0,0.0,0.0,0.0,0.0,0.0,0.0
1606827283519945339,1376810,1606827283512144386,imu_link,0.08020925521850586,0.00183489837218076,0.05521948263049126,0.9952456951141357,0.0,0.0,0.0,0.0,0.0,0.0,0.0,0.0,0.0,6.327406406402588,-0.2982761561870575,9.198805809020996,0.0,0.0,0.0,0.0,0.0,0.0,0.0,0.0,0.0,-0.043391626328229904,0.045857708901166916,0.33293184638023376,0.0,0.0,0.0,0.0,0.0,0.0,0.0,0.0,0.0
1606827283519959281,1376811,1606827283512332495,imu_link,0.0802086815237999,0.0018325918354094028,0.05522056296467781,0.9952456951141357,0.0,0.0,0.0,0.0,0.0,0.0,0.0,0.0,0.0,6.327508449554443,-0.2985455393791199,9.198724746704102,0.0,0.0,0.0,0.0,0.0,0.0,0.0,0.0,0.0,-0.026643073186278343,0.07001952826976776,0.32422590255737305,0.0,0.0,0.0,0.0,0.0,0.0,0.0,0.0,0.0
1606827283519970072,1376812,1606827283512465131,imu_link,0.0802086815237999,0.0018325918354094028,0.05522056296467781,0.9952456951141357,0.0,0.0,0.0,0.0,0.0,0.0,0.0,0.0,0.0,6.327508449554443,-0.2985455393791199,9.198724746704102,0.0,0.0,0.0,0.0,0.0,0.0,0.0,0.0,0.0,-0.026643073186278343,0.07001952826976776,0.32422590255737305,0.0,0.0,0.0,0.0,0.0,0.0,0.0,0.0,0.0
1606827283519983959,1376813,1606827283512565819,imu_link,0.08020668476819992,0.001828528824262321,0.05521940439939499,0.9952458739280701,0.0,0.0,0.0,0.0,0.0,0.0,0.0,0.0,0.0,6.3273396492004395,-0.2989856004714966,9.198472023010254,0.0,0.0,0.0,0.0,0.0,0.0,0.0,0.0,0.0,-0.009662972763180733,0.08219438791275024,0.3329707384109497,0.0,0.0,0.0,0.0,0.0,0.0,0.0,0.0,0.0
1606827283521660971,1376814,1606827283512654238,imu_link,0.08020668476819992,0.001828528824262321,0.05521940439939499,0.9952458739280701,0.0,0.0,0.0,0.0,0.0,0.0,0.0,0.0,0.0,6.3273396492004395,-0.2989856004714966,9.198472023010254,0.0,0.0,0.0,0.0,0.0,0.0,0.0,0.0,0.0,-0.009662972763180733,0.08219438791275024,0.3329707384109497,0.0,0.0,0.0,0.0,0.0,0.0,0.0,0.0,0.0
1606827283521672273,1376815,1606827283512753647,imu_link,0.08020671457052231,0.0018268937710672617,0.055219437927007675,0.9952458739280701,0.0,0.0,0.0,0.0,0.0,0.0,0.0,0.0,0.0,6.327328681945801,-0.2991725504398346,9.198465347290039,0.0,0.0,0.0,0.0,0.0,0.0,0.0,0.0,0.0,0.00991796050220728,0.06817984580993652,0.33064237236976624,0.0,0.0,0.0,0.0,0.0,0.0,0.0,0.0,0.0
1606827283521683353,1376816,1606827283512839069,imu_link,0.08020671457052231,0.0018268937710672617,0.055219437927007675,0.9952458739280701,0.0,0.0,0.0,0.0,0.0,0.0,0.0,0.0,0.0,6.327328681945801,-0.2991725504398346,9.198465347290039,0.0,0.0,0.0,0.0,0.0,0.0,0.0,0.0,0.0,0.00991796050220728,0.06817984580993652,0.33064237236976624,0.0,0.0,0.0,0.0,0.0,0.0,0.0,0.0,0.0
1606827283521691400,1376817,1606827283512922041,imu_link,0.08020463585853577,0.0018280870281159878,0.05521109700202942,0.9952465295791626,0.0,0.0,0.0,0.0,0.0,0.0,0.0,0.0,0.0,6.326385498046875,-0.2989464998245239,9.198235511779785,0.0,0.0,0.0,0.0,0.0,0.0,0.0,0.0,0.0,0.01888180896639824,0.07719908654689789,0.336974561214447,0.0,0.0,0.0,0.0,0.0,0.0,0.0,0.0,0.0
1606827283522180788,1376818,1606827283512998447,imu_link,0.08020463585853577,0.0018280870281159878,0.05521109700202942,0.9952465295791626,0.0,0.0,0.0,0.0,0.0,0.0,0.0,0.0,0.0,6.326385498046875,-0.2989464998245239,9.198235511779785,0.0,0.0,0.0,0.0,0.0,0.0,0.0,0.0,0.0,0.01888180896639824,0.07719908654689789,0.336974561214447,0.0,0.0,0.0,0.0,0.0,0.0,0.0,0.0,0.0
1606827283522187930,1376819,1606827283513070764,imu_link,0.0802060067653656,0.0018275427864864469,0.055212173610925674,0.9952463507652283,0.0,0.0,0.0,0.0,0.0,0.0,0.0,0.0,0.0,6.326503276824951,-0.2990271747112274,9.198390007019043,0.0,0.0,0.0,0.0,0.0,0.0,0.0,0.0,0.0,0.015821857377886772,0.08520354330539703,0.3297557532787323,0.0,0.0,0.0,0.0,0.0,0.0,0.0,0.0,0.0
1606827283534257951,1376820,1606827283525777216,imu_link,0.0802060067653656,0.0018275427864864469,0.055212173610925674,0.9952463507652283,0.0,0.0,0.0,0.0,0.0,0.0,0.0,0.0,0.0,6.326503276824951,-0.2990271747112274,9.198390007019043,0.0,0.0,0.0,0.0,0.0,0.0,0.0,0.0,0.0,0.015821857377886772,0.08520354330539703,0.3297557532787323,0.0,0.0,0.0,0.0,0.0,0.0,0.0,0.0,0.0
1606827283541412684,1376821,1606827283525877922,imu_link,0.08020167052745819,0.001828824053518474,0.05520578846335411,0.9952470660209656,0.0,0.0,0.0,0.0,0.0,0.0,0.0,0.0,0.0,6.325786590576172,-0.29879480600357056,9.197901725769043,0.0,0.0,0.0,0.0,0.0,0.0,0.0,0.0,0.0,0.0049623227678239346,0.07522321492433548,0.3093452453613281,0.0,0.0,0.0,0.0,0.0,0.0,0.0,0.0,0.0
1606827283541434732,1376822,1606827283525972467,imu_link,0.08020167052745819,0.001828824053518474,0.05520578846335411,0.9952470660209656,0.0,0.0,0.0,0.0,0.0,0.0,0.0,0.0,0.0,6.325786590576172,-0.29879480600357056,9.197901725769043,0.0,0.0,0.0,0.0,0.0,0.0,0.0,0.0,0.0,0.0049623227678239346,0.07522321492433548,0.3093452453613281,0.0,0.0,0.0,0.0,0.0,0.0,0.0,0.0,0.0
1606827283541442742,1376823,1606827283526026739,imu_link,0.08020167052745819,0.001828824053518474,0.05520578846335411,0.9952470660209656,0.0,0.0,0.0,0.0,0.0,0.0,0.0,0.0,0.0,6.325786590576172,-0.29879480600357056,9.197901725769043,0.0,0.0,0.0,0.0,0.0,0.0,0.0,0.0,0.0,0.0006501619936898351,0.05880505591630936,0.31731119751930237,0.0,0.0,0.0,0.0,0.0,0.0,0.0,0.0,0.0
1606827283541456335,1376824,1606827283526078913,imu_link,0.08020167052745819,0.001828824053518474,0.05520578846335411,0.9952470660209656,0.0,0.0,0.0,0.0,0.0,0.0,0.0,0.0,0.0,6.325786590576172,-0.29879480600357056,9.197901725769043,0.0,0.0,0.0,0.0,0.0,0.0,0.0,0.0,0.0,0.0006501619936898351,0.05880505591630936,0.31731119751930237,0.0,0.0,0.0,0.0,0.0,0.0,0.0,0.0,0.0
1606827283542212303,1376825,1606827283526129977,imu_link,0.08020048588514328,0.0018283063545823097,0.055207278579473495,0.9952471256256104,0.0,0.0,0.0,0.0,0.0,0.0,0.0,0.0,0.0,6.325952053070068,-0.29886001348495483,9.197760581970215,0.0,0.0,0.0,0.0,0.0,0.0,0.0,0.0,0.0,0.007491935510188341,0.05342043563723564,0.31517717242240906,0.0,0.0,0.0,0.0,0.0,0.0,0.0,0.0,0.0
1606827283542229723,1376826,1606827283526195405,imu_link,0.08020048588514328,0.0018283063545823097,0.055207278579473495,0.9952471256256104,0.0,0.0,0.0,0.0,0.0,0.0,0.0,0.0,0.0,6.325952053070068,-0.29886001348495483,9.197760581970215,0.0,0.0,0.0,0.0,0.0,0.0,0.0,0.0,0.0,0.007491935510188341,0.05342043563723564,0.31517717242240906,0.0,0.0,0.0,0.0,0.0,0.0,0.0,0.0,0.0
1606827283542236468,1376827,1606827283526258126,imu_link,0.08019915223121643,0.0018263848032802343,0.05520624294877052,0.9952473044395447,0.0,0.0,0.0,0.0,0.0,0.0,0.0,0.0,0.0,6.3258161544799805,-0.2990611791610718,9.197596549987793,0.0,0.0,0.0,0.0,0.0,0.0,0.0,0.0,0.0,0.0100127924233675,0.07050838321447372,0.30096399784088135,0.0,0.0,0.0,0.0,0.0,0.0,0.0,0.0,0.0
1606827283542244545,1376828,1606827283526316822,imu_link,0.08019915223121643,0.0018263848032802343,0.05520624294877052,0.9952473044395447,0.0,0.0,0.0,0.0,0.0,0.0,0.0,0.0,0.0,6.3258161544799805,-0.2990611791610718,9.197596549987793,0.0,0.0,0.0,0.0,0.0,0.0,0.0,0.0,0.0,0.0100127924233675,0.07050838321447372,0.30096399784088135,0.0,0.0,0.0,0.0,0.0,0.0,0.0,0.0,0.0
1606827283546260218,1376829,1606827283526373529,imu_link,0.08019660413265228,0.0018264057580381632,0.05520789697766304,0.9952473640441895,0.0,0.0,0.0,0.0,0.0,0.0,0.0,0.0,0.0,6.326005935668945,-0.29905781149864197,9.197303771972656,0.0,0.0,0.0,0.0,0.0,0.0,0.0,0.0,0.0,0.000551950535736978,0.0762946605682373,0.3046894371509552,0.0,0.0,0.0,0.0,0.0,0.0,0.0,0.0,0.0
1606827283546273919,1376830,1606827283526425503,imu_link,0.08019660413265228,0.0018264057580381632,0.05520789697766304,0.9952473640441895,0.0,0.0,0.0,0.0,0.0,0.0,0.0,0.0,0.0,6.326005935668945,-0.29905781149864197,9.197303771972656,0.0,0.0,0.0,0.0,0.0,0.0,0.0,0.0,0.0,0.000551950535736978,0.0762946605682373,0.3046894371509552,0.0,0.0,0.0,0.0,0.0,0.0,0.0,0.0,0.0
1606827283547386468,1376831,1606827283539125990,imu_link,0.08019637316465378,0.0018259896896779537,0.05520712211728096,0.995247483253479,0.0,0.0,0.0,0.0,0.0,0.0,0.0,0.0,0.0,6.325913906097412,-0.2990967035293579,9.197274208068848,0.0,0.0,0.0,0.0,0.0,0.0,0.0,0.0,0.0,0.0027935367543250322,0.06532612442970276,0.3145756423473358,0.0,0.0,0.0,0.0,0.0,0.0,0.0,0.0,0.0
1606827283547403782,1376832,1606827283539231403,imu_link,0.08019637316465378,0.0018259896896779537,0.05520712211728096,0.995247483253479,0.0,0.0,0.0,0.0,0.0,0.0,0.0,0.0,0.0,6.325913906097412,-0.2990967035293579,9.197274208068848,0.0,0.0,0.0,0.0,0.0,0.0,0.0,0.0,0.0,0.0027935367543250322,0.06532612442970276,0.3145756423473358,0.0,0.0,0.0,0.0,0.0,0.0,0.0,0.0,0.0
1606827283547410011,1376833,1606827283539358546,imu_link,0.08019314706325531,0.0018264114623889327,0.05521417036652565,0.9952473044395447,0.0,0.0,0.0,0.0,0.0,0.0,0.0,0.0,0.0,6.326725959777832,-0.29909297823905945,9.196905136108398,0.0,0.0,0.0,0.0,0.0,0.0,0.0,0.0,0.0,0.01920347847044468,0.045310720801353455,0.3039509952068329,0.0,0.0,0.0,0.0,0.0,0.0,0.0,0.0,0.0
1606827283547423279,1376834,1606827283539414141,imu_link,0.08019314706325531,0.0018264114623889327,0.05521417036652565,0.9952473044395447,0.0,0.0,0.0,0.0,0.0,0.0,0.0,0.0,0.0,6.326725959777832,-0.29909297823905945,9.196905136108398,0.0,0.0,0.0,0.0,0.0,0.0,0.0,0.0,0.0,0.01920347847044468,0.045310720801353455,0.3039509952068329,0.0,0.0,0.0,0.0,0.0,0.0,0.0,0.0,0.0
1606827283548451496,1376835,1606827283539477267,imu_link,0.08019253611564636,0.0018264370737597346,0.055212102830410004,0.995247483253479,0.0,0.0,0.0,0.0,0.0,0.0,0.0,0.0,0.0,6.326488494873047,-0.2990671396255493,9.1968355178833,0.0,0.0,0.0,0.0,0.0,0.0,0.0,0.0,0.0,0.016522923484444618,0.04094332456588745,0.2935301959514618,0.0,0.0,0.0,0.0,0.0,0.0,0.0,0.0,0.0
1606827283548468220,1376836,1606827283539553459,imu_link,0.08019253611564636,0.0018264370737597346,0.055212102830410004,0.995247483253479,0.0,0.0,0.0,0.0,0.0,0.0,0.0,0.0,0.0,6.326488494873047,-0.2990671396255493,9.1968355178833,0.0,0.0,0.0,0.0,0.0,0.0,0.0,0.0,0.0,0.016522923484444618,0.04094332456588745,0.2935301959514618,0.0,0.0,0.0,0.0,0.0,0.0,0.0,0.0,0.0
1606827283548478309,1376837,1606827283539606068,imu_link,0.0801931843161583,0.001830770168453455,0.05521714314818382,0.9952471256256104,0.0,0.0,0.0,0.0,0.0,0.0,0.0,0.0,0.0,6.327105522155762,-0.2986234724521637,9.19693660736084,0.0,0.0,0.0,0.0,0.0,0.0,0.0,0.0,0.0,0.013116533868014812,0.052151404321193695,0.3009261190891266,0.0,0.0,0.0,0.0,0.0,0.0,0.0,0.0,0.0
1606827283548487838,1376838,1606827283539659250,imu_link,0.0801931843161583,0.001830770168453455,0.05521714314818382,0.9952471256256104,0.0,0.0,0.0,0.0,0.0,0.0,0.0,0.0,0.0,6.327105522155762,-0.2986234724521637,9.19693660736084,0.0,0.0,0.0,0.0,0.0,0.0,0.0,0.0,0.0,0.013116533868014812,0.052151404321193695,0.3009261190891266,0.0,0.0,0.0,0.0,0.0,0.0,0.0,0.0,0.0
1606827283549488764,1376839,1606827283539714514,imu_link,0.08019272983074188,0.0018305014818906784,0.055215928703546524,0.9952472448348999,0.0,0.0,0.0,0.0,0.0,0.0,0.0,0.0,0.0,6.326963901519775,-0.29864004254341125,9.196882247924805,0.0,0.0,0.0,0.0,0.0,0.0,0.0,0.0,0.0,0.005128022748976946,0.062315694987773895,0.32477372884750366,0.0,0.0,0.0,0.0,0.0,0.0,0.0,0.0,0.0
1606827283549502993,1376840,1606827283539771596,imu_link,0.08019272983074188,0.0018305014818906784,0.055215928703546524,0.9952472448348999,0.0,0.0,0.0,0.0,0.0,0.0,0.0,0.0,0.0,6.326963901519775,-0.29864004254341125,9.196882247924805,0.0,0.0,0.0,0.0,0.0,0.0,0.0,0.0,0.0,0.005128022748976946,0.062315694987773895,0.32477372884750366,0.0,0.0,0.0,0.0,0.0,0.0,0.0,0.0,0.0
1606827283549514204,1376841,1606827283539827184,imu_link,0.08019178360700607,0.001831450266763568,0.05521855875849724,0.9952471852302551,0.0,0.0,0.0,0.0,0.0,0.0,0.0,0.0,0.0,6.327273845672607,-0.2985500395298004,9.196779251098633,0.0,0.0,0.0,0.0,0.0,0.0,0.0,0.0,0.0,-0.00990966334939003,0.037077613174915314,0.34361258149147034,0.0,0.0,0.0,0.0,0.0,0.0,0.0,0.0,0.0
1606827283558915901,1376842,1606827283552169380,imu_link,0.08019178360700607,0.001831450266763568,0.05521855875849724,0.9952471852302551,0.0,0.0,0.0,0.0,0.0,0.0,0.0,0.0,0.0,6.327273845672607,-0.2985500395298004,9.196779251098633,0.0,0.0,0.0,0.0,0.0,0.0,0.0,0.0,0.0,-0.00990966334939003,0.037077613174915314,0.34361258149147034,0.0,0.0,0.0,0.0,0.0,0.0,0.0,0.0,0.0
1606827283559993150,1376843,1606827283552281670,imu_link,0.08019215613603592,0.0018324136035516858,0.0552174337208271,0.9952471256256104,0.0,0.0,0.0,0.0,0.0,0.0,0.0,0.0,0.0,6.327154159545898,-0.29843220114707947,9.196828842163086,0.0,0.0,0.0,0.0,0.0,0.0,0.0,0.0,0.0,-0.011183337308466434,0.04608277603983879,0.34967654943466187,0.0,0.0,0.0,0.0,0.0,0.0,0.0,0.0,0.0
1606827283560012612,1376844,1606827283552431581,imu_link,0.08019215613603592,0.0018324136035516858,0.0552174337208271,0.9952471256256104,0.0,0.0,0.0,0.0,0.0,0.0,0.0,0.0,0.0,6.327154159545898,-0.29843220114707947,9.196828842163086,0.0,0.0,0.0,0.0,0.0,0.0,0.0,0.0,0.0,-0.011183337308466434,0.04608277603983879,0.34967654943466187,0.0,0.0,0.0,0.0,0.0,0.0,0.0,0.0,0.0
1606827283560021244,1376845,1606827283552510438,imu_link,0.08019477874040604,0.0018308509606868029,0.0552186444401741,0.995246946811676,0.0,0.0,0.0,0.0,0.0,0.0,0.0,0.0,0.0,6.327277183532715,-0.2986381947994232,9.197118759155273,0.0,0.0,0.0,0.0,0.0,0.0,0.0,0.0,0.0,0.0022684610448777676,0.0793771892786026,0.34637510776519775,0.0,0.0,0.0,0.0,0.0,0.0,0.0,0.0,0.0
1606827283560034866,1376846,1606827283552569784,imu_link,0.08019477874040604,0.0018308509606868029,0.0552186444401741,0.995246946811676,0.0,0.0,0.0,0.0,0.0,0.0,0.0,0.0,0.0,6.327277183532715,-0.2986381947994232,9.197118759155273,0.0,0.0,0.0,0.0,0.0,0.0,0.0,0.0,0.0,0.0022684610448777676,0.0793771892786026,0.34637510776519775,0.0,0.0,0.0,0.0,0.0,0.0,0.0,0.0,0.0
1606827283561112356,1376847,1606827283552656311,imu_link,0.08019642531871796,0.0018316134810447693,0.0552198551595211,0.9952466487884521,0.0,0.0,0.0,0.0,0.0,0.0,0.0,0.0,0.0,6.327422618865967,-0.2985728681087494,9.19731330871582,0.0,0.0,0.0,0.0,0.0,0.0,0.0,0.0,0.0,0.011408810503780842,0.05296129360795021,0.33743196725845337,0.0,0.0,0.0,0.0,0.0,0.0,0.0,0.0,0.0
1606827283561139230,1376848,1606827283552722857,imu_link,0.08019642531871796,0.0018316134810447693,0.0552198551595211,0.9952466487884521,0.0,0.0,0.0,0.0,0.0,0.0,0.0,0.0,0.0,6.327422618865967,-0.2985728681087494,9.19731330871582,0.0,0.0,0.0,0.0,0.0,0.0,0.0,0.0,0.0,0.011408810503780842,0.05296129360795021,0.33743196725845337,0.0,0.0,0.0,0.0,0.0,0.0,0.0,0.0,0.0
1606827283561165845,1376849,1606827283552786608,imu_link,0.08019677549600601,0.001833309419453144,0.055217355489730835,0.9952468276023865,0.0,0.0,0.0,0.0,0.0,0.0,0.0,0.0,0.0,6.327151775360107,-0.29835861921310425,9.197364807128906,0.0,0.0,0.0,0.0,0.0,0.0,0.0,0.0,0.0,0.0004329482326284051,0.03954770416021347,0.32724544405937195,0.0,0.0,0.0,0.0,0.0,0.0,0.0,0.0,0.0
1606827283561173320,1376850,1606827283552870726,imu_link,0.08019677549600601,0.001833309419453144,0.055217355489730835,0.9952468276023865,0.0,0.0,0.0,0.0,0.0,0.0,0.0,0.0,0.0,6.327151775360107,-0.29835861921310425,9.197364807128906,0.0,0.0,0.0,0.0,0.0,0.0,0.0,0.0,0.0,0.0004329482326284051,0.03954770416021347,0.32724544405937195,0.0,0.0,0.0,0.0,0.0,0.0,0.0,0.0,0.0
1606827283561243244,1376851,1606827283552929422,imu_link,0.08019667863845825,0.0018335285130888224,0.05521680787205696,0.9952468276023865,0.0,0.0,0.0,0.0,0.0,0.0,0.0,0.0,0.0,6.327092170715332,-0.2983280122280121,9.197354316711426,0.0,0.0,0.0,0.0,0.0,0.0,0.0,0.0,0.0,-0.012213761918246746,0.06022623926401138,0.3290388584136963,0.0,0.0,0.0,0.0,0.0,0.0,0.0,0.0,0.0
1606827283572812725,1376852,1606827283566007651,imu_link,0.08019667863845825,0.0018335285130888224,0.05521680787205696,0.9952468276023865,0.0,0.0,0.0,0.0,0.0,0.0,0.0,0.0,0.0,6.327092170715332,-0.2983280122280121,9.197354316711426,0.0,0.0,0.0,0.0,0.0,0.0,0.0,0.0,0.0,-0.012213761918246746,0.06022623926401138,0.3290388584136963,0.0,0.0,0.0,0.0,0.0,0.0,0.0,0.0,0.0
1606827283574146245,1376853,1606827283566158623,imu_link,0.08019628375768661,0.0018326505087316036,0.055215634405612946,0.995246946811676,0.0,0.0,0.0,0.0,0.0,0.0,0.0,0.0,0.0,6.326949119567871,-0.29841482639312744,9.197304725646973,0.0,0.0,0.0,0.0,0.0,0.0,0.0,0.0,0.0,0.004674637224525213,0.06515812873840332,0.33263593912124634,0.0,0.0,0.0,0.0,0.0,0.0,0.0,0.0,0.0
1606827283574172030,1376854,1606827283566240436,imu_link,0.08019628375768661,0.0018326505087316036,0.055215634405612946,0.995246946811676,0.0,0.0,0.0,0.0,0.0,0.0,0.0,0.0,0.0,6.326949119567871,-0.29841482639312744,9.197304725646973,0.0,0.0,0.0,0.0,0.0,0.0,0.0,0.0,0.0,0.004674637224525213,0.06515812873840332,0.33263593912124634,0.0,0.0,0.0,0.0,0.0,0.0,0.0,0.0,0.0
1606827283574214691,1376855,1606827283566300807,imu_link,0.08019544929265976,0.0018324849661439657,0.055215973407030106,0.9952470064163208,0.0,0.0,0.0,0.0,0.0,0.0,0.0,0.0,0.0,6.326986312866211,-0.29843151569366455,9.197206497192383,0.0,0.0,0.0,0.0,0.0,0.0,0.0,0.0,0.0,0.02710527367889881,0.044645100831985474,0.3323841691017151,0.0,0.0,0.0,0.0,0.0,0.0,0.0,0.0,0.0
1606827283574247949,1376856,1606827283566364847,imu_link,0.08019544929265976,0.0018324849661439657,0.055215973407030106,0.9952470064163208,0.0,0.0,0.0,0.0,0.0,0.0,0.0,0.0,0.0,6.326986312866211,-0.29843151569366455,9.197206497192383,0.0,0.0,0.0,0.0,0.0,0.0,0.0,0.0,0.0,0.02710527367889881,0.044645100831985474,0.3323841691017151,0.0,0.0,0.0,0.0,0.0,0.0,0.0,0.0,0.0
1606827283574610962,1376857,1606827283566433934,imu_link,0.08019573986530304,0.0018352856859564781,0.05521364510059357,0.9952470660209656,0.0,0.0,0.0,0.0,0.0,0.0,0.0,0.0,0.0,6.326745986938477,-0.2980925142765045,9.197259902954102,0.0,0.0,0.0,0.0,0.0,0.0,0.0,0.0,0.0,0.023307329043745995,0.039014093577861786,0.34110480546951294,0.0,0.0,0.0,0.0,0.0,0.0,0.0,0.0,0.0
1606827283574642476,1376858,1606827283566528196,imu_link,0.08019573986530304,0.0018352856859564781,0.05521364510059357,0.9952470660209656,0.0,0.0,0.0,0.0,0.0,0.0,0.0,0.0,0.0,6.326745986938477,-0.2980925142765045,9.197259902954102,0.0,0.0,0.0,0.0,0.0,0.0,0.0,0.0,0.0,0.023307329043745995,0.039014093577861786,0.34110480546951294,0.0,0.0,0.0,0.0,0.0,0.0,0.0,0.0,0.0
1606827283574648401,1376859,1606827283566598570,imu_link,0.08019493520259857,0.0018353641498833895,0.055213455110788345,0.9952471852302551,0.0,0.0,0.0,0.0,0.0,0.0,0.0,0.0,0.0,6.326725006103516,-0.29807668924331665,9.19716739654541,0.0,0.0,0.0,0.0,0.0,0.0,0.0,0.0,0.0,0.015850329771637917,0.05245523899793625,0.35001140832901,0.0,0.0,0.0,0.0,0.0,0.0,0.0,0.0,0.0
1606827283574663889,1376860,1606827283566668360,imu_link,0.08019493520259857,0.0018353641498833895,0.055213455110788345,0.9952471852302551,0.0,0.0,0.0,0.0,0.0,0.0,0.0,0.0,0.0,6.326725006103516,-0.29807668924331665,9.19716739654541,0.0,0.0,0.0,0.0,0.0,0.0,0.0,0.0,0.0,0.015850329771637917,0.05245523899793625,0.35001140832901,0.0,0.0,0.0,0.0,0.0,0.0,0.0,0.0,0.0
1606827283575904018,1376861,1606827283566727063,imu_link,0.08019541203975677,0.0018375605577602983,0.055213361978530884,0.9952471256256104,0.0,0.0,0.0,0.0,0.0,0.0,0.0,0.0,0.0,6.32673454284668,-0.29782834649086,9.197235107421875,0.0,0.0,0.0,0.0,0.0,0.0,0.0,0.0,0.0,0.012312939390540123,0.06830848753452301,0.335593581199646,0.0,0.0,0.0,0.0,0.0,0.0,0.0,0.0,0.0
1606827283575921950,1376862,1606827283566794098,imu_link,0.08019541203975677,0.0018375605577602983,0.055213361978530884,0.9952471256256104,0.0,0.0,0.0,0.0,0.0,0.0,0.0,0.0,0.0,6.32673454284668,-0.29782834649086,9.197235107421875,0.0,0.0,0.0,0.0,0.0,0.0,0.0,0.0,0.0,0.012312939390540123,0.06830848753452301,0.335593581199646,0.0,0.0,0.0,0.0,0.0,0.0,0.0,0.0,0.0
1606827283586233131,1376863,1606827283579436538,imu_link,0.08019305020570755,0.001838185009546578,0.05521411821246147,0.9952472448348999,0.0,0.0,0.0,0.0,0.0,0.0,0.0,0.0,0.0,6.3268280029296875,-0.2977491617202759,9.196969985961914,0.0,0.0,0.0,0.0,0.0,0.0,0.0,0.0,0.0,0.004947734996676445,0.05348395183682442,0.3061637282371521,0.0,0.0,0.0,0.0,0.0,0.0,0.0,0.0,0.0
1606827283587340529,1376864,1606827283579561551,imu_link,0.08019305020570755,0.001838185009546578,0.05521411821246147,0.9952472448348999,0.0,0.0,0.0,0.0,0.0,0.0,0.0,0.0,0.0,6.3268280029296875,-0.2977491617202759,9.196969985961914,0.0,0.0,0.0,0.0,0.0,0.0,0.0,0.0,0.0,0.004947734996676445,0.05348395183682442,0.3061637282371521,0.0,0.0,0.0,0.0,0.0,0.0,0.0,0.0,0.0
1606827283587368982,1376865,1606827283579732559,imu_link,0.08019109070301056,0.0018397353123873472,0.055216819047927856,0.9952472448348999,0.0,0.0,0.0,0.0,0.0,0.0,0.0,0.0,0.0,6.327150821685791,-0.29758477210998535,9.196752548217773,0.0,0.0,0.0,0.0,0.0,0.0,0.0,0.0,0.0,0.0057653263211250305,0.034559477120637894,0.3131003975868225,0.0,0.0,0.0,0.0,0.0,0.0,0.0,0.0,0.0
1606827283587381967,1376866,1606827283579821720,imu_link,0.08019109070301056,0.0018397353123873472,0.055216819047927856,0.9952472448348999,0.0,0.0,0.0,0.0,0.0,0.0,0.0,0.0,0.0,6.327150821685791,-0.29758477210998535,9.196752548217773,0.0,0.0,0.0,0.0,0.0,0.0,0.0,0.0,0.0,0.0057653263211250305,0.034559477120637894,0.3131003975868225,0.0,0.0,0.0,0.0,0.0,0.0,0.0,0.0,0.0
1606827283587392751,1376867,1606827283579891521,imu_link,0.08019062876701355,0.0018387860618531704,0.05521603673696518,0.9952473640441895,0.0,0.0,0.0,0.0,0.0,0.0,0.0,0.0,0.0,6.327053070068359,-0.29768288135528564,9.196693420410156,0.0,0.0,0.0,0.0,0.0,0.0,0.0,0.0,0.0,0.008237081579864025,0.05710005387663841,0.3323143720626831,0.0,0.0,0.0,0.0,0.0,0.0,0.0,0.0,0.0
1606827283587847100,1376868,1606827283579965216,imu_link,0.08019062876701355,0.0018387860618531704,0.05521603673696518,0.9952473640441895,0.0,0.0,0.0,0.0,0.0,0.0,0.0,0.0,0.0,6.327053070068359,-0.29768288135528564,9.196693420410156,0.0,0.0,0.0,0.0,0.0,0.0,0.0,0.0,0.0,0.008237081579864025,0.05710005387663841,0.3323143720626831,0.0,0.0,0.0,0.0,0.0,0.0,0.0,0.0,0.0
1606827283587869754,1376869,1606827283580059180,imu_link,0.08018989115953445,0.0018384698778390884,0.055216237902641296,0.9952474236488342,0.0,0.0,0.0,0.0,0.0,0.0,0.0,0.0,0.0,6.327073097229004,-0.2977161109447479,9.196606636047363,0.0,0.0,0.0,0.0,0.0,0.0,0.0,0.0,0.0,0.0004970820154994726,0.05412464961409569,0.33228713274002075,0.0,0.0,0.0,0.0,0.0,0.0,0.0,0.0,0.0
1606827283587881284,1376870,1606827283580128095,imu_link,0.08018989115953445,0.0018384698778390884,0.055216237902641296,0.9952474236488342,0.0,0.0,0.0,0.0,0.0,0.0,0.0,0.0,0.0,6.327073097229004,-0.2977161109447479,9.196606636047363,0.0,0.0,0.0,0.0,0.0,0.0,0.0,0.0,0.0,0.0004970820154994726,0.05412464961409569,0.33228713274002075,0.0,0.0,0.0,0.0,0.0,0.0,0.0,0.0,0.0
1606827283587903165,1376871,1606827283580196813,imu_link,0.08019065856933594,0.0018399443943053484,0.05521984025835991,0.9952471852302551,0.0,0.0,0.0,0.0,0.0,0.0,0.0,0.0,0.0,6.327498435974121,-0.29758593440055847,9.19670295715332,0.0,0.0,0.0,0.0,0.0,0.0,0.0,0.0,0.0,-0.003619900904595852,0.03847023844718933,0.32653871178627014,0.0,0.0,0.0,0.0,0.0,0.0,0.0,0.0,0.0
1606827283589018711,1376872,1606827283580264426,imu_link,0.08019065856933594,0.0018399443943053484,0.05521984025835991,0.9952471852302551,0.0,0.0,0.0,0.0,0.0,0.0,0.0,0.0,0.0,6.327498435974121,-0.29758593440055847,9.19670295715332,0.0,0.0,0.0,0.0,0.0,0.0,0.0,0.0,0.0,-0.003619900904595852,0.03847023844718933,0.32653871178627014,0.0,0.0,0.0,0.0,0.0,0.0,0.0,0.0,0.0
1606827283589042702,1376873,1606827283580332210,imu_link,0.08019313216209412,0.0018403406720608473,0.055226244032382965,0.9952466487884521,0.0,0.0,0.0,0.0,0.0,0.0,0.0,0.0,0.0,6.32823371887207,-0.2976153492927551,9.19698715209961,0.0,0.0,0.0,0.0,0.0,0.0,0.0,0.0,0.0,-0.010265788063406944,0.04207874462008476,0.3156028985977173,0.0,0.0,0.0,0.0,0.0,0.0,0.0,0.0,0.0
1606827283600038686,1376874,1606827283593235364,imu_link,0.08019313216209412,0.0018403406720608473,0.055226244032382965,0.9952466487884521,0.0,0.0,0.0,0.0,0.0,0.0,0.0,0.0,0.0,6.32823371887207,-0.2976153492927551,9.19698715209961,0.0,0.0,0.0,0.0,0.0,0.0,0.0,0.0,0.0,-0.010265788063406944,0.04207874462008476,0.3156028985977173,0.0,0.0,0.0,0.0,0.0,0.0,0.0,0.0,0.0
1606827283601561061,1376875,1606827283593352693,imu_link,0.0801934003829956,0.0018396886298432946,0.05522669479250908,0.9952465891838074,0.0,0.0,0.0,0.0,0.0,0.0,0.0,0.0,0.0,6.328279972076416,-0.2976956069469452,9.197013854980469,0.0,0.0,0.0,0.0,0.0,0.0,0.0,0.0,0.0,-0.00713995099067688,0.04983522370457649,0.29430416226387024,0.0,0.0,0.0,0.0,0.0,0.0,0.0,0.0,0.0
1606827283601596198,1376876,1606827283593505864,imu_link,0.0801934003829956,0.0018396886298432946,0.05522669479250908,0.9952465891838074,0.0,0.0,0.0,0.0,0.0,0.0,0.0,0.0,0.0,6.328279972076416,-0.2976956069469452,9.197013854980469,0.0,0.0,0.0,0.0,0.0,0.0,0.0,0.0,0.0,-0.00713995099067688,0.04983522370457649,0.29430416226387024,0.0,0.0,0.0,0.0,0.0,0.0,0.0,0.0,0.0
1606827283601609703,1376877,1606827283593643136,imu_link,0.08019225299358368,0.0018413910875096917,0.05523327738046646,0.9952462911605835,0.0,0.0,0.0,0.0,0.0,0.0,0.0,0.0,0.0,6.329049110412598,-0.29755470156669617,9.196891784667969,0.0,0.0,0.0,0.0,0.0,0.0,0.0,0.0,0.0,0.009820825420320034,0.06687965989112854,0.29927682876586914,0.0,0.0,0.0,0.0,0.0,0.0,0.0,0.0,0.0
1606827283601620685,1376878,1606827283593725852,imu_link,0.08019225299358368,0.0018413910875096917,0.05523327738046646,0.9952462911605835,0.0,0.0,0.0,0.0,0.0,0.0,0.0,0.0,0.0,6.329049110412598,-0.29755470156669617,9.196891784667969,0.0,0.0,0.0,0.0,0.0,0.0,0.0,0.0,0.0,0.009820825420320034,0.06687965989112854,0.29927682876586914,0.0,0.0,0.0,0.0,0.0,0.0,0.0,0.0,0.0
1606827283602892164,1376879,1606827283593794895,imu_link,0.08019158244132996,0.001842570723965764,0.05523126572370529,0.9952464699745178,0.0,0.0,0.0,0.0,0.0,0.0,0.0,0.0,0.0,6.328829765319824,-0.2973974049091339,9.196822166442871,0.0,0.0,0.0,0.0,0.0,0.0,0.0,0.0,0.0,0.016049018129706383,0.07523779571056366,0.303148478269577,0.0,0.0,0.0,0.0,0.0,0.0,0.0,0.0,0.0
1606827283602924100,1376880,1606827283593888882,imu_link,0.08019158244132996,0.001842570723965764,0.05523126572370529,0.9952464699745178,0.0,0.0,0.0,0.0,0.0,0.0,0.0,0.0,0.0,6.328829765319824,-0.2973974049091339,9.196822166442871,0.0,0.0,0.0,0.0,0.0,0.0,0.0,0.0,0.0,0.016049018129706383,0.07523779571056366,0.303148478269577,0.0,0.0,0.0,0.0,0.0,0.0,0.0,0.0,0.0
1606827283602941371,1376881,1606827283593958456,imu_link,0.08018641173839569,0.0018445581663399935,0.05522814020514488,0.9952470064163208,0.0,0.0,0.0,0.0,0.0,0.0,0.0,0.0,0.0,6.328492164611816,-0.2971092164516449,9.196242332458496,0.0,0.0,0.0,0.0,0.0,0.0,0.0,0.0,0.0,-0.008076581172645092,0.05881847068667412,0.29400813579559326,0.0,0.0,0.0,0.0,0.0,0.0,0.0,0.0,0.0
1606827283602957785,1376882,1606827283594026412,imu_link,0.08018641173839569,0.0018445581663399935,0.05522814020514488,0.9952470064163208,0.0,0.0,0.0,0.0,0.0,0.0,0.0,0.0,0.0,6.328492164611816,-0.2971092164516449,9.196242332458496,0.0,0.0,0.0,0.0,0.0,0.0,0.0,0.0,0.0,-0.008076581172645092,0.05881847068667412,0.29400813579559326,0.0,0.0,0.0,0.0,0.0,0.0,0.0,0.0,0.0
1606827283603113094,1376883,1606827283594099674,imu_link,0.0801873579621315,0.0018448112532496452,0.05522806942462921,0.995246946811676,0.0,0.0,0.0,0.0,0.0,0.0,0.0,0.0,0.0,6.32848596572876,-0.2970856726169586,9.1963529586792,0.0,0.0,0.0,0.0,0.0,0.0,0.0,0.0,0.0,-0.009711840189993382,0.05260327830910683,0.30665677785873413,0.0,0.0,0.0,0.0,0.0,0.0,0.0,0.0,0.0
1606827283603128412,1376884,1606827283594177637,imu_link,0.0801873579621315,0.0018448112532496452,0.05522806942462921,0.995246946811676,0.0,0.0,0.0,0.0,0.0,0.0,0.0,0.0,0.0,6.32848596572876,-0.2970856726169586,9.1963529586792,0.0,0.0,0.0,0.0,0.0,0.0,0.0,0.0,0.0,-0.009711840189993382,0.05260327830910683,0.30665677785873413,0.0,0.0,0.0,0.0,0.0,0.0,0.0,0.0,0.0
1606827283613737066,1376885,1606827283606202516,imu_link,0.08018670976161957,0.0018447956535965204,0.05522596836090088,0.9952471256256104,0.0,0.0,0.0,0.0,0.0,0.0,0.0,0.0,0.0,6.328246116638184,-0.29706400632858276,9.196277618408203,0.0,0.0,0.0,0.0,0.0,0.0,0.0,0.0,0.0,0.0036271545104682446,0.0677611380815506,0.32245683670043945,0.0,0.0,0.0,0.0,0.0,0.0,0.0,0.0,0.0
1606827283614890563,1376886,1606827283606289502,imu_link,0.08018670976161957,0.0018447956535965204,0.05522596836090088,0.9952471256256104,0.0,0.0,0.0,0.0,0.0,0.0,0.0,0.0,0.0,6.328246116638184,-0.29706400632858276,9.196277618408203,0.0,0.0,0.0,0.0,0.0,0.0,0.0,0.0,0.0,0.0036271545104682446,0.0677611380815506,0.32245683670043945,0.0,0.0,0.0,0.0,0.0,0.0,0.0,0.0,0.0
1606827283614912353,1376887,1606827283606401673,imu_link,0.08018698543310165,0.001841586665250361,0.05522584170103073,0.9952471256256104,0.0,0.0,0.0,0.0,0.0,0.0,0.0,0.0,0.0,6.3282012939453125,-0.29743054509162903,9.196290016174316,0.0,0.0,0.0,0.0,0.0,0.0,0.0,0.0,0.0,-0.00903094932436943,0.057696931064128876,0.32900452613830566,0.0,0.0,0.0,0.0,0.0,0.0,0.0,0.0,0.0
1606827283614926845,1376888,1606827283606452836,imu_link,0.08018698543310165,0.001841586665250361,0.05522584170103073,0.9952471256256104,0.0,0.0,0.0,0.0,0.0,0.0,0.0,0.0,0.0,6.3282012939453125,-0.29743054509162903,9.196290016174316,0.0,0.0,0.0,0.0,0.0,0.0,0.0,0.0,0.0,-0.00903094932436943,0.057696931064128876,0.32900452613830566,0.0,0.0,0.0,0.0,0.0,0.0,0.0,0.0,0.0
1606827283614937935,1376889,1606827283606498032,imu_link,0.08018442243337631,0.0018383373972028494,0.05522375553846359,0.9952474236488342,0.0,0.0,0.0,0.0,0.0,0.0,0.0,0.0,0.0,6.327934265136719,-0.29776570200920105,9.195976257324219,0.0,0.0,0.0,0.0,0.0,0.0,0.0,0.0,0.0,-0.0014413580065593123,0.05961738899350166,0.33131054043769836,0.0,0.0,0.0,0.0,0.0,0.0,0.0,0.0,0.0
1606827283616090863,1376890,1606827283606572896,imu_link,0.08018442243337631,0.0018383373972028494,0.05522375553846359,0.9952474236488342,0.0,0.0,0.0,0.0,0.0,0.0,0.0,0.0,0.0,6.327934265136719,-0.29776570200920105,9.195976257324219,0.0,0.0,0.0,0.0,0.0,0.0,0.0,0.0,0.0,-0.0014413580065593123,0.05961738899350166,0.33131054043769836,0.0,0.0,0.0,0.0,0.0,0.0,0.0,0.0,0.0
1606827283616124867,1376891,1606827283606626600,imu_link,0.08018357306718826,0.0018380783731117845,0.0552232526242733,0.9952475428581238,0.0,0.0,0.0,0.0,0.0,0.0,0.0,0.0,0.0,6.327873706817627,-0.2977852523326874,9.195878028869629,0.0,0.0,0.0,0.0,0.0,0.0,0.0,0.0,0.0,-0.00045201065950095654,0.062163691967725754,0.30283263325691223,0.0,0.0,0.0,0.0,0.0,0.0,0.0,0.0,0.0
1606827283616140881,1376892,1606827283606675714,imu_link,0.08018357306718826,0.0018380783731117845,0.0552232526242733,0.9952475428581238,0.0,0.0,0.0,0.0,0.0,0.0,0.0,0.0,0.0,6.327873706817627,-0.2977852523326874,9.195878028869629,0.0,0.0,0.0,0.0,0.0,0.0,0.0,0.0,0.0,-0.00045201065950095654,0.062163691967725754,0.30283263325691223,0.0,0.0,0.0,0.0,0.0,0.0,0.0,0.0,0.0
1606827283616153833,1376893,1606827283606749132,imu_link,0.08018071949481964,0.0018378105014562607,0.055221159011125565,0.9952478408813477,0.0,0.0,0.0,0.0,0.0,0.0,0.0,0.0,0.0,6.327633380889893,-0.2977783977985382,9.195548057556152,0.0,0.0,0.0,0.0,0.0,0.0,0.0,0.0,0.0,-0.0007786967325955629,0.04832372069358826,0.29479265213012695,0.0,0.0,0.0,0.0,0.0,0.0,0.0,0.0,0.0
1606827283616350731,1376894,1606827283606796977,imu_link,0.08018071949481964,0.0018378105014562607,0.055221159011125565,0.9952478408813477,0.0,0.0,0.0,0.0,0.0,0.0,0.0,0.0,0.0,6.327633380889893,-0.2977783977985382,9.195548057556152,0.0,0.0,0.0,0.0,0.0,0.0,0.0,0.0,0.0,-0.0007786967325955629,0.04832372069358826,0.29479265213012695,0.0,0.0,0.0,0.0,0.0,0.0,0.0,0.0,0.0
1606827283616364789,1376895,1606827283606848095,imu_link,0.08018152415752411,0.001837407355196774,0.05522036552429199,0.9952478408813477,0.0,0.0,0.0,0.0,0.0,0.0,0.0,0.0,0.0,6.327538967132568,-0.2978222072124481,9.195638656616211,0.0,0.0,0.0,0.0,0.0,0.0,0.0,0.0,0.0,0.0259381216019392,0.060988735407590866,0.3277108371257782,0.0,0.0,0.0,0.0,0.0,0.0,0.0,0.0,0.0
1606827283626211286,1376896,1606827283619537138,imu_link,0.08018152415752411,0.001837407355196774,0.05522036552429199,0.9952478408813477,0.0,0.0,0.0,0.0,0.0,0.0,0.0,0.0,0.0,6.327538967132568,-0.2978222072124481,9.195638656616211,0.0,0.0,0.0,0.0,0.0,0.0,0.0,0.0,0.0,0.0259381216019392,0.060988735407590866,0.3277108371257782,0.0,0.0,0.0,0.0,0.0,0.0,0.0,0.0,0.0
1606827283626949758,1376897,1606827283619642990,imu_link,0.08018176257610321,0.0018432614160701632,0.055222541093826294,0.9952477216720581,0.0,0.0,0.0,0.0,0.0,0.0,0.0,0.0,0.0,6.327840805053711,-0.2971760332584381,9.19570255279541,0.0,0.0,0.0,0.0,0.0,0.0,0.0,0.0,0.0,0.02869269996881485,0.06864959746599197,0.34039539098739624,0.0,0.0,0.0,0.0,0.0,0.0,0.0,0.0,0.0
1606827283626963802,1376898,1606827283619782990,imu_link,0.08018176257610321,0.0018432614160701632,0.055222541093826294,0.9952477216720581,0.0,0.0,0.0,0.0,0.0,0.0,0.0,0.0,0.0,6.327840805053711,-0.2971760332584381,9.19570255279541,0.0,0.0,0.0,0.0,0.0,0.0,0.0,0.0,0.0,0.02869269996881485,0.06864959746599197,0.34039539098739624,0.0,0.0,0.0,0.0,0.0,0.0,0.0,0.0,0.0
1606827283626971679,1376899,1606827283619844018,imu_link,0.08018119633197784,0.0018434225348755717,0.05522409826517105,0.9952476620674133,0.0,0.0,0.0,0.0,0.0,0.0,0.0,0.0,0.0,6.3280205726623535,-0.29716840386390686,9.195639610290527,0.0,0.0,0.0,0.0,0.0,0.0,0.0,0.0,0.0,0.0057723866775631905,0.0449053980410099,0.3409483730792999,0.0,0.0,0.0,0.0,0.0,0.0,0.0,0.0,0.0
1606827283626993844,1376900,1606827283619922399,imu_link,0.08018119633197784,0.0018434225348755717,0.05522409826517105,0.9952476620674133,0.0,0.0,0.0,0.0,0.0,0.0,0.0,0.0,0.0,6.3280205726623535,-0.29716840386390686,9.195639610290527,0.0,0.0,0.0,0.0,0.0,0.0,0.0,0.0,0.0,0.0057723866775631905,0.0449053980410099,0.3409483730792999,0.0,0.0,0.0,0.0,0.0,0.0,0.0,0.0,0.0
1606827283628449306,1376901,1606827283620008606,imu_link,0.08018141984939575,0.0018444019369781017,0.05522746965289116,0.995247483253479,0.0,0.0,0.0,0.0,0.0,0.0,0.0,0.0,0.0,6.3284149169921875,-0.297089159488678,9.195669174194336,0.0,0.0,0.0,0.0,0.0,0.0,0.0,0.0,0.0,0.005013125017285347,0.028497744351625443,0.3423178791999817,0.0,0.0,0.0,0.0,0.0,0.0,0.0,0.0,0.0
1606827283628473843,1376902,1606827283620075701,imu_link,0.08018141984939575,0.0018444019369781017,0.05522746965289116,0.995247483253479,0.0,0.0,0.0,0.0,0.0,0.0,0.0,0.0,0.0,6.3284149169921875,-0.297089159488678,9.195669174194336,0.0,0.0,0.0,0.0,0.0,0.0,0.0,0.0,0.0,0.005013125017285347,0.028497744351625443,0.3423178791999817,0.0,0.0,0.0,0.0,0.0,0.0,0.0,0.0,0.0
1606827283628483523,1376903,1606827283620137071,imu_link,0.08018238097429276,0.0018419534899294376,0.055228445678949356,0.9952473640441895,0.0,0.0,0.0,0.0,0.0,0.0,0.0,0.0,0.0,6.3285040855407715,-0.29738348722457886,9.195764541625977,0.0,0.0,0.0,0.0,0.0,0.0,0.0,0.0,0.0,0.014820359647274017,0.04627540335059166,0.3370068669319153,0.0,0.0,0.0,0.0,0.0,0.0,0.0,0.0,0.0
1606827283628499257,1376904,1606827283620224990,imu_link,0.08018238097429276,0.0018419534899294376,0.055228445678949356,0.9952473640441895,0.0,0.0,0.0,0.0,0.0,0.0,0.0,0.0,0.0,6.3285040855407715,-0.29738348722457886,9.195764541625977,0.0,0.0,0.0,0.0,0.0,0.0,0.0,0.0,0.0,0.014820359647274017,0.04627540335059166,0.3370068669319153,0.0,0.0,0.0,0.0,0.0,0.0,0.0,0.0,0.0
1606827283629098263,1376905,1606827283620288653,imu_link,0.08018379658460617,0.0018427614122629166,0.055224522948265076,0.9952474236488342,0.0,0.0,0.0,0.0,0.0,0.0,0.0,0.0,0.0,6.328062534332275,-0.2972642183303833,9.195932388305664,0.0,0.0,0.0,0.0,0.0,0.0,0.0,0.0,0.0,0.016962990164756775,0.061902161687612534,0.32826822996139526,0.0,0.0,0.0,0.0,0.0,0.0,0.0,0.0,0.0
1606827283642370838,1376906,1606827283633349143,imu_link,0.08018379658460617,0.0018427614122629166,0.055224522948265076,0.9952474236488342,0.0,0.0,0.0,0.0,0.0,0.0,0.0,0.0,0.0,6.328062534332275,-0.2972642183303833,9.195932388305664,0.0,0.0,0.0,0.0,0.0,0.0,0.0,0.0,0.0,0.016962990164756775,0.061902161687612534,0.32826822996139526,0.0,0.0,0.0,0.0,0.0,0.0,0.0,0.0,0.0
1606827283672917859,1376907,1606827283633461442,imu_link,0.0801834687590599,0.0018418492982164025,0.05522387847304344,0.995247483253479,0.0,0.0,0.0,0.0,0.0,0.0,0.0,0.0,0.0,6.3279805183410645,-0.29736024141311646,9.19588851928711,0.0,0.0,0.0,0.0,0.0,0.0,0.0,0.0,0.0,0.003222198225557804,0.0629381313920021,0.33480119705200195,0.0,0.0,0.0,0.0,0.0,0.0,0.0,0.0,0.0
1606827283672944778,1376908,1606827283633606978,imu_link,0.0801834687590599,0.0018418492982164025,0.05522387847304344,0.995247483253479,0.0,0.0,0.0,0.0,0.0,0.0,0.0,0.0,0.0,6.3279805183410645,-0.29736024141311646,9.19588851928711,0.0,0.0,0.0,0.0,0.0,0.0,0.0,0.0,0.0,0.003222198225557804,0.0629381313920021,0.33480119705200195,0.0,0.0,0.0,0.0,0.0,0.0,0.0,0.0,0.0
1606827283672957443,1376909,1606827283633685099,imu_link,0.08018200099468231,0.0018417955143377185,0.05522077530622482,0.9952477812767029,0.0,0.0,0.0,0.0,0.0,0.0,0.0,0.0,0.0,6.327625751495361,-0.29732853174209595,9.195721626281738,0.0,0.0,0.0,0.0,0.0,0.0,0.0,0.0,0.0,-0.016675936058163643,0.0595344603061676,0.32785749435424805,0.0,0.0,0.0,0.0,0.0,0.0,0.0,0.0,0.0
1606827283672969972,1376910,1606827283633744460,imu_link,0.08018200099468231,0.0018417955143377185,0.05522077530622482,0.9952477812767029,0.0,0.0,0.0,0.0,0.0,0.0,0.0,0.0,0.0,6.327625751495361,-0.29732853174209595,9.195721626281738,0.0,0.0,0.0,0.0,0.0,0.0,0.0,0.0,0.0,-0.016675936058163643,0.0595344603061676,0.32785749435424805,0.0,0.0,0.0,0.0,0.0,0.0,0.0,0.0,0.0
1606827283674273061,1376911,1606827283633813058,imu_link,0.08018213510513306,0.001843176898546517,0.05522046610713005,0.9952477812767029,0.0,0.0,0.0,0.0,0.0,0.0,0.0,0.0,0.0,6.327602386474609,-0.2971689701080322,9.195745468139648,0.0,0.0,0.0,0.0,0.0,0.0,0.0,0.0,0.0,-0.01862015575170517,0.06873683631420135,0.3124147951602936,0.0,0.0,0.0,0.0,0.0,0.0,0.0,0.0,0.0
1606827283674301647,1376912,1606827283633906245,imu_link,0.08018213510513306,0.001843176898546517,0.05522046610713005,0.9952477812767029,0.0,0.0,0.0,0.0,0.0,0.0,0.0,0.0,0.0,6.327602386474609,-0.2971689701080322,9.195745468139648,0.0,0.0,0.0,0.0,0.0,0.0,0.0,0.0,0.0,-0.01862015575170517,0.06873683631420135,0.3124147951602936,0.0,0.0,0.0,0.0,0.0,0.0,0.0,0.0,0.0
1606827283674313680,1376913,1606827283633975713,imu_link,0.0801795944571495,0.001840696670114994,0.05521966889500618,0.995248019695282,0.0,0.0,0.0,0.0,0.0,0.0,0.0,0.0,0.0,6.327489376068115,-0.2974284291267395,9.195438385009766,0.0,0.0,0.0,0.0,0.0,0.0,0.0,0.0,0.0,-0.00036133104003965855,0.06339289247989655,0.3083815574645996,0.0,0.0,0.0,0.0,0.0,0.0,0.0,0.0,0.0
1606827283674327141,1376914,1606827283634037700,imu_link,0.0801795944571495,0.001840696670114994,0.05521966889500618,0.995248019695282,0.0,0.0,0.0,0.0,0.0,0.0,0.0,0.0,0.0,6.327489376068115,-0.2974284291267395,9.195438385009766,0.0,0.0,0.0,0.0,0.0,0.0,0.0,0.0,0.0,-0.00036133104003965855,0.06339289247989655,0.3083815574645996,0.0,0.0,0.0,0.0,0.0,0.0,0.0,0.0,0.0
1606827283674467298,1376915,1606827283634103003,imu_link,0.08017779886722565,0.0018407321767881513,0.05522000789642334,0.9952481389045715,0.0,0.0,0.0,0.0,0.0,0.0,0.0,0.0,0.0,6.327528953552246,-0.2974160611629486,9.195233345031738,0.0,0.0,0.0,0.0,0.0,0.0,0.0,0.0,0.0,0.0022301289718598127,0.037270866334438324,0.3070521056652069,0.0,0.0,0.0,0.0,0.0,0.0,0.0,0.0,0.0
1606827283674489524,1376916,1606827283634165924,imu_link,0.08017779886722565,0.0018407321767881513,0.05522000789642334,0.9952481389045715,0.0,0.0,0.0,0.0,0.0,0.0,0.0,0.0,0.0,6.327528953552246,-0.2974160611629486,9.195233345031738,0.0,0.0,0.0,0.0,0.0,0.0,0.0,0.0,0.0,0.0022301289718598127,0.037270866334438324,0.3070521056652069,0.0,0.0,0.0,0.0,0.0,0.0,0.0,0.0,0.0
1606827283676383406,1376917,1606827283646814979,imu_link,0.08017990738153458,0.0018408563919365406,0.05521906539797783,0.995248019695282,0.0,0.0,0.0,0.0,0.0,0.0,0.0,0.0,0.0,6.32742166519165,-0.2974066138267517,9.195475578308105,0.0,0.0,0.0,0.0,0.0,0.0,0.0,0.0,0.0,-0.010514208115637302,0.03978860750794411,0.3114542067050934,0.0,0.0,0.0,0.0,0.0,0.0,0.0,0.0,0.0
1606827283676409100,1376918,1606827283646928300,imu_link,0.08017990738153458,0.0018408563919365406,0.05521906539797783,0.995248019695282,0.0,0.0,0.0,0.0,0.0,0.0,0.0,0.0,0.0,6.32742166519165,-0.2974066138267517,9.195475578308105,0.0,0.0,0.0,0.0,0.0,0.0,0.0,0.0,0.0,-0.010514208115637302,0.03978860750794411,0.3114542067050934,0.0,0.0,0.0,0.0,0.0,0.0,0.0,0.0,0.0
1606827283676425788,1376919,1606827283647095980,imu_link,0.08018016070127487,0.0018375469371676445,0.05521855503320694,0.9952480792999268,0.0,0.0,0.0,0.0,0.0,0.0,0.0,0.0,0.0,6.327332973480225,-0.29778093099594116,9.195484161376953,0.0,0.0,0.0,0.0,0.0,0.0,0.0,0.0,0.0,-0.01330102700740099,0.05595266446471214,0.3291926085948944,0.0,0.0,0.0,0.0,0.0,0.0,0.0,0.0,0.0
1606827283676440309,1376920,1606827283647172697,imu_link,0.08018016070127487,0.0018375469371676445,0.05521855503320694,0.9952480792999268,0.0,0.0,0.0,0.0,0.0,0.0,0.0,0.0,0.0,6.327332973480225,-0.29778093099594116,9.195484161376953,0.0,0.0,0.0,0.0,0.0,0.0,0.0,0.0,0.0,-0.01330102700740099,0.05595266446471214,0.3291926085948944,0.0,0.0,0.0,0.0,0.0,0.0,0.0,0.0,0.0
1606827283677419031,1376921,1606827283647322242,imu_link,0.08018060028553009,0.0018371976912021637,0.055215898901224136,0.9952481985092163,0.0,0.0,0.0,0.0,0.0,0.0,0.0,0.0,0.0,6.327025413513184,-0.29779914021492004,9.19553279876709,0.0,0.0,0.0,0.0,0.0,0.0,0.0,0.0,0.0,-0.030761895701289177,0.06273473054170609,0.3136400282382965,0.0,0.0,0.0,0.0,0.0,0.0,0.0,0.0,0.0
1606827283677478989,1376922,1606827283647412804,imu_link,0.08018060028553009,0.0018371976912021637,0.055215898901224136,0.9952481985092163,0.0,0.0,0.0,0.0,0.0,0.0,0.0,0.0,0.0,6.327025413513184,-0.29779914021492004,9.19553279876709,0.0,0.0,0.0,0.0,0.0,0.0,0.0,0.0,0.0,-0.030761895701289177,0.06273473054170609,0.3136400282382965,0.0,0.0,0.0,0.0,0.0,0.0,0.0,0.0,0.0
1606827283677495269,1376923,1606827283647503388,imu_link,0.0801803395152092,0.0018360434332862496,0.05521507188677788,0.9952482581138611,0.0,0.0,0.0,0.0,0.0,0.0,0.0,0.0,0.0,6.326920986175537,-0.2979215085506439,9.195496559143066,0.0,0.0,0.0,0.0,0.0,0.0,0.0,0.0,0.0,-0.037736497819423676,0.0490986593067646,0.30727824568748474,0.0,0.0,0.0,0.0,0.0,0.0,0.0,0.0,0.0
1606827283677504837,1376924,1606827283647578150,imu_link,0.0801803395152092,0.0018360434332862496,0.05521507188677788,0.9952482581138611,0.0,0.0,0.0,0.0,0.0,0.0,0.0,0.0,0.0,6.326920986175537,-0.2979215085506439,9.195496559143066,0.0,0.0,0.0,0.0,0.0,0.0,0.0,0.0,0.0,-0.037736497819423676,0.0490986593067646,0.30727824568748474,0.0,0.0,0.0,0.0,0.0,0.0,0.0,0.0,0.0
1606827283678331777,1376925,1606827283647658616,imu_link,0.0801817774772644,0.0018304371042177081,0.055214107036590576,0.9952481985092163,0.0,0.0,0.0,0.0,0.0,0.0,0.0,0.0,0.0,6.326758861541748,-0.2985611855983734,9.195625305175781,0.0,0.0,0.0,0.0,0.0,0.0,0.0,0.0,0.0,-0.029114622622728348,0.047018863260746,0.302269846200943,0.0,0.0,0.0,0.0,0.0,0.0,0.0,0.0,0.0
1606827283678361388,1376926,1606827283647730382,imu_link,0.0801817774772644,0.0018304371042177081,0.055214107036590576,0.9952481985092163,0.0,0.0,0.0,0.0,0.0,0.0,0.0,0.0,0.0,6.326758861541748,-0.2985611855983734,9.195625305175781,0.0,0.0,0.0,0.0,0.0,0.0,0.0,0.0,0.0,-0.029114622622728348,0.047018863260746,0.302269846200943,0.0,0.0,0.0,0.0,0.0,0.0,0.0,0.0,0.0
1606827283678375455,1376927,1606827283647806357,imu_link,0.08017989993095398,0.0018298663198947906,0.05521201714873314,0.9952484965324402,0.0,0.0,0.0,0.0,0.0,0.0,0.0,0.0,0.0,6.326514720916748,-0.2985951006412506,9.195406913757324,0.0,0.0,0.0,0.0,0.0,0.0,0.0,0.0,0.0,-0.0016025608638301492,0.062017105519771576,0.3076631426811218,0.0,0.0,0.0,0.0,0.0,0.0,0.0,0.0,0.0
1606827283679924255,1376928,1606827283660790473,imu_link,0.08017989993095398,0.0018298663198947906,0.05521201714873314,0.9952484965324402,0.0,0.0,0.0,0.0,0.0,0.0,0.0,0.0,0.0,6.326514720916748,-0.2985951006412506,9.195406913757324,0.0,0.0,0.0,0.0,0.0,0.0,0.0,0.0,0.0,-0.0016025608638301492,0.062017105519771576,0.3076631426811218,0.0,0.0,0.0,0.0,0.0,0.0,0.0,0.0,0.0
1606827283679966882,1376929,1606827283660913415,imu_link,0.08017802983522415,0.0018306579440832138,0.0552109032869339,0.9952487349510193,0.0,0.0,0.0,0.0,0.0,0.0,0.0,0.0,0.0,6.326395034790039,-0.298482745885849,9.195197105407715,0.0,0.0,0.0,0.0,0.0,0.0,0.0,0.0,0.0,0.02871016226708889,0.06637400388717651,0.35248202085494995,0.0,0.0,0.0,0.0,0.0,0.0,0.0,0.0,0.0
1606827283679982478,1376930,1606827283661076733,imu_link,0.08017802983522415,0.0018306579440832138,0.0552109032869339,0.9952487349510193,0.0,0.0,0.0,0.0,0.0,0.0,0.0,0.0,0.0,6.326395034790039,-0.298482745885849,9.195197105407715,0.0,0.0,0.0,0.0,0.0,0.0,0.0,0.0,0.0,0.02871016226708889,0.06637400388717651,0.35248202085494995,0.0,0.0,0.0,0.0,0.0,0.0,0.0,0.0,0.0
1606827283679995293,1376931,1606827283661165935,imu_link,0.0801791101694107,0.0018295642221346498,0.05520900711417198,0.9952487349510193,0.0,0.0,0.0,0.0,0.0,0.0,0.0,0.0,0.0,6.326168060302734,-0.29859688878059387,9.195314407348633,0.0,0.0,0.0,0.0,0.0,0.0,0.0,0.0,0.0,-0.00021987571381032467,0.061512209475040436,0.3746952712535858,0.0,0.0,0.0,0.0,0.0,0.0,0.0,0.0,0.0
1606827283680286822,1376932,1606827283661244588,imu_link,0.0801791101694107,0.0018295642221346498,0.05520900711417198,0.9952487349510193,0.0,0.0,0.0,0.0,0.0,0.0,0.0,0.0,0.0,6.326168060302734,-0.29859688878059387,9.195314407348633,0.0,0.0,0.0,0.0,0.0,0.0,0.0,0.0,0.0,-0.00021987571381032467,0.061512209475040436,0.3746952712535858,0.0,0.0,0.0,0.0,0.0,0.0,0.0,0.0,0.0
1606827283680309766,1376933,1606827283661335214,imu_link,0.08017808943986893,0.0018302630633115768,0.0552045963704586,0.9952489733695984,0.0,0.0,0.0,0.0,0.0,0.0,0.0,0.0,0.0,6.325669765472412,-0.298470139503479,9.195204734802246,0.0,0.0,0.0,0.0,0.0,0.0,0.0,0.0,0.0,-0.027215929701924324,0.046811193227767944,0.33792799711227417,0.0,0.0,0.0,0.0,0.0,0.0,0.0,0.0,0.0
1606827283680325597,1376934,1606827283661408558,imu_link,0.08017808943986893,0.0018302630633115768,0.0552045963704586,0.9952489733695984,0.0,0.0,0.0,0.0,0.0,0.0,0.0,0.0,0.0,6.325669765472412,-0.298470139503479,9.195204734802246,0.0,0.0,0.0,0.0,0.0,0.0,0.0,0.0,0.0,-0.027215929701924324,0.046811193227767944,0.33792799711227417,0.0,0.0,0.0,0.0,0.0,0.0,0.0,0.0,0.0
1606827283680363961,1376935,1606827283661474335,imu_link,0.0801788866519928,0.0018323308322578669,0.05520284175872803,0.9952490925788879,0.0,0.0,0.0,0.0,0.0,0.0,0.0,0.0,0.0,6.32548713684082,-0.29822322726249695,9.195307731628418,0.0,0.0,0.0,0.0,0.0,0.0,0.0,0.0,0.0,-0.0021852883510291576,0.05813588947057724,0.31995439529418945,0.0,0.0,0.0,0.0,0.0,0.0,0.0,0.0,0.0
1606827283681227861,1376936,1606827283661553750,imu_link,0.0801788866519928,0.0018323308322578669,0.05520284175872803,0.9952490925788879,0.0,0.0,0.0,0.0,0.0,0.0,0.0,0.0,0.0,6.32548713684082,-0.29822322726249695,9.195307731628418,0.0,0.0,0.0,0.0,0.0,0.0,0.0,0.0,0.0,-0.0021852883510291576,0.05813588947057724,0.31995439529418945,0.0,0.0,0.0,0.0,0.0,0.0,0.0,0.0,0.0
1606827283681256288,1376937,1606827283661627364,imu_link,0.08017880469560623,0.001833733287639916,0.055210262537002563,0.9952486753463745,0.0,0.0,0.0,0.0,0.0,0.0,0.0,0.0,0.0,6.32634973526001,-0.2981310188770294,9.195305824279785,0.0,0.0,0.0,0.0,0.0,0.0,0.0,0.0,0.0,0.018333682790398598,0.07434503734111786,0.3534926772117615,0.0,0.0,0.0,0.0,0.0,0.0,0.0,0.0,0.0
1606827283681277179,1376938,1606827283661696572,imu_link,0.08017880469560623,0.001833733287639916,0.055210262537002563,0.9952486753463745,0.0,0.0,0.0,0.0,0.0,0.0,0.0,0.0,0.0,6.32634973526001,-0.2981310188770294,9.195305824279785,0.0,0.0,0.0,0.0,0.0,0.0,0.0,0.0,0.0,0.018333682790398598,0.07434503734111786,0.3534926772117615,0.0,0.0,0.0,0.0,0.0,0.0,0.0,0.0,0.0
1606827283681585037,1376939,1606827283673476405,imu_link,0.0801788941025734,0.0018361132824793458,0.05521003156900406,0.9952486753463745,0.0,0.0,0.0,0.0,0.0,0.0,0.0,0.0,0.0,6.3263444900512695,-0.29785796999931335,9.195331573486328,0.0,0.0,0.0,0.0,0.0,0.0,0.0,0.0,0.0,0.03749041259288788,0.06455706804990768,0.33895161747932434,0.0,0.0,0.0,0.0,0.0,0.0,0.0,0.0,0.0
1606827283681607310,1376940,1606827283673594648,imu_link,0.0801788941025734,0.0018361132824793458,0.05521003156900406,0.9952486753463745,0.0,0.0,0.0,0.0,0.0,0.0,0.0,0.0,0.0,6.3263444900512695,-0.29785796999931335,9.195331573486328,0.0,0.0,0.0,0.0,0.0,0.0,0.0,0.0,0.0,0.03749041259288788,0.06455706804990768,0.33895161747932434,0.0,0.0,0.0,0.0,0.0,0.0,0.0,0.0,0.0
1606827283681649692,1376941,1606827283673752839,imu_link,0.08017661422491074,0.0018413185607641935,0.055214423686265945,0.9952486157417297,0.0,0.0,0.0,0.0,0.0,0.0,0.0,0.0,0.0,6.326895713806152,-0.29729029536247253,9.195101737976074,0.0,0.0,0.0,0.0,0.0,0.0,0.0,0.0,0.0,0.04241423308849335,0.06429295241832733,0.3074459433555603,0.0,0.0,0.0,0.0,0.0,0.0,0.0,0.0,0.0
1606827283681676651,1376942,1606827283673832708,imu_link,0.08017661422491074,0.0018413185607641935,0.055214423686265945,0.9952486157417297,0.0,0.0,0.0,0.0,0.0,0.0,0.0,0.0,0.0,6.326895713806152,-0.29729029536247253,9.195101737976074,0.0,0.0,0.0,0.0,0.0,0.0,0.0,0.0,0.0,0.04241423308849335,0.06429295241832733,0.3074459433555603,0.0,0.0,0.0,0.0,0.0,0.0,0.0,0.0,0.0
1606827283682401123,1376943,1606827283673909641,imu_link,0.08017710596323013,0.0018407282186672091,0.05521239712834358,0.9952486753463745,0.0,0.0,0.0,0.0,0.0,0.0,0.0,0.0,0.0,6.326658248901367,-0.29734212160110474,9.195154190063477,0.0,0.0,0.0,0.0,0.0,0.0,0.0,0.0,0.0,0.007862790487706661,0.06825669854879379,0.3265687823295593,0.0,0.0,0.0,0.0,0.0,0.0,0.0,0.0,0.0
1606827283682457641,1376944,1606827283674000615,imu_link,0.08017710596323013,0.0018407282186672091,0.05521239712834358,0.9952486753463745,0.0,0.0,0.0,0.0,0.0,0.0,0.0,0.0,0.0,6.326658248901367,-0.29734212160110474,9.195154190063477,0.0,0.0,0.0,0.0,0.0,0.0,0.0,0.0,0.0,0.007862790487706661,0.06825669854879379,0.3265687823295593,0.0,0.0,0.0,0.0,0.0,0.0,0.0,0.0,0.0
1606827283682483161,1376945,1606827283674073349,imu_link,0.08017522841691971,0.0018425420857965946,0.05521169304847717,0.9952488541603088,0.0,0.0,0.0,0.0,0.0,0.0,0.0,0.0,0.0,6.326595306396484,-0.29711687564849854,9.194951057434082,0.0,0.0,0.0,0.0,0.0,0.0,0.0,0.0,0.0,0.004050910472869873,0.051558248698711395,0.33641499280929565,0.0,0.0,0.0,0.0,0.0,0.0,0.0,0.0,0.0
1606827283682503266,1376946,1606827283674141991,imu_link,0.08017522841691971,0.0018425420857965946,0.05521169304847717,0.9952488541603088,0.0,0.0,0.0,0.0,0.0,0.0,0.0,0.0,0.0,6.326595306396484,-0.29711687564849854,9.194951057434082,0.0,0.0,0.0,0.0,0.0,0.0,0.0,0.0,0.0,0.004050910472869873,0.051558248698711395,0.33641499280929565,0.0,0.0,0.0,0.0,0.0,0.0,0.0,0.0,0.0
1606827283685849106,1376947,1606827283674219165,imu_link,0.08017529547214508,0.0018429226474836469,0.055210549384355545,0.9952489137649536,0.0,0.0,0.0,0.0,0.0,0.0,0.0,0.0,0.0,6.326467514038086,-0.2970633804798126,9.194960594177246,0.0,0.0,0.0,0.0,0.0,0.0,0.0,0.0,0.0,-0.0007795036071911454,0.03341120481491089,0.3055952787399292,0.0,0.0,0.0,0.0,0.0,0.0,0.0,0.0,0.0
1606827283685865450,1376948,1606827283674294489,imu_link,0.08017529547214508,0.0018429226474836469,0.055210549384355545,0.9952489137649536,0.0,0.0,0.0,0.0,0.0,0.0,0.0,0.0,0.0,6.326467514038086,-0.2970633804798126,9.194960594177246,0.0,0.0,0.0,0.0,0.0,0.0,0.0,0.0,0.0,-0.0007795036071911454,0.03341120481491089,0.3055952787399292,0.0,0.0,0.0,0.0,0.0,0.0,0.0,0.0,0.0
1606827283695418574,1376949,1606827283686857953,imu_link,0.08017391711473465,0.0018438505940139294,0.055209431797266006,0.9952490329742432,0.0,0.0,0.0,0.0,0.0,0.0,0.0,0.0,0.0,6.326348304748535,-0.2969385087490082,9.194809913635254,0.0,0.0,0.0,0.0,0.0,0.0,0.0,0.0,0.0,-0.02385266125202179,0.0421287901699543,0.2942432761192322,0.0,0.0,0.0,0.0,0.0,0.0,0.0,0.0,0.0
1606827283697190928,1376950,1606827283686955779,imu_link,0.08017391711473465,0.0018438505940139294,0.055209431797266006,0.9952490329742432,0.0,0.0,0.0,0.0,0.0,0.0,0.0,0.0,0.0,6.326348304748535,-0.2969385087490082,9.194809913635254,0.0,0.0,0.0,0.0,0.0,0.0,0.0,0.0,0.0,-0.02385266125202179,0.0421287901699543,0.2942432761192322,0.0,0.0,0.0,0.0,0.0,0.0,0.0,0.0,0.0
1606827283697206717,1376951,1606827283687087436,imu_link,0.08017334342002869,0.0018438093829900026,0.05520835891366005,0.9952491521835327,0.0,0.0,0.0,0.0,0.0,0.0,0.0,0.0,0.0,6.326225757598877,-0.2969297170639038,9.194745063781738,0.0,0.0,0.0,0.0,0.0,0.0,0.0,0.0,0.0,-0.017873458564281464,0.05360453948378563,0.3247186541557312,0.0,0.0,0.0,0.0,0.0,0.0,0.0,0.0,0.0
1606827283697217456,1376952,1606827283687147290,imu_link,0.08017334342002869,0.0018438093829900026,0.05520835891366005,0.9952491521835327,0.0,0.0,0.0,0.0,0.0,0.0,0.0,0.0,0.0,6.326225757598877,-0.2969297170639038,9.194745063781738,0.0,0.0,0.0,0.0,0.0,0.0,0.0,0.0,0.0,-0.017873458564281464,0.05360453948378563,0.3247186541557312,0.0,0.0,0.0,0.0,0.0,0.0,0.0,0.0,0.0
1606827283697276498,1376953,1606827283687215418,imu_link,0.08017285168170929,0.001841934397816658,0.055208321660757065,0.9952492117881775,0.0,0.0,0.0,0.0,0.0,0.0,0.0,0.0,0.0,6.326204299926758,-0.29714009165763855,9.19467544555664,0.0,0.0,0.0,0.0,0.0,0.0,0.0,0.0,0.0,-0.003983370028436184,0.048514850437641144,0.3144087493419647,0.0,0.0,0.0,0.0,0.0,0.0,0.0,0.0,0.0
1606827283698278587,1376954,1606827283687299951,imu_link,0.08017285168170929,0.001841934397816658,0.055208321660757065,0.9952492117881775,0.0,0.0,0.0,0.0,0.0,0.0,0.0,0.0,0.0,6.326204299926758,-0.29714009165763855,9.19467544555664,0.0,0.0,0.0,0.0,0.0,0.0,0.0,0.0,0.0,-0.003983370028436184,0.048514850437641144,0.3144087493419647,0.0,0.0,0.0,0.0,0.0,0.0,0.0,0.0,0.0
1606827283698285022,1376955,1606827283687373660,imu_link,0.08017132431268692,0.0018414512742310762,0.0552089661359787,0.9952492713928223,0.0,0.0,0.0,0.0,0.0,0.0,0.0,0.0,0.0,6.326274394989014,-0.2971913814544678,9.194497108459473,0.0,0.0,0.0,0.0,0.0,0.0,0.0,0.0,0.0,0.002162981778383255,0.04985862970352173,0.293037086725235,0.0,0.0,0.0,0.0,0.0,0.0,0.0,0.0,0.0
1606827283698296935,1376956,1606827283687438690,imu_link,0.08017132431268692,0.0018414512742310762,0.0552089661359787,0.9952492713928223,0.0,0.0,0.0,0.0,0.0,0.0,0.0,0.0,0.0,6.326274394989014,-0.2971913814544678,9.194497108459473,0.0,0.0,0.0,0.0,0.0,0.0,0.0,0.0,0.0,0.002162981778383255,0.04985862970352173,0.293037086725235,0.0,0.0,0.0,0.0,0.0,0.0,0.0,0.0,0.0
1606827283698303875,1376957,1606827283687499444,imu_link,0.0801706463098526,0.001839605625718832,0.05520651862025261,0.9952495098114014,0.0,0.0,0.0,0.0,0.0,0.0,0.0,0.0,0.0,6.325977325439453,-0.2973751127719879,9.19440746307373,0.0,0.0,0.0,0.0,0.0,0.0,0.0,0.0,0.0,-0.011358044110238552,0.05371343344449997,0.3103715777397156,0.0,0.0,0.0,0.0,0.0,0.0,0.0,0.0,0.0
1606827283698448426,1376958,1606827283687555858,imu_link,0.0801706463098526,0.001839605625718832,0.05520651862025261,0.9952495098114014,0.0,0.0,0.0,0.0,0.0,0.0,0.0,0.0,0.0,6.325977325439453,-0.2973751127719879,9.19440746307373,0.0,0.0,0.0,0.0,0.0,0.0,0.0,0.0,0.0,-0.011358044110238552,0.05371343344449997,0.3103715777397156,0.0,0.0,0.0,0.0,0.0,0.0,0.0,0.0,0.0
1606827283698459968,1376959,1606827283687618800,imu_link,0.08017324656248093,0.001840042881667614,0.05520587041974068,0.995249330997467,0.0,0.0,0.0,0.0,0.0,0.0,0.0,0.0,0.0,6.325906753540039,-0.2973357141017914,9.194709777832031,0.0,0.0,0.0,0.0,0.0,0.0,0.0,0.0,0.0,-0.013983620330691338,0.05824562907218933,0.308643102645874,0.0,0.0,0.0,0.0,0.0,0.0,0.0,0.0,0.0
1606827283724857229,1376960,1606827283700786849,imu_link,0.08017324656248093,0.001840042881667614,0.05520587041974068,0.995249330997467,0.0,0.0,0.0,0.0,0.0,0.0,0.0,0.0,0.0,6.325906753540039,-0.2973357141017914,9.194709777832031,0.0,0.0,0.0,0.0,0.0,0.0,0.0,0.0,0.0,-0.013983620330691338,0.05824562907218933,0.308643102645874,0.0,0.0,0.0,0.0,0.0,0.0,0.0,0.0,0.0
1606827283726040117,1376961,1606827283700865802,imu_link,0.08017329126596451,0.0018349189776927233,0.055201206356287,0.9952496290206909,0.0,0.0,0.0,0.0,0.0,0.0,0.0,0.0,0.0,6.325325965881348,-0.2978774905204773,9.194683074951172,0.0,0.0,0.0,0.0,0.0,0.0,0.0,0.0,0.0,-0.01592712663114071,0.06473401188850403,0.3201471269130707,0.0,0.0,0.0,0.0,0.0,0.0,0.0,0.0,0.0
1606827283726065993,1376962,1606827283700953782,imu_link,0.08017329126596451,0.0018349189776927233,0.055201206356287,0.9952496290206909,0.0,0.0,0.0,0.0,0.0,0.0,0.0,0.0,0.0,6.325325965881348,-0.2978774905204773,9.194683074951172,0.0,0.0,0.0,0.0,0.0,0.0,0.0,0.0,0.0,-0.01592712663114071,0.06473401188850403,0.3201471269130707,0.0,0.0,0.0,0.0,0.0,0.0,0.0,0.0,0.0
1606827283726076453,1376963,1606827283700993970,imu_link,0.08017387986183167,0.001835792325437069,0.05520159751176834,0.9952495694160461,0.0,0.0,0.0,0.0,0.0,0.0,0.0,0.0,0.0,6.32537841796875,-0.2977852523326874,9.194755554199219,0.0,0.0,0.0,0.0,0.0,0.0,0.0,0.0,0.0,0.00016791850794106722,0.05376516282558441,0.3352212607860565,0.0,0.0,0.0,0.0,0.0,0.0,0.0,0.0,0.0
1606827283726086614,1376964,1606827283701033887,imu_link,0.08017387986183167,0.001835792325437069,0.05520159751176834,0.9952495694160461,0.0,0.0,0.0,0.0,0.0,0.0,0.0,0.0,0.0,6.32537841796875,-0.2977852523326874,9.194755554199219,0.0,0.0,0.0,0.0,0.0,0.0,0.0,0.0,0.0,0.00016791850794106722,0.05376516282558441,0.3352212607860565,0.0,0.0,0.0,0.0,0.0,0.0,0.0,0.0,0.0
1606827283727587298,1376965,1606827283701072115,imu_link,0.08017492294311523,0.0018340074457228184,0.05519779399037361,0.9952496290206909,0.0,0.0,0.0,0.0,0.0,0.0,0.0,0.0,0.0,6.324926853179932,-0.29796043038368225,9.194866180419922,0.0,0.0,0.0,0.0,0.0,0.0,0.0,0.0,0.0,0.009096425026655197,0.03658711165189743,0.36416128277778625,0.0,0.0,0.0,0.0,0.0,0.0,0.0,0.0,0.0
1606827283727605026,1376966,1606827283701130781,imu_link,0.08017492294311523,0.0018340074457228184,0.05519779399037361,0.9952496290206909,0.0,0.0,0.0,0.0,0.0,0.0,0.0,0.0,0.0,6.324926853179932,-0.29796043038368225,9.194866180419922,0.0,0.0,0.0,0.0,0.0,0.0,0.0,0.0,0.0,0.009096425026655197,0.03658711165189743,0.36416128277778625,0.0,0.0,0.0,0.0,0.0,0.0,0.0,0.0,0.0
1606827283727612569,1376967,1606827283701169518,imu_link,0.08017393201589584,0.001835310598835349,0.05519748479127884,0.9952496886253357,0.0,0.0,0.0,0.0,0.0,0.0,0.0,0.0,0.0,6.324904441833496,-0.2978026866912842,9.194761276245117,0.0,0.0,0.0,0.0,0.0,0.0,0.0,0.0,0.0,0.006330168806016445,0.03589952737092972,0.35862767696380615,0.0,0.0,0.0,0.0,0.0,0.0,0.0,0.0,0.0
1606827283727621699,1376968,1606827283701208495,imu_link,0.08017393201589584,0.001835310598835349,0.05519748479127884,0.9952496886253357,0.0,0.0,0.0,0.0,0.0,0.0,0.0,0.0,0.0,6.324904441833496,-0.2978026866912842,9.194761276245117,0.0,0.0,0.0,0.0,0.0,0.0,0.0,0.0,0.0,0.006330168806016445,0.03589952737092972,0.35862767696380615,0.0,0.0,0.0,0.0,0.0,0.0,0.0,0.0,0.0
1606827283727845944,1376969,1606827283701249317,imu_link,0.08017466962337494,0.0018342445837333798,0.055197685956954956,0.9952496886253357,0.0,0.0,0.0,0.0,0.0,0.0,0.0,0.0,0.0,6.324916839599609,-0.2979307472705841,9.194838523864746,0.0,0.0,0.0,0.0,0.0,0.0,0.0,0.0,0.0,-0.003973681945353746,0.031367190182209015,0.3309389352798462,0.0,0.0,0.0,0.0,0.0,0.0,0.0,0.0,0.0
1606827283727882509,1376970,1606827283701291336,imu_link,0.08017466962337494,0.0018342445837333798,0.055197685956954956,0.9952496886253357,0.0,0.0,0.0,0.0,0.0,0.0,0.0,0.0,0.0,6.324916839599609,-0.2979307472705841,9.194838523864746,0.0,0.0,0.0,0.0,0.0,0.0,0.0,0.0,0.0,-0.003973681945353746,0.031367190182209015,0.3309389352798462,0.0,0.0,0.0,0.0,0.0,0.0,0.0,0.0,0.0
1606827283727905972,1376971,1606827283714401900,imu_link,0.08017417788505554,0.0018328339792788029,0.05519844591617584,0.9952496886253357,0.0,0.0,0.0,0.0,0.0,0.0,0.0,0.0,0.0,6.324990749359131,-0.2980954647064209,9.19477367401123,0.0,0.0,0.0,0.0,0.0,0.0,0.0,0.0,0.0,-0.012497114017605782,0.022812619805336,0.30993181467056274,0.0,0.0,0.0,0.0,0.0,0.0,0.0,0.0,0.0
1606827283727914191,1376972,1606827283714508882,imu_link,0.08017417788505554,0.0018328339792788029,0.05519844591617584,0.9952496886253357,0.0,0.0,0.0,0.0,0.0,0.0,0.0,0.0,0.0,6.324990749359131,-0.2980954647064209,9.19477367401123,0.0,0.0,0.0,0.0,0.0,0.0,0.0,0.0,0.0,-0.012497114017605782,0.022812619805336,0.30993181467056274,0.0,0.0,0.0,0.0,0.0,0.0,0.0,0.0,0.0
1606827283727932264,1376973,1606827283714617624,imu_link,0.08017786592245102,0.0018325025448575616,0.05519839748740196,0.9952493906021118,0.0,0.0,0.0,0.0,0.0,0.0,0.0,0.0,0.0,6.324981212615967,-0.2981562614440918,9.19519329071045,0.0,0.0,0.0,0.0,0.0,0.0,0.0,0.0,0.0,-0.005073328502476215,0.038622669875621796,0.3050004541873932,0.0,0.0,0.0,0.0,0.0,0.0,0.0,0.0,0.0
1606827283729750227,1376974,1606827283714693927,imu_link,0.08017786592245102,0.0018325025448575616,0.05519839748740196,0.9952493906021118,0.0,0.0,0.0,0.0,0.0,0.0,0.0,0.0,0.0,6.324981212615967,-0.2981562614440918,9.19519329071045,0.0,0.0,0.0,0.0,0.0,0.0,0.0,0.0,0.0,-0.005073328502476215,0.038622669875621796,0.3050004541873932,0.0,0.0,0.0,0.0,0.0,0.0,0.0,0.0,0.0
1606827283729764749,1376975,1606827283714757128,imu_link,0.0801769495010376,0.0018333528423681855,0.055198464542627335,0.9952494502067566,0.0,0.0,0.0,0.0,0.0,0.0,0.0,0.0,0.0,6.3249969482421875,-0.2980540692806244,9.19509506225586,0.0,0.0,0.0,0.0,0.0,0.0,0.0,0.0,0.0,-0.007355549838393927,0.043042153120040894,0.3295016884803772,0.0,0.0,0.0,0.0,0.0,0.0,0.0,0.0,0.0
1606827283729772792,1376976,1606827283714813363,imu_link,0.0801769495010376,0.0018333528423681855,0.055198464542627335,0.9952494502067566,0.0,0.0,0.0,0.0,0.0,0.0,0.0,0.0,0.0,6.3249969482421875,-0.2980540692806244,9.19509506225586,0.0,0.0,0.0,0.0,0.0,0.0,0.0,0.0,0.0,-0.007355549838393927,0.043042153120040894,0.3295016884803772,0.0,0.0,0.0,0.0,0.0,0.0,0.0,0.0,0.0
1606827283729788346,1376977,1606827283714883631,imu_link,0.08017908781766891,0.0018305672565475106,0.05519740656018257,0.995249330997467,0.0,0.0,0.0,0.0,0.0,0.0,0.0,0.0,0.0,6.324850559234619,-0.2983756363391876,9.19532299041748,0.0,0.0,0.0,0.0,0.0,0.0,0.0,0.0,0.0,0.015389816835522652,0.0404621884226799,0.3147059679031372,0.0,0.0,0.0,0.0,0.0,0.0,0.0,0.0,0.0
1606827283730788416,1376978,1606827283714937500,imu_link,0.08017908781766891,0.0018305672565475106,0.05519740656018257,0.995249330997467,0.0,0.0,0.0,0.0,0.0,0.0,0.0,0.0,0.0,6.324850559234619,-0.2983756363391876,9.19532299041748,0.0,0.0,0.0,0.0,0.0,0.0,0.0,0.0,0.0,0.015389816835522652,0.0404621884226799,0.3147059679031372,0.0,0.0,0.0,0.0,0.0,0.0,0.0,0.0,0.0
1606827283730808431,1376979,1606827283714997847,imu_link,0.08017894625663757,0.0018310958985239267,0.055195994675159454,0.9952493906021118,0.0,0.0,0.0,0.0,0.0,0.0,0.0,0.0,0.0,6.324692726135254,-0.29830148816108704,9.195310592651367,0.0,0.0,0.0,0.0,0.0,0.0,0.0,0.0,0.0,0.013154521584510803,0.06362312287092209,0.30191415548324585,0.0,0.0,0.0,0.0,0.0,0.0,0.0,0.0,0.0
1606827283730818374,1376980,1606827283715062403,imu_link,0.08017894625663757,0.0018310958985239267,0.055195994675159454,0.9952493906021118,0.0,0.0,0.0,0.0,0.0,0.0,0.0,0.0,0.0,6.324692726135254,-0.29830148816108704,9.195310592651367,0.0,0.0,0.0,0.0,0.0,0.0,0.0,0.0,0.0,0.013154521584510803,0.06362312287092209,0.30191415548324585,0.0,0.0,0.0,0.0,0.0,0.0,0.0,0.0,0.0
1606827283730828252,1376981,1606827283715124127,imu_link,0.08017846196889877,0.0018325477140024304,0.05519575625658035,0.9952494502067566,0.0,0.0,0.0,0.0,0.0,0.0,0.0,0.0,0.0,6.324679374694824,-0.298130601644516,9.19526481628418,0.0,0.0,0.0,0.0,0.0,0.0,0.0,0.0,0.0,0.0019220651593059301,0.06837708503007889,0.3335789144039154,0.0,0.0,0.0,0.0,0.0,0.0,0.0,0.0,0.0
1606827283735723106,1376982,1606827283728185313,imu_link,0.08017846196889877,0.0018325477140024304,0.05519575625658035,0.9952494502067566,0.0,0.0,0.0,0.0,0.0,0.0,0.0,0.0,0.0,6.324679374694824,-0.298130601644516,9.19526481628418,0.0,0.0,0.0,0.0,0.0,0.0,0.0,0.0,0.0,0.0019220651593059301,0.06837708503007889,0.3335789144039154,0.0,0.0,0.0,0.0,0.0,0.0,0.0,0.0,0.0
1606827283735736096,1376983,1606827283728287448,imu_link,0.08017883449792862,0.001832502312026918,0.055192980915308,0.9952495694160461,0.0,0.0,0.0,0.0,0.0,0.0,0.0,0.0,0.0,6.324362277984619,-0.29811257123947144,9.195307731628418,0.0,0.0,0.0,0.0,0.0,0.0,0.0,0.0,0.0,0.004224999342113733,0.06333216279745102,0.33593112230300903,0.0,0.0,0.0,0.0,0.0,0.0,0.0,0.0,0.0
1606827283735742014,1376984,1606827283728423048,imu_link,0.08017883449792862,0.001832502312026918,0.055192980915308,0.9952495694160461,0.0,0.0,0.0,0.0,0.0,0.0,0.0,0.0,0.0,6.324362277984619,-0.29811257123947144,9.195307731628418,0.0,0.0,0.0,0.0,0.0,0.0,0.0,0.0,0.0,0.004224999342113733,0.06333216279745102,0.33593112230300903,0.0,0.0,0.0,0.0,0.0,0.0,0.0,0.0,0.0
1606827283735753245,1376985,1606827283728498374,imu_link,0.0801776722073555,0.0018317740177735686,0.055192142724990845,0.9952497482299805,0.0,0.0,0.0,0.0,0.0,0.0,0.0,0.0,0.0,6.324259281158447,-0.29818055033683777,9.195169448852539,0.0,0.0,0.0,0.0,0.0,0.0,0.0,0.0,0.0,-0.01257983036339283,0.057645030319690704,0.3163653016090393,0.0,0.0,0.0,0.0,0.0,0.0,0.0,0.0,0.0
1606827283736621416,1376986,1606827283728560211,imu_link,0.0801776722073555,0.0018317740177735686,0.055192142724990845,0.9952497482299805,0.0,0.0,0.0,0.0,0.0,0.0,0.0,0.0,0.0,6.324259281158447,-0.29818055033683777,9.195169448852539,0.0,0.0,0.0,0.0,0.0,0.0,0.0,0.0,0.0,-0.01257983036339283,0.057645030319690704,0.3163653016090393,0.0,0.0,0.0,0.0,0.0,0.0,0.0,0.0,0.0
1606827283736636285,1376987,1606827283728632021,imu_link,0.08017896860837936,0.0018300862284377217,0.05519241467118263,0.9952496290206909,0.0,0.0,0.0,0.0,0.0,0.0,0.0,0.0,0.0,6.324274063110352,-0.29838380217552185,9.195307731628418,0.0,0.0,0.0,0.0,0.0,0.0,0.0,0.0,0.0,-0.023774025961756706,0.04188067466020584,0.3233151137828827,0.0,0.0,0.0,0.0,0.0,0.0,0.0,0.0,0.0
1606827283736643151,1376988,1606827283728690859,imu_link,0.08017896860837936,0.0018300862284377217,0.05519241467118263,0.9952496290206909,0.0,0.0,0.0,0.0,0.0,0.0,0.0,0.0,0.0,6.324274063110352,-0.29838380217552185,9.195307731628418,0.0,0.0,0.0,0.0,0.0,0.0,0.0,0.0,0.0,-0.023774025961756706,0.04188067466020584,0.3233151137828827,0.0,0.0,0.0,0.0,0.0,0.0,0.0,0.0,0.0
1606827283736670275,1376989,1606827283728748031,imu_link,0.08017978072166443,0.0018288004212081432,0.05519070848822594,0.9952496886253357,0.0,0.0,0.0,0.0,0.0,0.0,0.0,0.0,0.0,6.324066638946533,-0.29851987957954407,9.195392608642578,0.0,0.0,0.0,0.0,0.0,0.0,0.0,0.0,0.0,-0.006271237041801214,0.03287255018949509,0.3191569149494171,0.0,0.0,0.0,0.0,0.0,0.0,0.0,0.0,0.0
1606827283740959116,1376990,1606827283728810480,imu_link,0.08017978072166443,0.0018288004212081432,0.05519070848822594,0.9952496886253357,0.0,0.0,0.0,0.0,0.0,0.0,0.0,0.0,0.0,6.324066638946533,-0.29851987957954407,9.195392608642578,0.0,0.0,0.0,0.0,0.0,0.0,0.0,0.0,0.0,-0.006271237041801214,0.03287255018949509,0.3191569149494171,0.0,0.0,0.0,0.0,0.0,0.0,0.0,0.0,0.0
1606827283740970807,1376991,1606827283728871483,imu_link,0.08017963171005249,0.001829819055274129,0.05519171431660652,0.9952496290206909,0.0,0.0,0.0,0.0,0.0,0.0,0.0,0.0,0.0,6.324191093444824,-0.2984120547771454,9.195382118225098,0.0,0.0,0.0,0.0,0.0,0.0,0.0,0.0,0.0,0.0037528707180172205,0.05859624966979027,0.31820809841156006,0.0,0.0,0.0,0.0,0.0,0.0,0.0,0.0,0.0
1606827283740977541,1376992,1606827283728927295,imu_link,0.08017963171005249,0.001829819055274129,0.05519171431660652,0.9952496290206909,0.0,0.0,0.0,0.0,0.0,0.0,0.0,0.0,0.0,6.324191093444824,-0.2984120547771454,9.195382118225098,0.0,0.0,0.0,0.0,0.0,0.0,0.0,0.0,0.0,0.0037528707180172205,0.05859624966979027,0.31820809841156006,0.0,0.0,0.0,0.0,0.0,0.0,0.0,0.0,0.0
1606827283747615198,1376993,1606827283741055556,imu_link,0.08017974346876144,0.001830935012549162,0.055190425366163254,0.9952496886253357,0.0,0.0,0.0,0.0,0.0,0.0,0.0,0.0,0.0,6.324053764343262,-0.29827359318733215,9.195402145385742,0.0,0.0,0.0,0.0,0.0,0.0,0.0,0.0,0.0,-0.005274035036563873,0.06821765750646591,0.3274112939834595,0.0,0.0,0.0,0.0,0.0,0.0,0.0,0.0,0.0
1606827283748382361,1376994,1606827283741166825,imu_link,0.08017974346876144,0.001830935012549162,0.055190425366163254,0.9952496886253357,0.0,0.0,0.0,0.0,0.0,0.0,0.0,0.0,0.0,6.324053764343262,-0.29827359318733215,9.195402145385742,0.0,0.0,0.0,0.0,0.0,0.0,0.0,0.0,0.0,-0.005274035036563873,0.06821765750646591,0.3274112939834595,0.0,0.0,0.0,0.0,0.0,0.0,0.0,0.0,0.0
1606827283748399536,1376995,1606827283741313075,imu_link,0.08017922937870026,0.0018302521202713251,0.0551903136074543,0.9952497482299805,0.0,0.0,0.0,0.0,0.0,0.0,0.0,0.0,0.0,6.324035167694092,-0.29834720492362976,9.19533920288086,0.0,0.0,0.0,0.0,0.0,0.0,0.0,0.0,0.0,-0.011690154671669006,0.02926972694694996,0.3203261196613312,0.0,0.0,0.0,0.0,0.0,0.0,0.0,0.0,0.0
1606827283748410416,1376996,1606827283741417223,imu_link,0.08017922937870026,0.0018302521202713251,0.0551903136074543,0.9952497482299805,0.0,0.0,0.0,0.0,0.0,0.0,0.0,0.0,0.0,6.324035167694092,-0.29834720492362976,9.19533920288086,0.0,0.0,0.0,0.0,0.0,0.0,0.0,0.0,0.0,-0.011690154671669006,0.02926972694694996,0.3203261196613312,0.0,0.0,0.0,0.0,0.0,0.0,0.0,0.0,0.0
1606827283748418894,1376997,1606827283741493403,imu_link,0.08017909526824951,0.001827723579481244,0.05519118160009384,0.9952496290206909,0.0,0.0,0.0,0.0,0.0,0.0,0.0,0.0,0.0,6.324112415313721,-0.2986427843570709,9.195307731628418,0.0,0.0,0.0,0.0,0.0,0.0,0.0,0.0,0.0,-0.008106702007353306,0.022096650674939156,0.31315314769744873,0.0,0.0,0.0,0.0,0.0,0.0,0.0,0.0,0.0
1606827283752528503,1376998,1606827283741574289,imu_link,0.08017909526824951,0.001827723579481244,0.05519118160009384,0.9952496290206909,0.0,0.0,0.0,0.0,0.0,0.0,0.0,0.0,0.0,6.324112415313721,-0.2986427843570709,9.195307731628418,0.0,0.0,0.0,0.0,0.0,0.0,0.0,0.0,0.0,-0.008106702007353306,0.022096650674939156,0.31315314769744873,0.0,0.0,0.0,0.0,0.0,0.0,0.0,0.0,0.0
1606827283752539763,1376999,1606827283741642202,imu_link,0.08017905056476593,0.0018263458041474223,0.055190905928611755,0.9952497482299805,0.0,0.0,0.0,0.0,0.0,0.0,0.0,0.0,0.0,6.324067115783691,-0.29879704117774963,9.195292472839355,0.0,0.0,0.0,0.0,0.0,0.0,0.0,0.0,0.0,0.01705164648592472,0.044691380113363266,0.3241150677204132,0.0,0.0,0.0,0.0,0.0,0.0,0.0,0.0,0.0
1606827283752547896,1377000,1606827283741700729,imu_link,0.08017905056476593,0.0018263458041474223,0.055190905928611755,0.9952497482299805,0.0,0.0,0.0,0.0,0.0,0.0,0.0,0.0,0.0,6.324067115783691,-0.29879704117774963,9.195292472839355,0.0,0.0,0.0,0.0,0.0,0.0,0.0,0.0,0.0,0.01705164648592472,0.044691380113363266,0.3241150677204132,0.0,0.0,0.0,0.0,0.0,0.0,0.0,0.0,0.0
1606827283752557560,1377001,1606827283741774283,imu_link,0.08018051087856293,0.0018270526779815555,0.05519162490963936,0.9952495694160461,0.0,0.0,0.0,0.0,0.0,0.0,0.0,0.0,0.0,6.324155330657959,-0.29873231053352356,9.195466041564941,0.0,0.0,0.0,0.0,0.0,0.0,0.0,0.0,0.0,0.011919640935957432,0.055092889815568924,0.33180540800094604,0.0,0.0,0.0,0.0,0.0,0.0,0.0,0.0,0.0
1606827283758234558,1377002,1606827283741842493,imu_link,0.08018051087856293,0.0018270526779815555,0.05519162490963936,0.9952495694160461,0.0,0.0,0.0,0.0,0.0,0.0,0.0,0.0,0.0,6.324155330657959,-0.29873231053352356,9.195466041564941,0.0,0.0,0.0,0.0,0.0,0.0,0.0,0.0,0.0,0.011919640935957432,0.055092889815568924,0.33180540800094604,0.0,0.0,0.0,0.0,0.0,0.0,0.0,0.0,0.0
1606827283761273505,1377003,1606827283754497847,imu_link,0.08018172532320023,0.001825064537115395,0.05519186705350876,0.9952494502067566,0.0,0.0,0.0,0.0,0.0,0.0,0.0,0.0,0.0,6.324164390563965,-0.29896894097328186,9.195592880249023,0.0,0.0,0.0,0.0,0.0,0.0,0.0,0.0,0.0,-0.0031207608990371227,0.03546615689992905,0.32980555295944214,0.0,0.0,0.0,0.0,0.0,0.0,0.0,0.0,0.0
1606827283770658336,1377004,1606827283754621733,imu_link,0.08018172532320023,0.001825064537115395,0.05519186705350876,0.9952494502067566,0.0,0.0,0.0,0.0,0.0,0.0,0.0,0.0,0.0,6.324164390563965,-0.29896894097328186,9.195592880249023,0.0,0.0,0.0,0.0,0.0,0.0,0.0,0.0,0.0,-0.0031207608990371227,0.03546615689992905,0.32980555295944214,0.0,0.0,0.0,0.0,0.0,0.0,0.0,0.0,0.0
1606827283770683696,1377005,1606827283754782078,imu_link,0.08018515259027481,0.001825943123549223,0.05519251897931099,0.9952491521835327,0.0,0.0,0.0,0.0,0.0,0.0,0.0,0.0,0.0,6.324246406555176,-0.2988964915275574,9.195991516113281,0.0,0.0,0.0,0.0,0.0,0.0,0.0,0.0,0.0,-0.004371257033199072,0.037963371723890305,0.3324744403362274,0.0,0.0,0.0,0.0,0.0,0.0,0.0,0.0,0.0
1606827283770713962,1377006,1606827283754854289,imu_link,0.08018515259027481,0.001825943123549223,0.05519251897931099,0.9952491521835327,0.0,0.0,0.0,0.0,0.0,0.0,0.0,0.0,0.0,6.324246406555176,-0.2988964915275574,9.195991516113281,0.0,0.0,0.0,0.0,0.0,0.0,0.0,0.0,0.0,-0.004371257033199072,0.037963371723890305,0.3324744403362274,0.0,0.0,0.0,0.0,0.0,0.0,0.0,0.0,0.0
1606827283770722693,1377007,1606827283754923092,imu_link,0.0801863893866539,0.00182743975892663,0.055195681750774384,0.9952488541603088,0.0,0.0,0.0,0.0,0.0,0.0,0.0,0.0,0.0,6.324621677398682,-0.2987627685070038,9.196141242980957,0.0,0.0,0.0,0.0,0.0,0.0,0.0,0.0,0.0,-0.0050153350457549095,0.05397377908229828,0.3370649516582489,0.0,0.0,0.0,0.0,0.0,0.0,0.0,0.0,0.0
1606827283773245546,1377008,1606827283755007959,imu_link,0.0801863893866539,0.00182743975892663,0.055195681750774384,0.9952488541603088,0.0,0.0,0.0,0.0,0.0,0.0,0.0,0.0,0.0,6.324621677398682,-0.2987627685070038,9.196141242980957,0.0,0.0,0.0,0.0,0.0,0.0,0.0,0.0,0.0,-0.0050153350457549095,0.05397377908229828,0.3370649516582489,0.0,0.0,0.0,0.0,0.0,0.0,0.0,0.0,0.0
1606827283773281973,1377009,1606827283755097111,imu_link,0.08018524944782257,0.001827478175982833,0.055196959525346756,0.9952488541603088,0.0,0.0,0.0,0.0,0.0,0.0,0.0,0.0,0.0,6.324769020080566,-0.29876288771629333,9.19601058959961,0.0,0.0,0.0,0.0,0.0,0.0,0.0,0.0,0.0,0.005981478840112686,0.048220761120319366,0.3320189118385315,0.0,0.0,0.0,0.0,0.0,0.0,0.0,0.0,0.0
1606827283773317271,1377010,1606827283755168726,imu_link,0.08018524944782257,0.001827478175982833,0.055196959525346756,0.9952488541603088,0.0,0.0,0.0,0.0,0.0,0.0,0.0,0.0,0.0,6.324769020080566,-0.29876288771629333,9.19601058959961,0.0,0.0,0.0,0.0,0.0,0.0,0.0,0.0,0.0,0.005981478840112686,0.048220761120319366,0.3320189118385315,0.0,0.0,0.0,0.0,0.0,0.0,0.0,0.0,0.0
1606827283773329725,1377011,1606827283755243378,imu_link,0.08018586784601212,0.001825814601033926,0.055194638669490814,0.9952489733695984,0.0,0.0,0.0,0.0,0.0,0.0,0.0,0.0,0.0,6.324487686157227,-0.298935204744339,9.196072578430176,0.0,0.0,0.0,0.0,0.0,0.0,0.0,0.0,0.0,-0.00568768847733736,0.03967971354722977,0.3197726607322693,0.0,0.0,0.0,0.0,0.0,0.0,0.0,0.0,0.0
1606827283774833488,1377012,1606827283755354046,imu_link,0.08018586784601212,0.001825814601033926,0.055194638669490814,0.9952489733695984,0.0,0.0,0.0,0.0,0.0,0.0,0.0,0.0,0.0,6.324487686157227,-0.298935204744339,9.196072578430176,0.0,0.0,0.0,0.0,0.0,0.0,0.0,0.0,0.0,-0.00568768847733736,0.03967971354722977,0.3197726607322693,0.0,0.0,0.0,0.0,0.0,0.0,0.0,0.0,0.0
1606827283774853657,1377013,1606827283755429999,imu_link,0.08018645644187927,0.0018239059718325734,0.055194541811943054,0.9952489137649536,0.0,0.0,0.0,0.0,0.0,0.0,0.0,0.0,0.0,6.324459075927734,-0.29915574193000793,9.196127891540527,0.0,0.0,0.0,0.0,0.0,0.0,0.0,0.0,0.0,-0.020412398502230644,0.02964704856276512,0.29541900753974915,0.0,0.0,0.0,0.0,0.0,0.0,0.0,0.0,0.0
1606827283777880369,1377014,1606827283768371612,imu_link,0.08018645644187927,0.0018239059718325734,0.055194541811943054,0.9952489137649536,0.0,0.0,0.0,0.0,0.0,0.0,0.0,0.0,0.0,6.324459075927734,-0.29915574193000793,9.196127891540527,0.0,0.0,0.0,0.0,0.0,0.0,0.0,0.0,0.0,-0.020412398502230644,0.02964704856276512,0.29541900753974915,0.0,0.0,0.0,0.0,0.0,0.0,0.0,0.0,0.0
1606827283777910746,1377015,1606827283768501387,imu_link,0.08018531650304794,0.0018232653383165598,0.05519477650523186,0.9952490329742432,0.0,0.0,0.0,0.0,0.0,0.0,0.0,0.0,0.0,6.3244805335998535,-0.2992236912250519,9.195992469787598,0.0,0.0,0.0,0.0,0.0,0.0,0.0,0.0,0.0,-0.016467200592160225,0.04050759971141815,0.2935451865196228,0.0,0.0,0.0,0.0,0.0,0.0,0.0,0.0,0.0
1606827283777927565,1377016,1606827283768638054,imu_link,0.08018531650304794,0.0018232653383165598,0.05519477650523186,0.9952490329742432,0.0,0.0,0.0,0.0,0.0,0.0,0.0,0.0,0.0,6.3244805335998535,-0.2992236912250519,9.195992469787598,0.0,0.0,0.0,0.0,0.0,0.0,0.0,0.0,0.0,-0.016467200592160225,0.04050759971141815,0.2935451865196228,0.0,0.0,0.0,0.0,0.0,0.0,0.0,0.0,0.0
1606827283777944308,1377017,1606827283768710826,imu_link,0.08018739521503448,0.0018209972186014056,0.055194202810525894,0.9952489137649536,0.0,0.0,0.0,0.0,0.0,0.0,0.0,0.0,0.0,6.324393272399902,-0.2994903028011322,9.196216583251953,0.0,0.0,0.0,0.0,0.0,0.0,0.0,0.0,0.0,-0.003331622574478388,0.06132073700428009,0.31775805354118347,0.0,0.0,0.0,0.0,0.0,0.0,0.0,0.0,0.0
1606827283778319911,1377018,1606827283768790575,imu_link,0.08018739521503448,0.0018209972186014056,0.055194202810525894,0.9952489137649536,0.0,0.0,0.0,0.0,0.0,0.0,0.0,0.0,0.0,6.324393272399902,-0.2994903028011322,9.196216583251953,0.0,0.0,0.0,0.0,0.0,0.0,0.0,0.0,0.0,-0.003331622574478388,0.06132073700428009,0.31775805354118347,0.0,0.0,0.0,0.0,0.0,0.0,0.0,0.0,0.0
1606827283778346673,1377019,1606827283768864888,imu_link,0.08018951863050461,0.0018190841656178236,0.055193278938531876,0.9952487945556641,0.0,0.0,0.0,0.0,0.0,0.0,0.0,0.0,0.0,6.324268817901611,-0.2997134029865265,9.19644832611084,0.0,0.0,0.0,0.0,0.0,0.0,0.0,0.0,0.0,0.0020000869408249855,0.0634116604924202,0.32933616638183594,0.0,0.0,0.0,0.0,0.0,0.0,0.0,0.0,0.0
1606827283778360016,1377020,1606827283768953952,imu_link,0.08018951863050461,0.0018190841656178236,0.055193278938531876,0.9952487945556641,0.0,0.0,0.0,0.0,0.0,0.0,0.0,0.0,0.0,6.324268817901611,-0.2997134029865265,9.19644832611084,0.0,0.0,0.0,0.0,0.0,0.0,0.0,0.0,0.0,0.0020000869408249855,0.0634116604924202,0.32933616638183594,0.0,0.0,0.0,0.0,0.0,0.0,0.0,0.0,0.0
1606827283778366669,1377021,1606827283769027442,imu_link,0.08018963783979416,0.0018189557595178485,0.05519388988614082,0.9952486753463745,0.0,0.0,0.0,0.0,0.0,0.0,0.0,0.0,0.0,6.324337959289551,-0.2997344434261322,9.19646167755127,0.0,0.0,0.0,0.0,0.0,0.0,0.0,0.0,0.0,-0.0033257370814681053,0.046795204281806946,0.3218978941440582,0.0,0.0,0.0,0.0,0.0,0.0,0.0,0.0,0.0
1606827283780381446,1377022,1606827283769108798,imu_link,0.08018963783979416,0.0018189557595178485,0.05519388988614082,0.9952486753463745,0.0,0.0,0.0,0.0,0.0,0.0,0.0,0.0,0.0,6.324337959289551,-0.2997344434261322,9.19646167755127,0.0,0.0,0.0,0.0,0.0,0.0,0.0,0.0,0.0,-0.0033257370814681053,0.046795204281806946,0.3218978941440582,0.0,0.0,0.0,0.0,0.0,0.0,0.0,0.0,0.0
1606827283780410188,1377023,1606827283769188200,imu_link,0.08018927276134491,0.0018189097754657269,0.05519380792975426,0.9952487945556641,0.0,0.0,0.0,0.0,0.0,0.0,0.0,0.0,0.0,6.3243279457092285,-0.2997365891933441,9.196418762207031,0.0,0.0,0.0,0.0,0.0,0.0,0.0,0.0,0.0,-0.0016653012717142701,0.04374432563781738,0.2950626015663147,0.0,0.0,0.0,0.0,0.0,0.0,0.0,0.0,0.0
1606827283780427372,1377024,1606827283769265988,imu_link,0.08018927276134491,0.0018189097754657269,0.05519380792975426,0.9952487945556641,0.0,0.0,0.0,0.0,0.0,0.0,0.0,0.0,0.0,6.3243279457092285,-0.2997365891933441,9.196418762207031,0.0,0.0,0.0,0.0,0.0,0.0,0.0,0.0,0.0,-0.0016653012717142701,0.04374432563781738,0.2950626015663147,0.0,0.0,0.0,0.0,0.0,0.0,0.0,0.0,0.0
1606827283790136362,1377025,1606827283781940467,imu_link,0.08018827438354492,0.0018179884646087885,0.05519483983516693,0.9952487349510193,0.0,0.0,0.0,0.0,0.0,0.0,0.0,0.0,0.0,6.324438095092773,-0.2998448312282562,9.19629955291748,0.0,0.0,0.0,0.0,0.0,0.0,0.0,0.0,0.0,-0.006533734500408173,0.041678231209516525,0.2919381260871887,0.0,0.0,0.0,0.0,0.0,0.0,0.0,0.0,0.0
1606827283793037683,1377026,1606827283782066777,imu_link,0.08018827438354492,0.0018179884646087885,0.05519483983516693,0.9952487349510193,0.0,0.0,0.0,0.0,0.0,0.0,0.0,0.0,0.0,6.324438095092773,-0.2998448312282562,9.19629955291748,0.0,0.0,0.0,0.0,0.0,0.0,0.0,0.0,0.0,-0.006533734500408173,0.041678231209516525,0.2919381260871887,0.0,0.0,0.0,0.0,0.0,0.0,0.0,0.0,0.0
1606827283793052948,1377027,1606827283782231344,imu_link,0.08018868416547775,0.0018179042963311076,0.0551951639354229,0.9952486753463745,0.0,0.0,0.0,0.0,0.0,0.0,0.0,0.0,0.0,6.324474334716797,-0.29986003041267395,9.196345329284668,0.0,0.0,0.0,0.0,0.0,0.0,0.0,0.0,0.0,7.316761184483767e-05,0.024167433381080627,0.3058395981788635,0.0,0.0,0.0,0.0,0.0,0.0,0.0,0.0,0.0
1606827283793067904,1377028,1606827283782323169,imu_link,0.08018868416547775,0.0018179042963311076,0.0551951639354229,0.9952486753463745,0.0,0.0,0.0,0.0,0.0,0.0,0.0,0.0,0.0,6.324474334716797,-0.29986003041267395,9.196345329284668,0.0,0.0,0.0,0.0,0.0,0.0,0.0,0.0,0.0,7.316761184483767e-05,0.024167433381080627,0.3058395981788635,0.0,0.0,0.0,0.0,0.0,0.0,0.0,0.0,0.0
1606827283793076318,1377029,1606827283782393432,imu_link,0.08019190281629562,0.0018183786887675524,0.05519886687397957,0.9952482581138611,0.0,0.0,0.0,0.0,0.0,0.0,0.0,0.0,0.0,6.324901580810547,-0.299860417842865,9.19671630859375,0.0,0.0,0.0,0.0,0.0,0.0,0.0,0.0,0.0,0.01639542728662491,0.05471751093864441,0.326626181602478,0.0,0.0,0.0,0.0,0.0,0.0,0.0,0.0,0.0
1606827283794469008,1377030,1606827283782483431,imu_link,0.08019190281629562,0.0018183786887675524,0.05519886687397957,0.9952482581138611,0.0,0.0,0.0,0.0,0.0,0.0,0.0,0.0,0.0,6.324901580810547,-0.299860417842865,9.19671630859375,0.0,0.0,0.0,0.0,0.0,0.0,0.0,0.0,0.0,0.01639542728662491,0.05471751093864441,0.326626181602478,0.0,0.0,0.0,0.0,0.0,0.0,0.0,0.0,0.0
1606827283794492077,1377031,1606827283782558449,imu_link,0.08019214868545532,0.0018186939414590597,0.05519783869385719,0.9952483177185059,0.0,0.0,0.0,0.0,0.0,0.0,0.0,0.0,0.0,6.324786186218262,-0.2998165488243103,9.196746826171875,0.0,0.0,0.0,0.0,0.0,0.0,0.0,0.0,0.0,0.0034567038528621197,0.04313553497195244,0.3221086859703064,0.0,0.0,0.0,0.0,0.0,0.0,0.0,0.0,0.0
1606827283794506099,1377032,1606827283782626954,imu_link,0.08019214868545532,0.0018186939414590597,0.05519783869385719,0.9952483177185059,0.0,0.0,0.0,0.0,0.0,0.0,0.0,0.0,0.0,6.324786186218262,-0.2998165488243103,9.196746826171875,0.0,0.0,0.0,0.0,0.0,0.0,0.0,0.0,0.0,0.0034567038528621197,0.04313553497195244,0.3221086859703064,0.0,0.0,0.0,0.0,0.0,0.0,0.0,0.0,0.0
1606827283794523391,1377033,1606827283782698777,imu_link,0.08019459992647171,0.0018182086059823632,0.05519591644406319,0.9952482581138611,0.0,0.0,0.0,0.0,0.0,0.0,0.0,0.0,0.0,6.32456111907959,-0.29986974596977234,9.197025299072266,0.0,0.0,0.0,0.0,0.0,0.0,0.0,0.0,0.0,0.004570632707327604,0.008889108896255493,0.32108399271965027,0.0,0.0,0.0,0.0,0.0,0.0,0.0,0.0,0.0
1606827283794661893,1377034,1606827283782763085,imu_link,0.08019459992647171,0.0018182086059823632,0.05519591644406319,0.9952482581138611,0.0,0.0,0.0,0.0,0.0,0.0,0.0,0.0,0.0,6.32456111907959,-0.29986974596977234,9.197025299072266,0.0,0.0,0.0,0.0,0.0,0.0,0.0,0.0,0.0,0.004570632707327604,0.008889108896255493,0.32108399271965027,0.0,0.0,0.0,0.0,0.0,0.0,0.0,0.0,0.0
1606827283794673094,1377035,1606827283782832772,imu_link,0.08019454777240753,0.0018203823128715158,0.05519724264740944,0.9952480792999268,0.0,0.0,0.0,0.0,0.0,0.0,0.0,0.0,0.0,6.324733257293701,-0.2996337413787842,9.19703483581543,0.0,0.0,0.0,0.0,0.0,0.0,0.0,0.0,0.0,0.027464432641863823,0.03574662283062935,0.32791659235954285,0.0,0.0,0.0,0.0,0.0,0.0,0.0,0.0,0.0
1606827283801598280,1377036,1606827283794669316,imu_link,0.08019454777240753,0.0018203823128715158,0.05519724264740944,0.9952480792999268,0.0,0.0,0.0,0.0,0.0,0.0,0.0,0.0,0.0,6.324733257293701,-0.2996337413787842,9.19703483581543,0.0,0.0,0.0,0.0,0.0,0.0,0.0,0.0,0.0,0.027464432641863823,0.03574662283062935,0.32791659235954285,0.0,0.0,0.0,0.0,0.0,0.0,0.0,0.0,0.0
1606827283802973762,1377037,1606827283794820264,imu_link,0.08019563555717468,0.0018232486909255385,0.05519930645823479,0.9952479004859924,0.0,0.0,0.0,0.0,0.0,0.0,0.0,0.0,0.0,6.324995517730713,-0.29933270812034607,9.197175025939941,0.0,0.0,0.0,0.0,0.0,0.0,0.0,0.0,0.0,0.03567551076412201,0.047173257917165756,0.3206072151660919,0.0,0.0,0.0,0.0,0.0,0.0,0.0,0.0,0.0
1606827283802998360,1377038,1606827283794972481,imu_link,0.08019563555717468,0.0018232486909255385,0.05519930645823479,0.9952479004859924,0.0,0.0,0.0,0.0,0.0,0.0,0.0,0.0,0.0,6.324995517730713,-0.29933270812034607,9.197175025939941,0.0,0.0,0.0,0.0,0.0,0.0,0.0,0.0,0.0,0.03567551076412201,0.047173257917165756,0.3206072151660919,0.0,0.0,0.0,0.0,0.0,0.0,0.0,0.0,0.0
1606827283803010165,1377039,1606827283795057091,imu_link,0.08019538968801498,0.001822932856157422,0.05520014464855194,0.9952479004859924,0.0,0.0,0.0,0.0,0.0,0.0,0.0,0.0,0.0,6.325088024139404,-0.29937487840652466,9.197144508361816,0.0,0.0,0.0,0.0,0.0,0.0,0.0,0.0,0.0,0.006501591764390469,0.047132253646850586,0.33193162083625793,0.0,0.0,0.0,0.0,0.0,0.0,0.0,0.0,0.0
1606827283803024550,1377040,1606827283795157267,imu_link,0.08019538968801498,0.001822932856157422,0.05520014464855194,0.9952479004859924,0.0,0.0,0.0,0.0,0.0,0.0,0.0,0.0,0.0,6.325088024139404,-0.29937487840652466,9.197144508361816,0.0,0.0,0.0,0.0,0.0,0.0,0.0,0.0,0.0,0.006501591764390469,0.047132253646850586,0.33193162083625793,0.0,0.0,0.0,0.0,0.0,0.0,0.0,0.0,0.0
1606827283804008378,1377041,1606827283795321566,imu_link,0.08019649982452393,0.0018236645264551044,0.05519694462418556,0.995248019695282,0.0,0.0,0.0,0.0,0.0,0.0,0.0,0.0,0.0,6.324728012084961,-0.29926905035972595,9.197278022766113,0.0,0.0,0.0,0.0,0.0,0.0,0.0,0.0,0.0,-0.0038132069166749716,0.055657584220170975,0.3185053765773773,0.0,0.0,0.0,0.0,0.0,0.0,0.0,0.0,0.0
1606827283804046938,1377042,1606827283795417784,imu_link,0.08019649982452393,0.0018236645264551044,0.05519694462418556,0.995248019695282,0.0,0.0,0.0,0.0,0.0,0.0,0.0,0.0,0.0,6.324728012084961,-0.29926905035972595,9.197278022766113,0.0,0.0,0.0,0.0,0.0,0.0,0.0,0.0,0.0,-0.0038132069166749716,0.055657584220170975,0.3185053765773773,0.0,0.0,0.0,0.0,0.0,0.0,0.0,0.0,0.0
1606827283804061243,1377043,1606827283795495358,imu_link,0.08019722253084183,0.0018230752320960164,0.055196791887283325,0.9952479600906372,0.0,0.0,0.0,0.0,0.0,0.0,0.0,0.0,0.0,6.324705600738525,-0.2993394136428833,9.197357177734375,0.0,0.0,0.0,0.0,0.0,0.0,0.0,0.0,0.0,0.0070888567715883255,0.058852553367614746,0.31577980518341064,0.0,0.0,0.0,0.0,0.0,0.0,0.0,0.0,0.0
1606827283804122439,1377044,1606827283795574024,imu_link,0.08019722253084183,0.0018230752320960164,0.055196791887283325,0.9952479600906372,0.0,0.0,0.0,0.0,0.0,0.0,0.0,0.0,0.0,6.324705600738525,-0.2993394136428833,9.197357177734375,0.0,0.0,0.0,0.0,0.0,0.0,0.0,0.0,0.0,0.0070888567715883255,0.058852553367614746,0.31577980518341064,0.0,0.0,0.0,0.0,0.0,0.0,0.0,0.0,0.0
1606827283804180339,1377045,1606827283795652109,imu_link,0.08019688725471497,0.001824978506192565,0.05519786477088928,0.9952479004859924,0.0,0.0,0.0,0.0,0.0,0.0,0.0,0.0,0.0,6.324846267700195,-0.29913008213043213,9.1973295211792,0.0,0.0,0.0,0.0,0.0,0.0,0.0,0.0,0.0,-0.0016806569183245301,0.05074888467788696,0.32648831605911255,0.0,0.0,0.0,0.0,0.0,0.0,0.0,0.0,0.0
1606827283815201788,1377046,1606827283808475942,imu_link,0.08019688725471497,0.001824978506192565,0.05519786477088928,0.9952479004859924,0.0,0.0,0.0,0.0,0.0,0.0,0.0,0.0,0.0,6.324846267700195,-0.29913008213043213,9.1973295211792,0.0,0.0,0.0,0.0,0.0,0.0,0.0,0.0,0.0,-0.0016806569183245301,0.05074888467788696,0.32648831605911255,0.0,0.0,0.0,0.0,0.0,0.0,0.0,0.0,0.0
1606827283816332949,1377047,1606827283808619534,imu_link,0.08019609749317169,0.0018246816471219063,0.05519527569413185,0.9952481389045715,0.0,0.0,0.0,0.0,0.0,0.0,0.0,0.0,0.0,6.324546813964844,-0.29913514852523804,9.19723892211914,0.0,0.0,0.0,0.0,0.0,0.0,0.0,0.0,0.0,0.003211845410987735,0.059589873999357224,0.3135700225830078,0.0,0.0,0.0,0.0,0.0,0.0,0.0,0.0,0.0
1606827283816360942,1377048,1606827283808803178,imu_link,0.08019609749317169,0.0018246816471219063,0.05519527569413185,0.9952481389045715,0.0,0.0,0.0,0.0,0.0,0.0,0.0,0.0,0.0,6.324546813964844,-0.29913514852523804,9.19723892211914,0.0,0.0,0.0,0.0,0.0,0.0,0.0,0.0,0.0,0.003211845410987735,0.059589873999357224,0.3135700225830078,0.0,0.0,0.0,0.0,0.0,0.0,0.0,0.0,0.0
1606827283816371582,1377049,1606827283808888514,imu_link,0.08019383996725082,0.0018254166934639215,0.05520067363977432,0.995248019695282,0.0,0.0,0.0,0.0,0.0,0.0,0.0,0.0,0.0,6.325171947479248,-0.29908666014671326,9.196981430053711,0.0,0.0,0.0,0.0,0.0,0.0,0.0,0.0,0.0,0.010267951525747776,0.07902185618877411,0.30460336804389954,0.0,0.0,0.0,0.0,0.0,0.0,0.0,0.0,0.0
1606827283816379328,1377050,1606827283808988410,imu_link,0.08019383996725082,0.0018254166934639215,0.05520067363977432,0.995248019695282,0.0,0.0,0.0,0.0,0.0,0.0,0.0,0.0,0.0,6.325171947479248,-0.29908666014671326,9.196981430053711,0.0,0.0,0.0,0.0,0.0,0.0,0.0,0.0,0.0,0.010267951525747776,0.07902185618877411,0.30460336804389954,0.0,0.0,0.0,0.0,0.0,0.0,0.0,0.0,0.0
1606827283817418662,1377051,1606827283809076523,imu_link,0.08019432425498962,0.0018244892125949264,0.05520043522119522,0.995248019695282,0.0,0.0,0.0,0.0,0.0,0.0,0.0,0.0,0.0,6.325135707855225,-0.29919329285621643,9.19703197479248,0.0,0.0,0.0,0.0,0.0,0.0,0.0,0.0,0.0,0.0019930631387978792,0.057517874985933304,0.2854243814945221,0.0,0.0,0.0,0.0,0.0,0.0,0.0,0.0,0.0
1606827283817429360,1377052,1606827283809186733,imu_link,0.08019432425498962,0.0018244892125949264,0.05520043522119522,0.995248019695282,0.0,0.0,0.0,0.0,0.0,0.0,0.0,0.0,0.0,6.325135707855225,-0.29919329285621643,9.19703197479248,0.0,0.0,0.0,0.0,0.0,0.0,0.0,0.0,0.0,0.0019930631387978792,0.057517874985933304,0.2854243814945221,0.0,0.0,0.0,0.0,0.0,0.0,0.0,0.0,0.0
1606827283817434973,1377053,1606827283809265284,imu_link,0.08019257336854935,0.0018238958436995745,0.055202666670084,0.995248019695282,0.0,0.0,0.0,0.0,0.0,0.0,0.0,0.0,0.0,6.325385570526123,-0.2992703914642334,9.196826934814453,0.0,0.0,0.0,0.0,0.0,0.0,0.0,0.0,0.0,-0.014532860368490219,0.0385802797973156,0.3015276789665222,0.0,0.0,0.0,0.0,0.0,0.0,0.0,0.0,0.0
1606827283817442359,1377054,1606827283809349037,imu_link,0.08019257336854935,0.0018238958436995745,0.055202666670084,0.995248019695282,0.0,0.0,0.0,0.0,0.0,0.0,0.0,0.0,0.0,6.325385570526123,-0.2992703914642334,9.196826934814453,0.0,0.0,0.0,0.0,0.0,0.0,0.0,0.0,0.0,-0.014532860368490219,0.0385802797973156,0.3015276789665222,0.0,0.0,0.0,0.0,0.0,0.0,0.0,0.0,0.0
1606827283817618732,1377055,1606827283809422111,imu_link,0.08019239455461502,0.001824109349399805,0.05520441755652428,0.9952478408813477,0.0,0.0,0.0,0.0,0.0,0.0,0.0,0.0,0.0,6.325589179992676,-0.2992610037326813,9.196807861328125,0.0,0.0,0.0,0.0,0.0,0.0,0.0,0.0,0.0,-0.01641891896724701,0.05503375083208084,0.3225596845149994,0.0,0.0,0.0,0.0,0.0,0.0,0.0,0.0,0.0
1606827283817638807,1377056,1606827283809504531,imu_link,0.08019239455461502,0.001824109349399805,0.05520441755652428,0.9952478408813477,0.0,0.0,0.0,0.0,0.0,0.0,0.0,0.0,0.0,6.325589179992676,-0.2992610037326813,9.196807861328125,0.0,0.0,0.0,0.0,0.0,0.0,0.0,0.0,0.0,-0.01641891896724701,0.05503375083208084,0.3225596845149994,0.0,0.0,0.0,0.0,0.0,0.0,0.0,0.0,0.0
1606827283852553651,1377057,1606827283822009629,imu_link,0.08019305020570755,0.001822231337428093,0.05520130693912506,0.995248019695282,0.0,0.0,0.0,0.0,0.0,0.0,0.0,0.0,0.0,6.3252153396606445,-0.29945072531700134,9.19687271118164,0.0,0.0,0.0,0.0,0.0,0.0,0.0,0.0,0.0,-0.008851944468915462,0.05882608890533447,0.3239210247993469,0.0,0.0,0.0,0.0,0.0,0.0,0.0,0.0,0.0
1606827283853404240,1377058,1606827283822146951,imu_link,0.08019305020570755,0.001822231337428093,0.05520130693912506,0.995248019695282,0.0,0.0,0.0,0.0,0.0,0.0,0.0,0.0,0.0,6.3252153396606445,-0.29945072531700134,9.19687271118164,0.0,0.0,0.0,0.0,0.0,0.0,0.0,0.0,0.0,-0.008851944468915462,0.05882608890533447,0.3239210247993469,0.0,0.0,0.0,0.0,0.0,0.0,0.0,0.0,0.0
1606827283853439893,1377059,1606827283822332183,imu_link,0.08019427955150604,0.0018216243479400873,0.05520337074995041,0.9952477812767029,0.0,0.0,0.0,0.0,0.0,0.0,0.0,0.0,0.0,6.325445652008057,-0.2995467483997345,9.197009086608887,0.0,0.0,0.0,0.0,0.0,0.0,0.0,0.0,0.0,-0.0020688455551862717,0.05659903585910797,0.326077401638031,0.0,0.0,0.0,0.0,0.0,0.0,0.0,0.0,0.0
1606827283853450482,1377060,1606827283822436860,imu_link,0.08019427955150604,0.0018216243479400873,0.05520337074995041,0.9952477812767029,0.0,0.0,0.0,0.0,0.0,0.0,0.0,0.0,0.0,6.325445652008057,-0.2995467483997345,9.197009086608887,0.0,0.0,0.0,0.0,0.0,0.0,0.0,0.0,0.0,-0.0020688455551862717,0.05659903585910797,0.326077401638031,0.0,0.0,0.0,0.0,0.0,0.0,0.0,0.0,0.0
1606827283853468446,1377061,1606827283822514835,imu_link,0.08019382506608963,0.0018207795219495893,0.05519971251487732,0.995248019695282,0.0,0.0,0.0,0.0,0.0,0.0,0.0,0.0,0.0,6.325019836425781,-0.299606591463089,9.196951866149902,0.0,0.0,0.0,0.0,0.0,0.0,0.0,0.0,0.0,-0.0032852143049240112,0.05303145945072174,0.3117467164993286,0.0,0.0,0.0,0.0,0.0,0.0,0.0,0.0,0.0
