%time,field.header.seq,field.header.stamp,field.header.frame_id,field.orientation.x,field.orientation.y,field.orientation.z,field.orientation.w,field.orientation_covariance0,field.orientation_covariance1,field.orientation_covariance2,field.orientation_covariance3,field.orientation_covariance4,field.orientation_covariance5,field.orientation_covariance6,field.orientation_covariance7,field.orientation_covariance8,field.angular_velocity.x,field.angular_velocity.y,field.angular_velocity.z,field.angular_velocity_covariance0,field.angular_velocity_covariance1,field.angular_velocity_covariance2,field.angular_velocity_covariance3,field.angular_velocity_covariance4,field.angular_velocity_covariance5,field.angular_velocity_covariance6,field.angular_velocity_covariance7,field.angular_velocity_covariance8,field.linear_acceleration.x,field.linear_acceleration.y,field.linear_acceleration.z,field.linear_acceleration_covariance0,field.linear_acceleration_covariance1,field.linear_acceleration_covariance2,field.linear_acceleration_covariance3,field.linear_acceleration_covariance4,field.linear_acceleration_covariance5,field.linear_acceleration_covariance6,field.linear_acceleration_covariance7,field.linear_acceleration_covariance8
1606828498516671228,2348797,1606828498506174399,imu_link,0.0019447084050625563,0.0006686014821752906,0.1391638070344925,0.9902672171592712,0.0,0.0,0.0,0.0,0.0,0.0,0.0,0.0,0.0,15.999048233032227,0.044858142733573914,0.2313411384820938,0.0,0.0,0.0,0.0,0.0,0.0,0.0,0.0,0.0,-0.010913806036114693,-0.008815960958600044,0.3332217335700989,0.0,0.0,0.0,0.0,0.0,0.0,0.0,0.0,0.0
1606828498516718917,2348798,1606828498506280328,imu_link,0.0019447084050625563,0.0006686014821752906,0.1391638070344925,0.9902672171592712,0.0,0.0,0.0,0.0,0.0,0.0,0.0,0.0,0.0,15.999048233032227,0.044858142733573914,0.2313411384820938,0.0,0.0,0.0,0.0,0.0,0.0,0.0,0.0,0.0,-0.010913806036114693,-0.008815960958600044,0.3332217335700989,0.0,0.0,0.0,0.0,0.0,0.0,0.0,0.0,0.0
1606828498516769405,2348799,1606828498506388274,imu_link,0.0019468410173431039,0.0006703572580590844,0.1391635686159134,0.9902673363685608,0.0,0.0,0.0,0.0,0.0,0.0,0.0,0.0,0.0,15.999022483825684,0.04502343013882637,0.23161108791828156,0.0,0.0,0.0,0.0,0.0,0.0,0.0,0.0,0.0,0.010931530967354774,-0.0012028872733935714,0.3255615830421448,0.0,0.0,0.0,0.0,0.0,0.0,0.0,0.0,0.0
1606828498516785204,2348800,1606828498506455381,imu_link,0.0019468410173431039,0.0006703572580590844,0.1391635686159134,0.9902673363685608,0.0,0.0,0.0,0.0,0.0,0.0,0.0,0.0,0.0,15.999022483825684,0.04502343013882637,0.23161108791828156,0.0,0.0,0.0,0.0,0.0,0.0,0.0,0.0,0.0,0.010931530967354774,-0.0012028872733935714,0.3255615830421448,0.0,0.0,0.0,0.0,0.0,0.0,0.0,0.0,0.0
1606828498516814171,2348801,1606828498506525663,imu_link,0.0019451353000476956,0.0006699571968056262,0.1391664296388626,0.9902669191360474,0.0,0.0,0.0,0.0,0.0,0.0,0.0,0.0,0.0,15.999351501464844,0.04500456526875496,0.23141130805015564,0.0,0.0,0.0,0.0,0.0,0.0,0.0,0.0,0.0,0.012423261068761349,0.0013403571210801601,0.31386885046958923,0.0,0.0,0.0,0.0,0.0,0.0,0.0,0.0,0.0
1606828498516867379,2348802,1606828498506601136,imu_link,0.0019451353000476956,0.0006699571968056262,0.1391664296388626,0.9902669191360474,0.0,0.0,0.0,0.0,0.0,0.0,0.0,0.0,0.0,15.999351501464844,0.04500456526875496,0.23141130805015564,0.0,0.0,0.0,0.0,0.0,0.0,0.0,0.0,0.0,0.012423261068761349,0.0013403571210801601,0.31386885046958923,0.0,0.0,0.0,0.0,0.0,0.0,0.0,0.0,0.0
1606828498516886870,2348803,1606828498506688181,imu_link,0.0019456668524071574,0.0006685369880869985,0.1391667127609253,0.9902668595314026,0.0,0.0,0.0,0.0,0.0,0.0,0.0,0.0,0.0,15.999383926391602,0.04483485966920853,0.23144900798797607,0.0,0.0,0.0,0.0,0.0,0.0,0.0,0.0,0.0,0.02138117328286171,-0.006519061513245106,0.3220959007740021,0.0,0.0,0.0,0.0,0.0,0.0,0.0,0.0,0.0
1606828498516906573,2348804,1606828498506763853,imu_link,0.0019456668524071574,0.0006685369880869985,0.1391667127609253,0.9902668595314026,0.0,0.0,0.0,0.0,0.0,0.0,0.0,0.0,0.0,15.999383926391602,0.04483485966920853,0.23144900798797607,0.0,0.0,0.0,0.0,0.0,0.0,0.0,0.0,0.0,0.02138117328286171,-0.006519061513245106,0.3220959007740021,0.0,0.0,0.0,0.0,0.0,0.0,0.0,0.0,0.0
1606828498519713127,2348805,1606828498506842818,imu_link,0.0019461552146822214,0.0006707091233693063,0.13917003571987152,0.9902663826942444,0.0,0.0,0.0,0.0,0.0,0.0,0.0,0.0,0.0,15.999768257141113,0.0450727753341198,0.23153918981552124,0.0,0.0,0.0,0.0,0.0,0.0,0.0,0.0,0.0,0.013510406017303467,0.003188289701938629,0.32146692276000977,0.0,0.0,0.0,0.0,0.0,0.0,0.0,0.0,0.0
1606828498519738317,2348806,1606828498506918793,imu_link,0.0019461552146822214,0.0006707091233693063,0.13917003571987152,0.9902663826942444,0.0,0.0,0.0,0.0,0.0,0.0,0.0,0.0,0.0,15.999768257141113,0.0450727753341198,0.23153918981552124,0.0,0.0,0.0,0.0,0.0,0.0,0.0,0.0,0.0,0.013510406017303467,0.003188289701938629,0.32146692276000977,0.0,0.0,0.0,0.0,0.0,0.0,0.0,0.0,0.0
1606828498519751543,2348807,1606828498506987021,imu_link,0.0019464538199827075,0.0006725098355673254,0.13916945457458496,0.9902664422988892,0.0,0.0,0.0,0.0,0.0,0.0,0.0,0.0,0.0,15.999701499938965,0.04527248814702034,0.2316017746925354,0.0,0.0,0.0,0.0,0.0,0.0,0.0,0.0,0.0,-0.0021443001460283995,-0.004887748043984175,0.32833564281463623,0.0,0.0,0.0,0.0,0.0,0.0,0.0,0.0,0.0
1606828498529151781,2348808,1606828498520106895,imu_link,0.0019464538199827075,0.0006725098355673254,0.13916945457458496,0.9902664422988892,0.0,0.0,0.0,0.0,0.0,0.0,0.0,0.0,0.0,15.999701499938965,0.04527248814702034,0.2316017746925354,0.0,0.0,0.0,0.0,0.0,0.0,0.0,0.0,0.0,-0.0021443001460283995,-0.004887748043984175,0.32833564281463623,0.0,0.0,0.0,0.0,0.0,0.0,0.0,0.0,0.0
1606828498529691181,2348809,1606828498520225877,imu_link,0.0019489368423819542,0.0006715194904245436,0.1391652226448059,0.9902670979499817,0.0,0.0,0.0,0.0,0.0,0.0,0.0,0.0,0.0,15.999212265014648,0.04512150585651398,0.23186753690242767,0.0,0.0,0.0,0.0,0.0,0.0,0.0,0.0,0.0,0.011026695370674133,-0.0025925314985215664,0.3288927674293518,0.0,0.0,0.0,0.0,0.0,0.0,0.0,0.0,0.0
1606828498529721537,2348810,1606828498520390710,imu_link,0.0019489368423819542,0.0006715194904245436,0.1391652226448059,0.9902670979499817,0.0,0.0,0.0,0.0,0.0,0.0,0.0,0.0,0.0,15.999212265014648,0.04512150585651398,0.23186753690242767,0.0,0.0,0.0,0.0,0.0,0.0,0.0,0.0,0.0,0.011026695370674133,-0.0025925314985215664,0.3288927674293518,0.0,0.0,0.0,0.0,0.0,0.0,0.0,0.0,0.0
1606828498529732608,2348811,1606828498520465265,imu_link,0.0019497314933687449,0.0006711262394674122,0.1391659379005432,0.9902669787406921,0.0,0.0,0.0,0.0,0.0,0.0,0.0,0.0,0.0,15.999295234680176,0.0450640432536602,0.23195147514343262,0.0,0.0,0.0,0.0,0.0,0.0,0.0,0.0,0.0,0.0208978820592165,-0.004611666779965162,0.304413378238678,0.0,0.0,0.0,0.0,0.0,0.0,0.0,0.0,0.0
1606828498529742770,2348812,1606828498520558109,imu_link,0.0019497314933687449,0.0006711262394674122,0.1391659379005432,0.9902669787406921,0.0,0.0,0.0,0.0,0.0,0.0,0.0,0.0,0.0,15.999295234680176,0.0450640432536602,0.23195147514343262,0.0,0.0,0.0,0.0,0.0,0.0,0.0,0.0,0.0,0.0208978820592165,-0.004611666779965162,0.304413378238678,0.0,0.0,0.0,0.0,0.0,0.0,0.0,0.0,0.0
1606828498530446255,2348813,1606828498520636749,imu_link,0.0019500991329550743,0.0006762472912669182,0.13916103541851044,0.9902676343917847,0.0,0.0,0.0,0.0,0.0,0.0,0.0,0.0,0.0,15.99872875213623,0.04564044252038002,0.23207463324069977,0.0,0.0,0.0,0.0,0.0,0.0,0.0,0.0,0.0,0.015912877395749092,-0.014822565950453281,0.32399192452430725,0.0,0.0,0.0,0.0,0.0,0.0,0.0,0.0,0.0
1606828498530457388,2348814,1606828498520738504,imu_link,0.0019500991329550743,0.0006762472912669182,0.13916103541851044,0.9902676343917847,0.0,0.0,0.0,0.0,0.0,0.0,0.0,0.0,0.0,15.99872875213623,0.04564044252038002,0.23207463324069977,0.0,0.0,0.0,0.0,0.0,0.0,0.0,0.0,0.0,0.015912877395749092,-0.014822565950453281,0.32399192452430725,0.0,0.0,0.0,0.0,0.0,0.0,0.0,0.0,0.0
1606828498530471224,2348815,1606828498520808474,imu_link,0.0019495183369144797,0.0006758477538824081,0.139163076877594,0.9902673959732056,0.0,0.0,0.0,0.0,0.0,0.0,0.0,0.0,0.0,15.99896240234375,0.04560389369726181,0.23200243711471558,0.0,0.0,0.0,0.0,0.0,0.0,0.0,0.0,0.0,-0.001187352929264307,-0.004933878313750029,0.3510667085647583,0.0,0.0,0.0,0.0,0.0,0.0,0.0,0.0,0.0
1606828498530479586,2348816,1606828498520905289,imu_link,0.0019495183369144797,0.0006758477538824081,0.139163076877594,0.9902673959732056,0.0,0.0,0.0,0.0,0.0,0.0,0.0,0.0,0.0,15.99896240234375,0.04560389369726181,0.23200243711471558,0.0,0.0,0.0,0.0,0.0,0.0,0.0,0.0,0.0,-0.001187352929264307,-0.004933878313750029,0.3510667085647583,0.0,0.0,0.0,0.0,0.0,0.0,0.0,0.0,0.0
1606828498532462512,2348817,1606828498520971566,imu_link,0.0019509472185745835,0.0006744361598975956,0.13916654884815216,0.9902669191360474,0.0,0.0,0.0,0.0,0.0,0.0,0.0,0.0,0.0,15.999366760253906,0.04542011022567749,0.23214223980903625,0.0,0.0,0.0,0.0,0.0,0.0,0.0,0.0,0.0,-0.0013400132302194834,0.00450509088113904,0.33650854229927063,0.0,0.0,0.0,0.0,0.0,0.0,0.0,0.0,0.0
1606828498532471706,2348818,1606828498521048107,imu_link,0.0019509472185745835,0.0006744361598975956,0.13916654884815216,0.9902669191360474,0.0,0.0,0.0,0.0,0.0,0.0,0.0,0.0,0.0,15.999366760253906,0.04542011022567749,0.23214223980903625,0.0,0.0,0.0,0.0,0.0,0.0,0.0,0.0,0.0,-0.0013400132302194834,0.00450509088113904,0.33650854229927063,0.0,0.0,0.0,0.0,0.0,0.0,0.0,0.0,0.0
1606828498571668130,2348819,1606828498533581077,imu_link,0.00195029575843364,0.0006737337680533528,0.1391662210226059,0.9902669787406921,0.0,0.0,0.0,0.0,0.0,0.0,0.0,0.0,0.0,15.999327659606934,0.045350875705480576,0.2320571094751358,0.0,0.0,0.0,0.0,0.0,0.0,0.0,0.0,0.0,0.005628433544188738,0.018435796722769737,0.3274730145931244,0.0,0.0,0.0,0.0,0.0,0.0,0.0,0.0,0.0
1606828498571692849,2348820,1606828498533699052,imu_link,0.00195029575843364,0.0006737337680533528,0.1391662210226059,0.9902669787406921,0.0,0.0,0.0,0.0,0.0,0.0,0.0,0.0,0.0,15.999327659606934,0.045350875705480576,0.2320571094751358,0.0,0.0,0.0,0.0,0.0,0.0,0.0,0.0,0.0,0.005628433544188738,0.018435796722769737,0.3274730145931244,0.0,0.0,0.0,0.0,0.0,0.0,0.0,0.0,0.0
1606828498571768233,2348821,1606828498533863854,imu_link,0.0019470929400995374,0.0006731122266501188,0.13917183876037598,0.9902660846710205,0.0,0.0,0.0,0.0,0.0,0.0,0.0,0.0,0.0,15.999979972839355,0.045330096036195755,0.23168402910232544,0.0,0.0,0.0,0.0,0.0,0.0,0.0,0.0,0.0,-0.0036631913390010595,0.02094081975519657,0.3374148905277252,0.0,0.0,0.0,0.0,0.0,0.0,0.0,0.0,0.0
1606828498571796090,2348822,1606828498533944811,imu_link,0.0019470929400995374,0.0006731122266501188,0.13917183876037598,0.9902660846710205,0.0,0.0,0.0,0.0,0.0,0.0,0.0,0.0,0.0,15.999979972839355,0.045330096036195755,0.23168402910232544,0.0,0.0,0.0,0.0,0.0,0.0,0.0,0.0,0.0,-0.0036631913390010595,0.02094081975519657,0.3374148905277252,0.0,0.0,0.0,0.0,0.0,0.0,0.0,0.0,0.0
1606828498571813237,2348823,1606828498534013445,imu_link,0.0019463635981082916,0.0006742685218341649,0.13917261362075806,0.9902660250663757,0.0,0.0,0.0,0.0,0.0,0.0,0.0,0.0,0.0,16.00006675720215,0.04547276347875595,0.2316197007894516,0.0,0.0,0.0,0.0,0.0,0.0,0.0,0.0,0.0,-0.011559441685676575,-0.006683897227048874,0.3296496272087097,0.0,0.0,0.0,0.0,0.0,0.0,0.0,0.0,0.0
1606828498571846317,2348824,1606828498534117686,imu_link,0.0019463635981082916,0.0006742685218341649,0.13917261362075806,0.9902660250663757,0.0,0.0,0.0,0.0,0.0,0.0,0.0,0.0,0.0,16.00006675720215,0.04547276347875595,0.2316197007894516,0.0,0.0,0.0,0.0,0.0,0.0,0.0,0.0,0.0,-0.011559441685676575,-0.006683897227048874,0.3296496272087097,0.0,0.0,0.0,0.0,0.0,0.0,0.0,0.0,0.0
1606828498571859587,2348825,1606828498534191777,imu_link,0.001947868033312261,0.00067379220854491,0.1391790509223938,0.9902650713920593,0.0,0.0,0.0,0.0,0.0,0.0,0.0,0.0,0.0,16.000812530517578,0.0453932099044323,0.23178315162658691,0.0,0.0,0.0,0.0,0.0,0.0,0.0,0.0,0.0,-0.012490807101130486,-0.029580390080809593,0.32720375061035156,0.0,0.0,0.0,0.0,0.0,0.0,0.0,0.0,0.0
1606828498571879790,2348826,1606828498534261506,imu_link,0.001947868033312261,0.00067379220854491,0.1391790509223938,0.9902650713920593,0.0,0.0,0.0,0.0,0.0,0.0,0.0,0.0,0.0,16.000812530517578,0.0453932099044323,0.23178315162658691,0.0,0.0,0.0,0.0,0.0,0.0,0.0,0.0,0.0,-0.012490807101130486,-0.029580390080809593,0.32720375061035156,0.0,0.0,0.0,0.0,0.0,0.0,0.0,0.0,0.0
1606828498571914485,2348827,1606828498534355207,imu_link,0.001949241734109819,0.0006747036823071539,0.1391787827014923,0.9902651309967041,0.0,0.0,0.0,0.0,0.0,0.0,0.0,0.0,0.0,16.000782012939453,0.04547479376196861,0.23195356130599976,0.0,0.0,0.0,0.0,0.0,0.0,0.0,0.0,0.0,-0.008294000290334225,-0.010476737283170223,0.3338218331336975,0.0,0.0,0.0,0.0,0.0,0.0,0.0,0.0,0.0
1606828498571926693,2348828,1606828498534421092,imu_link,0.001949241734109819,0.0006747036823071539,0.1391787827014923,0.9902651309967041,0.0,0.0,0.0,0.0,0.0,0.0,0.0,0.0,0.0,16.000782012939453,0.04547479376196861,0.23195356130599976,0.0,0.0,0.0,0.0,0.0,0.0,0.0,0.0,0.0,-0.008294000290334225,-0.010476737283170223,0.3338218331336975,0.0,0.0,0.0,0.0,0.0,0.0,0.0,0.0,0.0
1606828498571941341,2348829,1606828498534497183,imu_link,0.0019529759883880615,0.000674168230034411,0.1391831934452057,0.9902645349502563,0.0,0.0,0.0,0.0,0.0,0.0,0.0,0.0,0.0,16.001293182373047,0.045353446155786514,0.23236894607543945,0.0,0.0,0.0,0.0,0.0,0.0,0.0,0.0,0.0,-0.009534856304526329,0.007926270365715027,0.33794063329696655,0.0,0.0,0.0,0.0,0.0,0.0,0.0,0.0,0.0
1606828498571977320,2348830,1606828498546497959,imu_link,0.0019529759883880615,0.000674168230034411,0.1391831934452057,0.9902645349502563,0.0,0.0,0.0,0.0,0.0,0.0,0.0,0.0,0.0,16.001293182373047,0.045353446155786514,0.23236894607543945,0.0,0.0,0.0,0.0,0.0,0.0,0.0,0.0,0.0,-0.009534856304526329,0.007926270365715027,0.33794063329696655,0.0,0.0,0.0,0.0,0.0,0.0,0.0,0.0,0.0
1606828498572002892,2348831,1606828498546623297,imu_link,0.0019534816965460777,0.0006728986045345664,0.13918457925319672,0.990264356136322,0.0,0.0,0.0,0.0,0.0,0.0,0.0,0.0,0.0,16.001453399658203,0.045200981199741364,0.23240616917610168,0.0,0.0,0.0,0.0,0.0,0.0,0.0,0.0,0.0,-0.007289551664143801,0.005327966529875994,0.3463835120201111,0.0,0.0,0.0,0.0,0.0,0.0,0.0,0.0,0.0
1606828498572009350,2348832,1606828498546786024,imu_link,0.0019534816965460777,0.0006728986045345664,0.13918457925319672,0.990264356136322,0.0,0.0,0.0,0.0,0.0,0.0,0.0,0.0,0.0,16.001453399658203,0.045200981199741364,0.23240616917610168,0.0,0.0,0.0,0.0,0.0,0.0,0.0,0.0,0.0,-0.007289551664143801,0.005327966529875994,0.3463835120201111,0.0,0.0,0.0,0.0,0.0,0.0,0.0,0.0,0.0
1606828498572462085,2348833,1606828498546876285,imu_link,0.0019525008974596858,0.000672110472805798,0.13919299840927124,0.9902631044387817,0.0,0.0,0.0,0.0,0.0,0.0,0.0,0.0,0.0,16.00242805480957,0.04512520879507065,0.23228266835212708,0.0,0.0,0.0,0.0,0.0,0.0,0.0,0.0,0.0,0.000747166748624295,-0.0007014202419668436,0.3511531352996826,0.0,0.0,0.0,0.0,0.0,0.0,0.0,0.0,0.0
1606828498572485262,2348834,1606828498546946179,imu_link,0.0019525008974596858,0.000672110472805798,0.13919299840927124,0.9902631044387817,0.0,0.0,0.0,0.0,0.0,0.0,0.0,0.0,0.0,16.00242805480957,0.04512520879507065,0.23228266835212708,0.0,0.0,0.0,0.0,0.0,0.0,0.0,0.0,0.0,0.000747166748624295,-0.0007014202419668436,0.3511531352996826,0.0,0.0,0.0,0.0,0.0,0.0,0.0,0.0,0.0
1606828498572500196,2348835,1606828498547034709,imu_link,0.0019517113687470555,0.0006719515076838434,0.13919107615947723,0.9902634620666504,0.0,0.0,0.0,0.0,0.0,0.0,0.0,0.0,0.0,16.0022029876709,0.045120224356651306,0.23219043016433716,0.0,0.0,0.0,0.0,0.0,0.0,0.0,0.0,0.0,-0.00042582745663821697,-0.008137487806379795,0.3514169752597809,0.0,0.0,0.0,0.0,0.0,0.0,0.0,0.0,0.0
1606828498572532833,2348836,1606828498547103721,imu_link,0.0019517113687470555,0.0006719515076838434,0.13919107615947723,0.9902634620666504,0.0,0.0,0.0,0.0,0.0,0.0,0.0,0.0,0.0,16.0022029876709,0.045120224356651306,0.23219043016433716,0.0,0.0,0.0,0.0,0.0,0.0,0.0,0.0,0.0,-0.00042582745663821697,-0.008137487806379795,0.3514169752597809,0.0,0.0,0.0,0.0,0.0,0.0,0.0,0.0,0.0
1606828498572548531,2348837,1606828498547171786,imu_link,0.0019533715676516294,0.0006696197087876499,0.13919690251350403,0.9902626276016235,0.0,0.0,0.0,0.0,0.0,0.0,0.0,0.0,0.0,16.002880096435547,0.044827770441770554,0.23234188556671143,0.0,0.0,0.0,0.0,0.0,0.0,0.0,0.0,0.0,-0.012063606642186642,-0.005993545986711979,0.35625728964805603,0.0,0.0,0.0,0.0,0.0,0.0,0.0,0.0,0.0
1606828498572561825,2348838,1606828498547263827,imu_link,0.0019533715676516294,0.0006696197087876499,0.13919690251350403,0.9902626276016235,0.0,0.0,0.0,0.0,0.0,0.0,0.0,0.0,0.0,16.002880096435547,0.044827770441770554,0.23234188556671143,0.0,0.0,0.0,0.0,0.0,0.0,0.0,0.0,0.0,-0.012063606642186642,-0.005993545986711979,0.35625728964805603,0.0,0.0,0.0,0.0,0.0,0.0,0.0,0.0,0.0
1606828498572579286,2348839,1606828498547385884,imu_link,0.001954153645783663,0.0006674494361504912,0.1391991227865219,0.9902623295783997,0.0,0.0,0.0,0.0,0.0,0.0,0.0,0.0,0.0,16.003135681152344,0.0445685014128685,0.23239612579345703,0.0,0.0,0.0,0.0,0.0,0.0,0.0,0.0,0.0,-0.0003874535032082349,0.005487886257469654,0.3519769012928009,0.0,0.0,0.0,0.0,0.0,0.0,0.0,0.0,0.0
1606828498572592751,2348840,1606828498560253899,imu_link,0.001954153645783663,0.0006674494361504912,0.1391991227865219,0.9902623295783997,0.0,0.0,0.0,0.0,0.0,0.0,0.0,0.0,0.0,16.003135681152344,0.0445685014128685,0.23239612579345703,0.0,0.0,0.0,0.0,0.0,0.0,0.0,0.0,0.0,-0.0003874535032082349,0.005487886257469654,0.3519769012928009,0.0,0.0,0.0,0.0,0.0,0.0,0.0,0.0,0.0
1606828498572611498,2348841,1606828498560391757,imu_link,0.0019550551660358906,0.0006664426764473319,0.13920532166957855,0.9902613759040833,0.0,0.0,0.0,0.0,0.0,0.0,0.0,0.0,0.0,16.00385284423828,0.04443842172622681,0.2324826866388321,0.0,0.0,0.0,0.0,0.0,0.0,0.0,0.0,0.0,0.008307240903377533,0.008735017850995064,0.33427292108535767,0.0,0.0,0.0,0.0,0.0,0.0,0.0,0.0,0.0
1606828498572632740,2348842,1606828498560579315,imu_link,0.0019550551660358906,0.0006664426764473319,0.13920532166957855,0.9902613759040833,0.0,0.0,0.0,0.0,0.0,0.0,0.0,0.0,0.0,16.00385284423828,0.04443842172622681,0.2324826866388321,0.0,0.0,0.0,0.0,0.0,0.0,0.0,0.0,0.0,0.008307240903377533,0.008735017850995064,0.33427292108535767,0.0,0.0,0.0,0.0,0.0,0.0,0.0,0.0,0.0
1606828498572669410,2348843,1606828498560675662,imu_link,0.0019567091949284077,0.0006676071789115667,0.1392066925764084,0.9902611970901489,0.0,0.0,0.0,0.0,0.0,0.0,0.0,0.0,0.0,16.004009246826172,0.044543854892253876,0.23268897831439972,0.0,0.0,0.0,0.0,0.0,0.0,0.0,0.0,0.0,-0.00238040741533041,-0.0035129727330058813,0.32362642884254456,0.0,0.0,0.0,0.0,0.0,0.0,0.0,0.0,0.0
1606828498572684422,2348844,1606828498560759421,imu_link,0.0019567091949284077,0.0006676071789115667,0.1392066925764084,0.9902611970901489,0.0,0.0,0.0,0.0,0.0,0.0,0.0,0.0,0.0,16.004009246826172,0.044543854892253876,0.23268897831439972,0.0,0.0,0.0,0.0,0.0,0.0,0.0,0.0,0.0,-0.00238040741533041,-0.0035129727330058813,0.32362642884254456,0.0,0.0,0.0,0.0,0.0,0.0,0.0,0.0,0.0
1606828498572704808,2348845,1606828498560842187,imu_link,0.0019595418125391006,0.0006670310394838452,0.13921058177947998,0.990260660648346,0.0,0.0,0.0,0.0,0.0,0.0,0.0,0.0,0.0,16.00446319580078,0.0444323793053627,0.23300141096115112,0.0,0.0,0.0,0.0,0.0,0.0,0.0,0.0,0.0,-0.0006955196149647236,-0.009022897109389305,0.31039974093437195,0.0,0.0,0.0,0.0,0.0,0.0,0.0,0.0,0.0
1606828498575663138,2348846,1606828498560953128,imu_link,0.0019595418125391006,0.0006670310394838452,0.13921058177947998,0.990260660648346,0.0,0.0,0.0,0.0,0.0,0.0,0.0,0.0,0.0,16.00446319580078,0.0444323793053627,0.23300141096115112,0.0,0.0,0.0,0.0,0.0,0.0,0.0,0.0,0.0,-0.0006955196149647236,-0.009022897109389305,0.31039974093437195,0.0,0.0,0.0,0.0,0.0,0.0,0.0,0.0,0.0
1606828498575682192,2348847,1606828498561029213,imu_link,0.0019614140037447214,0.0006670554867014289,0.13921286165714264,0.9902603626251221,0.0,0.0,0.0,0.0,0.0,0.0,0.0,0.0,0.0,16.00472640991211,0.04440474882721901,0.2332143932580948,0.0,0.0,0.0,0.0,0.0,0.0,0.0,0.0,0.0,0.007417490240186453,-0.0032893118914216757,0.3081263303756714,0.0,0.0,0.0,0.0,0.0,0.0,0.0,0.0,0.0
1606828498575708520,2348848,1606828498561111699,imu_link,0.0019614140037447214,0.0006670554867014289,0.13921286165714264,0.9902603626251221,0.0,0.0,0.0,0.0,0.0,0.0,0.0,0.0,0.0,16.00472640991211,0.04440474882721901,0.2332143932580948,0.0,0.0,0.0,0.0,0.0,0.0,0.0,0.0,0.0,0.007417490240186453,-0.0032893118914216757,0.3081263303756714,0.0,0.0,0.0,0.0,0.0,0.0,0.0,0.0,0.0
1606828498575723102,2348849,1606828498561188321,imu_link,0.0019628272857517004,0.0006668501300737262,0.13920821249485016,0.9902610182762146,0.0,0.0,0.0,0.0,0.0,0.0,0.0,0.0,0.0,16.004186630249023,0.044359996914863586,0.23337127268314362,0.0,0.0,0.0,0.0,0.0,0.0,0.0,0.0,0.0,-0.0034608382266014814,0.007751435972750187,0.3293705880641937,0.0,0.0,0.0,0.0,0.0,0.0,0.0,0.0,0.0
1606828498575733727,2348850,1606828498561270315,imu_link,0.0019628272857517004,0.0006668501300737262,0.13920821249485016,0.9902610182762146,0.0,0.0,0.0,0.0,0.0,0.0,0.0,0.0,0.0,16.004186630249023,0.044359996914863586,0.23337127268314362,0.0,0.0,0.0,0.0,0.0,0.0,0.0,0.0,0.0,-0.0034608382266014814,0.007751435972750187,0.3293705880641937,0.0,0.0,0.0,0.0,0.0,0.0,0.0,0.0,0.0
1606828498582610010,2348851,1606828498573672645,imu_link,0.001964584458619356,0.00066769850673154,0.13921083509922028,0.990260660648346,0.0,0.0,0.0,0.0,0.0,0.0,0.0,0.0,0.0,16.00448989868164,0.04442761838436127,0.23358429968357086,0.0,0.0,0.0,0.0,0.0,0.0,0.0,0.0,0.0,-0.010688726790249348,0.01644781418144703,0.3382273316383362,0.0,0.0,0.0,0.0,0.0,0.0,0.0,0.0,0.0
1606828498583158433,2348852,1606828498573784208,imu_link,0.001964584458619356,0.00066769850673154,0.13921083509922028,0.990260660648346,0.0,0.0,0.0,0.0,0.0,0.0,0.0,0.0,0.0,16.00448989868164,0.04442761838436127,0.23358429968357086,0.0,0.0,0.0,0.0,0.0,0.0,0.0,0.0,0.0,-0.010688726790249348,0.01644781418144703,0.3382273316383362,0.0,0.0,0.0,0.0,0.0,0.0,0.0,0.0,0.0
1606828498583199741,2348853,1606828498573917821,imu_link,0.0019621432293206453,0.0006660050130449235,0.13920480012893677,0.9902614951133728,0.0,0.0,0.0,0.0,0.0,0.0,0.0,0.0,0.0,16.003793716430664,0.044275812804698944,0.2332800328731537,0.0,0.0,0.0,0.0,0.0,0.0,0.0,0.0,0.0,0.002507705008611083,0.008209627121686935,0.320027232170105,0.0,0.0,0.0,0.0,0.0,0.0,0.0,0.0,0.0
1606828498583214464,2348854,1606828498574001895,imu_link,0.0019621432293206453,0.0006660050130449235,0.13920480012893677,0.9902614951133728,0.0,0.0,0.0,0.0,0.0,0.0,0.0,0.0,0.0,16.003793716430664,0.044275812804698944,0.2332800328731537,0.0,0.0,0.0,0.0,0.0,0.0,0.0,0.0,0.0,0.002507705008611083,0.008209627121686935,0.320027232170105,0.0,0.0,0.0,0.0,0.0,0.0,0.0,0.0,0.0
1606828498583226398,2348855,1606828498574078597,imu_link,0.0019637474324554205,0.000664069433696568,0.1392047107219696,0.990261435508728,0.0,0.0,0.0,0.0,0.0,0.0,0.0,0.0,0.0,16.003782272338867,0.04403059929609299,0.23343117535114288,0.0,0.0,0.0,0.0,0.0,0.0,0.0,0.0,0.0,-0.00789592880755663,0.020406516268849373,0.31027722358703613,0.0,0.0,0.0,0.0,0.0,0.0,0.0,0.0,0.0
1606828498584044091,2348856,1606828498574156913,imu_link,0.0019637474324554205,0.000664069433696568,0.1392047107219696,0.990261435508728,0.0,0.0,0.0,0.0,0.0,0.0,0.0,0.0,0.0,16.003782272338867,0.04403059929609299,0.23343117535114288,0.0,0.0,0.0,0.0,0.0,0.0,0.0,0.0,0.0,-0.00789592880755663,0.020406516268849373,0.31027722358703613,0.0,0.0,0.0,0.0,0.0,0.0,0.0,0.0,0.0
1606828498584057440,2348857,1606828498574268796,imu_link,0.001959573244675994,0.0006625621463172138,0.1392030119895935,0.9902617335319519,0.0,0.0,0.0,0.0,0.0,0.0,0.0,0.0,0.0,16.003583908081055,0.04392654821276665,0.23293337225914001,0.0,0.0,0.0,0.0,0.0,0.0,0.0,0.0,0.0,-0.027295121923089027,0.02466815523803234,0.3156001567840576,0.0,0.0,0.0,0.0,0.0,0.0,0.0,0.0,0.0
1606828498584089221,2348858,1606828498574356855,imu_link,0.001959573244675994,0.0006625621463172138,0.1392030119895935,0.9902617335319519,0.0,0.0,0.0,0.0,0.0,0.0,0.0,0.0,0.0,16.003583908081055,0.04392654821276665,0.23293337225914001,0.0,0.0,0.0,0.0,0.0,0.0,0.0,0.0,0.0,-0.027295121923089027,0.02466815523803234,0.3156001567840576,0.0,0.0,0.0,0.0,0.0,0.0,0.0,0.0,0.0
1606828498584099219,2348859,1606828498574435155,imu_link,0.00195966474711895,0.0006654805038124323,0.13920269906520844,0.9902617335319519,0.0,0.0,0.0,0.0,0.0,0.0,0.0,0.0,0.0,16.003551483154297,0.04425632581114769,0.2329903095960617,0.0,0.0,0.0,0.0,0.0,0.0,0.0,0.0,0.0,-0.01331780944019556,-0.0029786769300699234,0.30795636773109436,0.0,0.0,0.0,0.0,0.0,0.0,0.0,0.0,0.0
1606828498584843010,2348860,1606828498574517801,imu_link,0.00195966474711895,0.0006654805038124323,0.13920269906520844,0.9902617335319519,0.0,0.0,0.0,0.0,0.0,0.0,0.0,0.0,0.0,16.003551483154297,0.04425632581114769,0.2329903095960617,0.0,0.0,0.0,0.0,0.0,0.0,0.0,0.0,0.0,-0.01331780944019556,-0.0029786769300699234,0.30795636773109436,0.0,0.0,0.0,0.0,0.0,0.0,0.0,0.0,0.0
1606828498584857423,2348861,1606828498574603900,imu_link,0.001959047745913267,0.0006633339799009264,0.1391981542110443,0.9902623891830444,0.0,0.0,0.0,0.0,0.0,0.0,0.0,0.0,0.0,16.003021240234375,0.044023655354976654,0.23288582265377045,0.0,0.0,0.0,0.0,0.0,0.0,0.0,0.0,0.0,0.006408797577023506,-0.009090689942240715,0.3307102918624878,0.0,0.0,0.0,0.0,0.0,0.0,0.0,0.0,0.0
1606828498596742119,2348862,1606828498587587116,imu_link,0.001959047745913267,0.0006633339799009264,0.1391981542110443,0.9902623891830444,0.0,0.0,0.0,0.0,0.0,0.0,0.0,0.0,0.0,16.003021240234375,0.044023655354976654,0.23288582265377045,0.0,0.0,0.0,0.0,0.0,0.0,0.0,0.0,0.0,0.006408797577023506,-0.009090689942240715,0.3307102918624878,0.0,0.0,0.0,0.0,0.0,0.0,0.0,0.0,0.0
1606828498597931534,2348863,1606828498587722543,imu_link,0.0019590456504374743,0.0006609830888919532,0.13919886946678162,0.9902622699737549,0.0,0.0,0.0,0.0,0.0,0.0,0.0,0.0,0.0,16.00310516357422,0.043756745755672455,0.23284812271595,0.0,0.0,0.0,0.0,0.0,0.0,0.0,0.0,0.0,0.00225049932487309,-0.002315717749297619,0.3676566481590271,0.0,0.0,0.0,0.0,0.0,0.0,0.0,0.0,0.0
1606828498597955881,2348864,1606828498587896785,imu_link,0.0019590456504374743,0.0006609830888919532,0.13919886946678162,0.9902622699737549,0.0,0.0,0.0,0.0,0.0,0.0,0.0,0.0,0.0,16.00310516357422,0.043756745755672455,0.23284812271595,0.0,0.0,0.0,0.0,0.0,0.0,0.0,0.0,0.0,0.00225049932487309,-0.002315717749297619,0.3676566481590271,0.0,0.0,0.0,0.0,0.0,0.0,0.0,0.0,0.0
1606828498597965157,2348865,1606828498587977457,imu_link,0.001958038192242384,0.000660389254335314,0.1391979306936264,0.9902624487876892,0.0,0.0,0.0,0.0,0.0,0.0,0.0,0.0,0.0,16.002994537353516,0.04370566084980965,0.23272427916526794,0.0,0.0,0.0,0.0,0.0,0.0,0.0,0.0,0.0,0.007683303207159042,-0.010138195939362049,0.35141706466674805,0.0,0.0,0.0,0.0,0.0,0.0,0.0,0.0,0.0
1606828498597986119,2348866,1606828498588053843,imu_link,0.001958038192242384,0.000660389254335314,0.1391979306936264,0.9902624487876892,0.0,0.0,0.0,0.0,0.0,0.0,0.0,0.0,0.0,16.002994537353516,0.04370566084980965,0.23272427916526794,0.0,0.0,0.0,0.0,0.0,0.0,0.0,0.0,0.0,0.007683303207159042,-0.010138195939362049,0.35141706466674805,0.0,0.0,0.0,0.0,0.0,0.0,0.0,0.0,0.0
1606828498597990878,2348867,1606828498588132745,imu_link,0.00195698463357985,0.0006608839612454176,0.13919931650161743,0.9902622699737549,0.0,0.0,0.0,0.0,0.0,0.0,0.0,0.0,0.0,16.003156661987305,0.043778277933597565,0.23261266946792603,0.0,0.0,0.0,0.0,0.0,0.0,0.0,0.0,0.0,0.0015885576140135527,-0.0026964042335748672,0.32354703545570374,0.0,0.0,0.0,0.0,0.0,0.0,0.0,0.0,0.0
1606828498598015773,2348868,1606828498588245601,imu_link,0.00195698463357985,0.0006608839612454176,0.13919931650161743,0.9902622699737549,0.0,0.0,0.0,0.0,0.0,0.0,0.0,0.0,0.0,16.003156661987305,0.043778277933597565,0.23261266946792603,0.0,0.0,0.0,0.0,0.0,0.0,0.0,0.0,0.0,0.0015885576140135527,-0.0026964042335748672,0.32354703545570374,0.0,0.0,0.0,0.0,0.0,0.0,0.0,0.0,0.0
1606828498598062381,2348869,1606828498588324558,imu_link,0.0019594384357333183,0.0006624804809689522,0.1392015516757965,0.9902619123458862,0.0,0.0,0.0,0.0,0.0,0.0,0.0,0.0,0.0,16.003414154052734,0.043919775635004044,0.2329166978597641,0.0,0.0,0.0,0.0,0.0,0.0,0.0,0.0,0.0,-0.014544164761900902,-0.004719648975878954,0.331355482339859,0.0,0.0,0.0,0.0,0.0,0.0,0.0,0.0,0.0
1606828498598077079,2348870,1606828498588403485,imu_link,0.0019594384357333183,0.0006624804809689522,0.1392015516757965,0.9902619123458862,0.0,0.0,0.0,0.0,0.0,0.0,0.0,0.0,0.0,16.003414154052734,0.043919775635004044,0.2329166978597641,0.0,0.0,0.0,0.0,0.0,0.0,0.0,0.0,0.0,-0.014544164761900902,-0.004719648975878954,0.331355482339859,0.0,0.0,0.0,0.0,0.0,0.0,0.0,0.0,0.0
1606828498598087878,2348871,1606828498588490436,imu_link,0.001959057990461588,0.0006637762999162078,0.13920393586158752,0.9902616143226624,0.0,0.0,0.0,0.0,0.0,0.0,0.0,0.0,0.0,16.003690719604492,0.04407232254743576,0.23289431631565094,0.0,0.0,0.0,0.0,0.0,0.0,0.0,0.0,0.0,-0.019453592598438263,-0.024241354316473007,0.32751330733299255,0.0,0.0,0.0,0.0,0.0,0.0,0.0,0.0,0.0
1606828498598114704,2348872,1606828498588568310,imu_link,0.001959057990461588,0.0006637762999162078,0.13920393586158752,0.9902616143226624,0.0,0.0,0.0,0.0,0.0,0.0,0.0,0.0,0.0,16.003690719604492,0.04407232254743576,0.23289431631565094,0.0,0.0,0.0,0.0,0.0,0.0,0.0,0.0,0.0,-0.019453592598438263,-0.024241354316473007,0.32751330733299255,0.0,0.0,0.0,0.0,0.0,0.0,0.0,0.0,0.0
1606828498612122208,2348873,1606828498601106835,imu_link,0.001964743249118328,0.0006605488015338778,0.1392076164484024,0.9902610778808594,0.0,0.0,0.0,0.0,0.0,0.0,0.0,0.0,0.0,16.00411605834961,0.043614525347948074,0.23348814249038696,0.0,0.0,0.0,0.0,0.0,0.0,0.0,0.0,0.0,-0.004974856041371822,-0.007372868247330189,0.3230728805065155,0.0,0.0,0.0,0.0,0.0,0.0,0.0,0.0,0.0
1606828498612138577,2348874,1606828498601239571,imu_link,0.001964743249118328,0.0006605488015338778,0.1392076164484024,0.9902610778808594,0.0,0.0,0.0,0.0,0.0,0.0,0.0,0.0,0.0,16.00411605834961,0.043614525347948074,0.23348814249038696,0.0,0.0,0.0,0.0,0.0,0.0,0.0,0.0,0.0,-0.004974856041371822,-0.007372868247330189,0.3230728805065155,0.0,0.0,0.0,0.0,0.0,0.0,0.0,0.0,0.0
1606828498612150351,2348875,1606828498601424914,imu_link,0.00196556793525815,0.0006615001475438476,0.1392112821340561,0.9902605414390564,0.0,0.0,0.0,0.0,0.0,0.0,0.0,0.0,0.0,16.00454330444336,0.04370845854282379,0.2335970252752304,0.0,0.0,0.0,0.0,0.0,0.0,0.0,0.0,0.0,0.00776333874091506,0.012607721611857414,0.3241264820098877,0.0,0.0,0.0,0.0,0.0,0.0,0.0,0.0,0.0
1606828498612160807,2348876,1606828498601505711,imu_link,0.00196556793525815,0.0006615001475438476,0.1392112821340561,0.9902605414390564,0.0,0.0,0.0,0.0,0.0,0.0,0.0,0.0,0.0,16.00454330444336,0.04370845854282379,0.2335970252752304,0.0,0.0,0.0,0.0,0.0,0.0,0.0,0.0,0.0,0.00776333874091506,0.012607721611857414,0.3241264820098877,0.0,0.0,0.0,0.0,0.0,0.0,0.0,0.0,0.0
1606828498612189112,2348877,1606828498601584037,imu_link,0.001960461027920246,0.0006632525473833084,0.13921423256397247,0.990260124206543,0.0,0.0,0.0,0.0,0.0,0.0,0.0,0.0,0.0,16.004880905151367,0.04398808628320694,0.23304559290409088,0.0,0.0,0.0,0.0,0.0,0.0,0.0,0.0,0.0,0.008040942251682281,0.008146879263222218,0.31840381026268005,0.0,0.0,0.0,0.0,0.0,0.0,0.0,0.0,0.0
1606828498613050669,2348878,1606828498601703071,imu_link,0.001960461027920246,0.0006632525473833084,0.13921423256397247,0.990260124206543,0.0,0.0,0.0,0.0,0.0,0.0,0.0,0.0,0.0,16.004880905151367,0.04398808628320694,0.23304559290409088,0.0,0.0,0.0,0.0,0.0,0.0,0.0,0.0,0.0,0.008040942251682281,0.008146879263222218,0.31840381026268005,0.0,0.0,0.0,0.0,0.0,0.0,0.0,0.0,0.0
1606828498613086116,2348879,1606828498601787195,imu_link,0.001960307126864791,0.0006633540615439415,0.13921388983726501,0.9902601838111877,0.0,0.0,0.0,0.0,0.0,0.0,0.0,0.0,0.0,16.004840850830078,0.044002145528793335,0.23302973806858063,0.0,0.0,0.0,0.0,0.0,0.0,0.0,0.0,0.0,0.008093306794762611,0.01509777456521988,0.33032333850860596,0.0,0.0,0.0,0.0,0.0,0.0,0.0,0.0,0.0
1606828498613103946,2348880,1606828498601865286,imu_link,0.001960307126864791,0.0006633540615439415,0.13921388983726501,0.9902601838111877,0.0,0.0,0.0,0.0,0.0,0.0,0.0,0.0,0.0,16.004840850830078,0.044002145528793335,0.23302973806858063,0.0,0.0,0.0,0.0,0.0,0.0,0.0,0.0,0.0,0.008093306794762611,0.01509777456521988,0.33032333850860596,0.0,0.0,0.0,0.0,0.0,0.0,0.0,0.0,0.0
1606828498613116462,2348881,1606828498601947215,imu_link,0.001958583714440465,0.0006678315112367272,0.13922330737113953,0.9902588725090027,0.0,0.0,0.0,0.0,0.0,0.0,0.0,0.0,0.0,16.005931854248047,0.04453550651669502,0.2329060286283493,0.0,0.0,0.0,0.0,0.0,0.0,0.0,0.0,0.0,0.012996991164982319,0.014852695167064667,0.31758514046669006,0.0,0.0,0.0,0.0,0.0,0.0,0.0,0.0,0.0
1606828498613133688,2348882,1606828498602021461,imu_link,0.001958583714440465,0.0006678315112367272,0.13922330737113953,0.9902588725090027,0.0,0.0,0.0,0.0,0.0,0.0,0.0,0.0,0.0,16.005931854248047,0.04453550651669502,0.2329060286283493,0.0,0.0,0.0,0.0,0.0,0.0,0.0,0.0,0.0,0.012996991164982319,0.014852695167064667,0.31758514046669006,0.0,0.0,0.0,0.0,0.0,0.0,0.0,0.0,0.0
1606828498613139861,2348883,1606828498602109088,imu_link,0.001956657040864229,0.000666907406412065,0.13922534883022308,0.9902585744857788,0.0,0.0,0.0,0.0,0.0,0.0,0.0,0.0,0.0,16.006168365478516,0.044460900127887726,0.23267273604869843,0.0,0.0,0.0,0.0,0.0,0.0,0.0,0.0,0.0,0.015184029005467892,0.0004938439233228564,0.3086080849170685,0.0,0.0,0.0,0.0,0.0,0.0,0.0,0.0,0.0
1606828498622990165,2348884,1606828498613925988,imu_link,0.001956657040864229,0.000666907406412065,0.13922534883022308,0.9902585744857788,0.0,0.0,0.0,0.0,0.0,0.0,0.0,0.0,0.0,16.006168365478516,0.044460900127887726,0.23267273604869843,0.0,0.0,0.0,0.0,0.0,0.0,0.0,0.0,0.0,0.015184029005467892,0.0004938439233228564,0.3086080849170685,0.0,0.0,0.0,0.0,0.0,0.0,0.0,0.0,0.0
1606828498624097309,2348885,1606828498614060488,imu_link,0.0019584072288125753,0.0006699750665575266,0.13923372328281403,0.9902574419975281,0.0,0.0,0.0,0.0,0.0,0.0,0.0,0.0,0.0,16.007139205932617,0.044779110699892044,0.23292067646980286,0.0,0.0,0.0,0.0,0.0,0.0,0.0,0.0,0.0,0.0032025896944105625,-0.0030029562767595053,0.32402360439300537,0.0,0.0,0.0,0.0,0.0,0.0,0.0,0.0,0.0
1606828498624115843,2348886,1606828498614252486,imu_link,0.0019584072288125753,0.0006699750665575266,0.13923372328281403,0.9902574419975281,0.0,0.0,0.0,0.0,0.0,0.0,0.0,0.0,0.0,16.007139205932617,0.044779110699892044,0.23292067646980286,0.0,0.0,0.0,0.0,0.0,0.0,0.0,0.0,0.0,0.0032025896944105625,-0.0030029562767595053,0.32402360439300537,0.0,0.0,0.0,0.0,0.0,0.0,0.0,0.0,0.0
1606828498624126863,2348887,1606828498614354913,imu_link,0.0019581106025725603,0.0006666764966212213,0.13923373818397522,0.9902574419975281,0.0,0.0,0.0,0.0,0.0,0.0,0.0,0.0,0.0,16.00714111328125,0.04440953582525253,0.23283438384532928,0.0,0.0,0.0,0.0,0.0,0.0,0.0,0.0,0.0,-0.0028974241577088833,-0.0035520638339221478,0.3525485694408417,0.0,0.0,0.0,0.0,0.0,0.0,0.0,0.0,0.0
1606828498624132265,2348888,1606828498614433960,imu_link,0.0019581106025725603,0.0006666764966212213,0.13923373818397522,0.9902574419975281,0.0,0.0,0.0,0.0,0.0,0.0,0.0,0.0,0.0,16.00714111328125,0.04440953582525253,0.23283438384532928,0.0,0.0,0.0,0.0,0.0,0.0,0.0,0.0,0.0,-0.0028974241577088833,-0.0035520638339221478,0.3525485694408417,0.0,0.0,0.0,0.0,0.0,0.0,0.0,0.0,0.0
1606828498624150009,2348889,1606828498614549477,imu_link,0.001959717832505703,0.0006650192080996931,0.13923978805541992,0.9902565479278564,0.0,0.0,0.0,0.0,0.0,0.0,0.0,0.0,0.0,16.00783920288086,0.044194407761096954,0.2329905927181244,0.0,0.0,0.0,0.0,0.0,0.0,0.0,0.0,0.0,0.00886414386332035,0.00040599098429083824,0.36368533968925476,0.0,0.0,0.0,0.0,0.0,0.0,0.0,0.0,0.0
1606828498624163431,2348890,1606828498614633280,imu_link,0.001959717832505703,0.0006650192080996931,0.13923978805541992,0.9902565479278564,0.0,0.0,0.0,0.0,0.0,0.0,0.0,0.0,0.0,16.00783920288086,0.044194407761096954,0.2329905927181244,0.0,0.0,0.0,0.0,0.0,0.0,0.0,0.0,0.0,0.00886414386332035,0.00040599098429083824,0.36368533968925476,0.0,0.0,0.0,0.0,0.0,0.0,0.0,0.0,0.0
1606828498624182595,2348891,1606828498614710814,imu_link,0.0019589627627283335,0.0006638727500103414,0.1392403095960617,0.9902564883232117,0.0,0.0,0.0,0.0,0.0,0.0,0.0,0.0,0.0,16.007898330688477,0.044076237827539444,0.2328866571187973,0.0,0.0,0.0,0.0,0.0,0.0,0.0,0.0,0.0,0.0041000572964549065,0.006437375210225582,0.33207884430885315,0.0,0.0,0.0,0.0,0.0,0.0,0.0,0.0,0.0
1606828498624194039,2348892,1606828498614820853,imu_link,0.0019589627627283335,0.0006638727500103414,0.1392403095960617,0.9902564883232117,0.0,0.0,0.0,0.0,0.0,0.0,0.0,0.0,0.0,16.007898330688477,0.044076237827539444,0.2328866571187973,0.0,0.0,0.0,0.0,0.0,0.0,0.0,0.0,0.0,0.0041000572964549065,0.006437375210225582,0.33207884430885315,0.0,0.0,0.0,0.0,0.0,0.0,0.0,0.0,0.0
1606828498624203375,2348893,1606828498614894588,imu_link,0.0019559208303689957,0.0006628974224440753,0.13924437761306763,0.9902559518814087,0.0,0.0,0.0,0.0,0.0,0.0,0.0,0.0,0.0,16.00836753845215,0.04401314631104469,0.23252606391906738,0.0,0.0,0.0,0.0,0.0,0.0,0.0,0.0,0.0,-0.005709783174097538,0.0047181881964206696,0.30995097756385803,0.0,0.0,0.0,0.0,0.0,0.0,0.0,0.0,0.0
1606828498638801021,2348894,1606828498627642055,imu_link,0.0019559208303689957,0.0006628974224440753,0.13924437761306763,0.9902559518814087,0.0,0.0,0.0,0.0,0.0,0.0,0.0,0.0,0.0,16.00836753845215,0.04401314631104469,0.23252606391906738,0.0,0.0,0.0,0.0,0.0,0.0,0.0,0.0,0.0,-0.005709783174097538,0.0047181881964206696,0.30995097756385803,0.0,0.0,0.0,0.0,0.0,0.0,0.0,0.0,0.0
1606828498638826963,2348895,1606828498627768963,imu_link,0.0019564563408493996,0.0006636091275140643,0.1392458826303482,0.9902557134628296,0.0,0.0,0.0,0.0,0.0,0.0,0.0,0.0,0.0,16.008543014526367,0.044085003435611725,0.23259826004505157,0.0,0.0,0.0,0.0,0.0,0.0,0.0,0.0,0.0,-0.010355652309954166,-0.012535166926681995,0.30493807792663574,0.0,0.0,0.0,0.0,0.0,0.0,0.0,0.0,0.0
1606828498638838741,2348896,1606828498627937071,imu_link,0.0019564563408493996,0.0006636091275140643,0.1392458826303482,0.9902557134628296,0.0,0.0,0.0,0.0,0.0,0.0,0.0,0.0,0.0,16.008543014526367,0.044085003435611725,0.23259826004505157,0.0,0.0,0.0,0.0,0.0,0.0,0.0,0.0,0.0,-0.010355652309954166,-0.012535166926681995,0.30493807792663574,0.0,0.0,0.0,0.0,0.0,0.0,0.0,0.0,0.0
1606828498638851175,2348897,1606828498628013016,imu_link,0.0019604137632995844,0.0006624446250498295,0.13924814760684967,0.9902553558349609,0.0,0.0,0.0,0.0,0.0,0.0,0.0,0.0,0.0,16.008806228637695,0.043889183551073074,0.23302888870239258,0.0,0.0,0.0,0.0,0.0,0.0,0.0,0.0,0.0,-0.026856303215026855,-0.0038542409893125296,0.30698835849761963,0.0,0.0,0.0,0.0,0.0,0.0,0.0,0.0,0.0
1606828498638860097,2348898,1606828498628087047,imu_link,0.0019604137632995844,0.0006624446250498295,0.13924814760684967,0.9902553558349609,0.0,0.0,0.0,0.0,0.0,0.0,0.0,0.0,0.0,16.008806228637695,0.043889183551073074,0.23302888870239258,0.0,0.0,0.0,0.0,0.0,0.0,0.0,0.0,0.0,-0.026856303215026855,-0.0038542409893125296,0.30698835849761963,0.0,0.0,0.0,0.0,0.0,0.0,0.0,0.0,0.0
1606828498639315393,2348899,1606828498628180162,imu_link,0.0019598486833274364,0.0006611980497837067,0.13925045728683472,0.9902550578117371,0.0,0.0,0.0,0.0,0.0,0.0,0.0,0.0,0.0,16.00907325744629,0.04375620186328888,0.23294495046138763,0.0,0.0,0.0,0.0,0.0,0.0,0.0,0.0,0.0,-0.023601319640874863,0.01801176369190216,0.31608694791793823,0.0,0.0,0.0,0.0,0.0,0.0,0.0,0.0,0.0
1606828498639335843,2348900,1606828498628286517,imu_link,0.0019598486833274364,0.0006611980497837067,0.13925045728683472,0.9902550578117371,0.0,0.0,0.0,0.0,0.0,0.0,0.0,0.0,0.0,16.00907325744629,0.04375620186328888,0.23294495046138763,0.0,0.0,0.0,0.0,0.0,0.0,0.0,0.0,0.0,-0.023601319640874863,0.01801176369190216,0.31608694791793823,0.0,0.0,0.0,0.0,0.0,0.0,0.0,0.0,0.0
1606828498639349739,2348901,1606828498628361074,imu_link,0.0019554230384528637,0.0006553642451763153,0.13924971222877502,0.9902551770210266,0.0,0.0,0.0,0.0,0.0,0.0,0.0,0.0,0.0,16.008987426757812,0.04316500574350357,0.23234963417053223,0.0,0.0,0.0,0.0,0.0,0.0,0.0,0.0,0.0,-0.007092998828738928,0.026442887261509895,0.32757654786109924,0.0,0.0,0.0,0.0,0.0,0.0,0.0,0.0,0.0
1606828498639359007,2348902,1606828498628445424,imu_link,0.0019554230384528637,0.0006553642451763153,0.13924971222877502,0.9902551770210266,0.0,0.0,0.0,0.0,0.0,0.0,0.0,0.0,0.0,16.008987426757812,0.04316500574350357,0.23234963417053223,0.0,0.0,0.0,0.0,0.0,0.0,0.0,0.0,0.0,-0.007092998828738928,0.026442887261509895,0.32757654786109924,0.0,0.0,0.0,0.0,0.0,0.0,0.0,0.0,0.0
1606828498640143309,2348903,1606828498628531593,imu_link,0.0019549697171896696,0.0006531593971885741,0.139250710606575,0.9902550578117371,0.0,0.0,0.0,0.0,0.0,0.0,0.0,0.0,0.0,16.00910186767578,0.04292181506752968,0.23226302862167358,0.0,0.0,0.0,0.0,0.0,0.0,0.0,0.0,0.0,0.005674284882843494,0.014940235763788223,0.34329894185066223,0.0,0.0,0.0,0.0,0.0,0.0,0.0,0.0,0.0
1606828498640166848,2348904,1606828498628614479,imu_link,0.0019549697171896696,0.0006531593971885741,0.139250710606575,0.9902550578117371,0.0,0.0,0.0,0.0,0.0,0.0,0.0,0.0,0.0,16.00910186767578,0.04292181506752968,0.23226302862167358,0.0,0.0,0.0,0.0,0.0,0.0,0.0,0.0,0.0,0.005674284882843494,0.014940235763788223,0.34329894185066223,0.0,0.0,0.0,0.0,0.0,0.0,0.0,0.0,0.0
1606828498650617728,2348905,1606828498641269709,imu_link,0.0019528318662196398,0.0006533593405038118,0.13924579322338104,0.9902557134628296,0.0,0.0,0.0,0.0,0.0,0.0,0.0,0.0,0.0,16.00853157043457,0.04297976195812225,0.2320234328508377,0.0,0.0,0.0,0.0,0.0,0.0,0.0,0.0,0.0,0.008492663502693176,-0.008887309581041336,0.3279050290584564,0.0,0.0,0.0,0.0,0.0,0.0,0.0,0.0,0.0
1606828498651169928,2348906,1606828498641407306,imu_link,0.0019528318662196398,0.0006533593405038118,0.13924579322338104,0.9902557134628296,0.0,0.0,0.0,0.0,0.0,0.0,0.0,0.0,0.0,16.00853157043457,0.04297976195812225,0.2320234328508377,0.0,0.0,0.0,0.0,0.0,0.0,0.0,0.0,0.0,0.008492663502693176,-0.008887309581041336,0.3279050290584564,0.0,0.0,0.0,0.0,0.0,0.0,0.0,0.0,0.0
1606828498651191570,2348907,1606828498641588860,imu_link,0.0019539394415915012,0.0006542764022015035,0.13924667239189148,0.99025559425354,0.0,0.0,0.0,0.0,0.0,0.0,0.0,0.0,0.0,16.008636474609375,0.04306594654917717,0.23216377198696136,0.0,0.0,0.0,0.0,0.0,0.0,0.0,0.0,0.0,0.0031268270686268806,-0.0033660747576504946,0.32133737206459045,0.0,0.0,0.0,0.0,0.0,0.0,0.0,0.0,0.0
1606828498651213125,2348908,1606828498641671120,imu_link,0.0019539394415915012,0.0006542764022015035,0.13924667239189148,0.99025559425354,0.0,0.0,0.0,0.0,0.0,0.0,0.0,0.0,0.0,16.008636474609375,0.04306594654917717,0.23216377198696136,0.0,0.0,0.0,0.0,0.0,0.0,0.0,0.0,0.0,0.0031268270686268806,-0.0033660747576504946,0.32133737206459045,0.0,0.0,0.0,0.0,0.0,0.0,0.0,0.0,0.0
1606828498651232457,2348909,1606828498641748048,imu_link,0.0019541631918400526,0.0006530680111609399,0.1392420083284378,0.9902562499046326,0.0,0.0,0.0,0.0,0.0,0.0,0.0,0.0,0.0,16.008094787597656,0.042926352471113205,0.23216970264911652,0.0,0.0,0.0,0.0,0.0,0.0,0.0,0.0,0.0,0.0017674589762464166,0.00698461290448904,0.31195974349975586,0.0,0.0,0.0,0.0,0.0,0.0,0.0,0.0,0.0
1606828498652064566,2348910,1606828498641863925,imu_link,0.0019541631918400526,0.0006530680111609399,0.1392420083284378,0.9902562499046326,0.0,0.0,0.0,0.0,0.0,0.0,0.0,0.0,0.0,16.008094787597656,0.042926352471113205,0.23216970264911652,0.0,0.0,0.0,0.0,0.0,0.0,0.0,0.0,0.0,0.0017674589762464166,0.00698461290448904,0.31195974349975586,0.0,0.0,0.0,0.0,0.0,0.0,0.0,0.0,0.0
1606828498652075932,2348911,1606828498641970120,imu_link,0.0019543759990483522,0.0006538275629281998,0.13924221694469452,0.9902562499046326,0.0,0.0,0.0,0.0,0.0,0.0,0.0,0.0,0.0,16.00811767578125,0.04300910234451294,0.23220595717430115,0.0,0.0,0.0,0.0,0.0,0.0,0.0,0.0,0.0,0.003264535451307893,0.0016719781560823321,0.3048345744609833,0.0,0.0,0.0,0.0,0.0,0.0,0.0,0.0,0.0
1606828498652082061,2348912,1606828498642048877,imu_link,0.0019543759990483522,0.0006538275629281998,0.13924221694469452,0.9902562499046326,0.0,0.0,0.0,0.0,0.0,0.0,0.0,0.0,0.0,16.00811767578125,0.04300910234451294,0.23220595717430115,0.0,0.0,0.0,0.0,0.0,0.0,0.0,0.0,0.0,0.003264535451307893,0.0016719781560823321,0.3048345744609833,0.0,0.0,0.0,0.0,0.0,0.0,0.0,0.0,0.0
1606828498652088271,2348913,1606828498642127824,imu_link,0.001955317799001932,0.0006559582543559372,0.13923946022987366,0.9902566075325012,0.0,0.0,0.0,0.0,0.0,0.0,0.0,0.0,0.0,16.00779914855957,0.043236494064331055,0.23234669864177704,0.0,0.0,0.0,0.0,0.0,0.0,0.0,0.0,0.0,0.009913765825331211,0.0027138281147927046,0.3091755509376526,0.0,0.0,0.0,0.0,0.0,0.0,0.0,0.0,0.0
1606828498652093162,2348914,1606828498642204366,imu_link,0.001955317799001932,0.0006559582543559372,0.13923946022987366,0.9902566075325012,0.0,0.0,0.0,0.0,0.0,0.0,0.0,0.0,0.0,16.00779914855957,0.043236494064331055,0.23234669864177704,0.0,0.0,0.0,0.0,0.0,0.0,0.0,0.0,0.0,0.009913765825331211,0.0027138281147927046,0.3091755509376526,0.0,0.0,0.0,0.0,0.0,0.0,0.0,0.0,0.0
1606828498652119703,2348915,1606828498642283158,imu_link,0.0019550472497940063,0.0006558488821610808,0.13924001157283783,0.9902565479278564,0.0,0.0,0.0,0.0,0.0,0.0,0.0,0.0,0.0,16.007863998413086,0.04322827607393265,0.23231427371501923,0.0,0.0,0.0,0.0,0.0,0.0,0.0,0.0,0.0,0.014360101893544197,0.011388866230845451,0.2930331826210022,0.0,0.0,0.0,0.0,0.0,0.0,0.0,0.0,0.0
1606828498664135378,2348916,1606828498655039119,imu_link,0.0019550472497940063,0.0006558488821610808,0.13924001157283783,0.9902565479278564,0.0,0.0,0.0,0.0,0.0,0.0,0.0,0.0,0.0,16.007863998413086,0.04322827607393265,0.23231427371501923,0.0,0.0,0.0,0.0,0.0,0.0,0.0,0.0,0.0,0.014360101893544197,0.011388866230845451,0.2930331826210022,0.0,0.0,0.0,0.0,0.0,0.0,0.0,0.0,0.0
1606828498665176513,2348917,1606828498655177148,imu_link,0.0019528035772964358,0.0006563704810105264,0.13923747837543488,0.9902569055557251,0.0,0.0,0.0,0.0,0.0,0.0,0.0,0.0,0.0,16.007570266723633,0.043323855847120285,0.23206788301467896,0.0,0.0,0.0,0.0,0.0,0.0,0.0,0.0,0.0,0.02072163112461567,0.01587131805717945,0.31480202078819275,0.0,0.0,0.0,0.0,0.0,0.0,0.0,0.0,0.0
1606828498665199692,2348918,1606828498655407700,imu_link,0.0019528035772964358,0.0006563704810105264,0.13923747837543488,0.9902569055557251,0.0,0.0,0.0,0.0,0.0,0.0,0.0,0.0,0.0,16.007570266723633,0.043323855847120285,0.23206788301467896,0.0,0.0,0.0,0.0,0.0,0.0,0.0,0.0,0.0,0.02072163112461567,0.01587131805717945,0.31480202078819275,0.0,0.0,0.0,0.0,0.0,0.0,0.0,0.0,0.0
1606828498665209027,2348919,1606828498655488542,imu_link,0.0019528950797393918,0.0006566071533598006,0.13923704624176025,0.9902569651603699,0.0,0.0,0.0,0.0,0.0,0.0,0.0,0.0,0.0,16.007518768310547,0.04334935173392296,0.23208202421665192,0.0,0.0,0.0,0.0,0.0,0.0,0.0,0.0,0.0,0.020961178466677666,0.00913267396390438,0.34802815318107605,0.0,0.0,0.0,0.0,0.0,0.0,0.0,0.0,0.0
1606828498665234552,2348920,1606828498655566241,imu_link,0.0019528950797393918,0.0006566071533598006,0.13923704624176025,0.9902569651603699,0.0,0.0,0.0,0.0,0.0,0.0,0.0,0.0,0.0,16.007518768310547,0.04334935173392296,0.23208202421665192,0.0,0.0,0.0,0.0,0.0,0.0,0.0,0.0,0.0,0.020961178466677666,0.00913267396390438,0.34802815318107605,0.0,0.0,0.0,0.0,0.0,0.0,0.0,0.0,0.0
1606828498665245813,2348921,1606828498655658594,imu_link,0.0019508958794176579,0.0006587983225472271,0.13924333453178406,0.9902560710906982,0.0,0.0,0.0,0.0,0.0,0.0,0.0,0.0,0.0,16.00824737548828,0.043628424406051636,0.2318904548883438,0.0,0.0,0.0,0.0,0.0,0.0,0.0,0.0,0.0,0.0035326636862009764,-0.008611466735601425,0.3553815186023712,0.0,0.0,0.0,0.0,0.0,0.0,0.0,0.0,0.0
1606828498665276192,2348922,1606828498655762484,imu_link,0.0019508958794176579,0.0006587983225472271,0.13924333453178406,0.9902560710906982,0.0,0.0,0.0,0.0,0.0,0.0,0.0,0.0,0.0,16.00824737548828,0.043628424406051636,0.2318904548883438,0.0,0.0,0.0,0.0,0.0,0.0,0.0,0.0,0.0,0.0035326636862009764,-0.008611466735601425,0.3553815186023712,0.0,0.0,0.0,0.0,0.0,0.0,0.0,0.0,0.0
1606828498665285279,2348923,1606828498655839898,imu_link,0.00195242278277874,0.0006601369241252542,0.13924342393875122,0.9902560710906982,0.0,0.0,0.0,0.0,0.0,0.0,0.0,0.0,0.0,16.008258819580078,0.04375593364238739,0.23208503425121307,0.0,0.0,0.0,0.0,0.0,0.0,0.0,0.0,0.0,-0.014911983162164688,0.006961515638977289,0.3420940339565277,0.0,0.0,0.0,0.0,0.0,0.0,0.0,0.0,0.0
1606828498665291506,2348924,1606828498655918805,imu_link,0.00195242278277874,0.0006601369241252542,0.13924342393875122,0.9902560710906982,0.0,0.0,0.0,0.0,0.0,0.0,0.0,0.0,0.0,16.008258819580078,0.04375593364238739,0.23208503425121307,0.0,0.0,0.0,0.0,0.0,0.0,0.0,0.0,0.0,-0.014911983162164688,0.006961515638977289,0.3420940339565277,0.0,0.0,0.0,0.0,0.0,0.0,0.0,0.0,0.0
1606828498666990323,2348925,1606828498656007515,imu_link,0.001952260616235435,0.0006587111856788397,0.13925176858901978,0.9902548789978027,0.0,0.0,0.0,0.0,0.0,0.0,0.0,0.0,0.0,16.00922393798828,0.043594785034656525,0.2320442646741867,0.0,0.0,0.0,0.0,0.0,0.0,0.0,0.0,0.0,-0.013350850902497768,0.025539599359035492,0.34464070200920105,0.0,0.0,0.0,0.0,0.0,0.0,0.0,0.0,0.0
1606828498666999196,2348926,1606828498656093934,imu_link,0.001952260616235435,0.0006587111856788397,0.13925176858901978,0.9902548789978027,0.0,0.0,0.0,0.0,0.0,0.0,0.0,0.0,0.0,16.00922393798828,0.043594785034656525,0.2320442646741867,0.0,0.0,0.0,0.0,0.0,0.0,0.0,0.0,0.0,-0.013350850902497768,0.025539599359035492,0.34464070200920105,0.0,0.0,0.0,0.0,0.0,0.0,0.0,0.0,0.0
1606828498677100974,2348927,1606828498667916526,imu_link,0.001952440827153623,0.0006562976050190628,0.1392543911933899,0.9902545213699341,0.0,0.0,0.0,0.0,0.0,0.0,0.0,0.0,0.0,16.0095272064209,0.043317414820194244,0.23202630877494812,0.0,0.0,0.0,0.0,0.0,0.0,0.0,0.0,0.0,0.003385026939213276,0.012647283263504505,0.384242445230484,0.0,0.0,0.0,0.0,0.0,0.0,0.0,0.0,0.0
1606828498677571067,2348928,1606828498668048045,imu_link,0.001952440827153623,0.0006562976050190628,0.1392543911933899,0.9902545213699341,0.0,0.0,0.0,0.0,0.0,0.0,0.0,0.0,0.0,16.0095272064209,0.043317414820194244,0.23202630877494812,0.0,0.0,0.0,0.0,0.0,0.0,0.0,0.0,0.0,0.003385026939213276,0.012647283263504505,0.384242445230484,0.0,0.0,0.0,0.0,0.0,0.0,0.0,0.0,0.0
1606828498677595803,2348929,1606828498668233989,imu_link,0.0019505680538713932,0.0006553986459039152,0.139260932803154,0.9902535676956177,0.0,0.0,0.0,0.0,0.0,0.0,0.0,0.0,0.0,16.010284423828125,0.04324375092983246,0.23179976642131805,0.0,0.0,0.0,0.0,0.0,0.0,0.0,0.0,0.0,0.013134539127349854,0.008695940487086773,0.36895063519477844,0.0,0.0,0.0,0.0,0.0,0.0,0.0,0.0,0.0
1606828498677609175,2348930,1606828498668316845,imu_link,0.0019505680538713932,0.0006553986459039152,0.139260932803154,0.9902535676956177,0.0,0.0,0.0,0.0,0.0,0.0,0.0,0.0,0.0,16.010284423828125,0.04324375092983246,0.23179976642131805,0.0,0.0,0.0,0.0,0.0,0.0,0.0,0.0,0.0,0.013134539127349854,0.008695940487086773,0.36895063519477844,0.0,0.0,0.0,0.0,0.0,0.0,0.0,0.0,0.0
1606828498677623952,2348931,1606828498668397727,imu_link,0.001950497506186366,0.0006539677269756794,0.13925981521606445,0.990253746509552,0.0,0.0,0.0,0.0,0.0,0.0,0.0,0.0,0.0,16.010154724121094,0.043082766234874725,0.23176884651184082,0.0,0.0,0.0,0.0,0.0,0.0,0.0,0.0,0.0,0.0004754718393087387,0.017232248559594154,0.31135374307632446,0.0,0.0,0.0,0.0,0.0,0.0,0.0,0.0,0.0
1606828498678188034,2348932,1606828498668515042,imu_link,0.001950497506186366,0.0006539677269756794,0.13925981521606445,0.990253746509552,0.0,0.0,0.0,0.0,0.0,0.0,0.0,0.0,0.0,16.010154724121094,0.043082766234874725,0.23176884651184082,0.0,0.0,0.0,0.0,0.0,0.0,0.0,0.0,0.0,0.0004754718393087387,0.017232248559594154,0.31135374307632446,0.0,0.0,0.0,0.0,0.0,0.0,0.0,0.0,0.0
1606828498678207609,2348933,1606828498668598054,imu_link,0.0019477077294141054,0.0006555004511028528,0.13926559686660767,0.9902529716491699,0.0,0.0,0.0,0.0,0.0,0.0,0.0,0.0,0.0,16.01082420349121,0.04329986497759819,0.23147699236869812,0.0,0.0,0.0,0.0,0.0,0.0,0.0,0.0,0.0,-0.007538495119661093,0.02187754213809967,0.30091387033462524,0.0,0.0,0.0,0.0,0.0,0.0,0.0,0.0,0.0
1606828498678220771,2348934,1606828498668677999,imu_link,0.0019477077294141054,0.0006555004511028528,0.13926559686660767,0.9902529716491699,0.0,0.0,0.0,0.0,0.0,0.0,0.0,0.0,0.0,16.01082420349121,0.04329986497759819,0.23147699236869812,0.0,0.0,0.0,0.0,0.0,0.0,0.0,0.0,0.0,-0.007538495119661093,0.02187754213809967,0.30091387033462524,0.0,0.0,0.0,0.0,0.0,0.0,0.0,0.0,0.0
1606828498678232399,2348935,1606828498668750521,imu_link,0.001948314718902111,0.0006548846140503883,0.13926781713962555,0.990252673625946,0.0,0.0,0.0,0.0,0.0,0.0,0.0,0.0,0.0,16.01108169555664,0.04321977496147156,0.2315361499786377,0.0,0.0,0.0,0.0,0.0,0.0,0.0,0.0,0.0,-0.0017001002561300993,0.012077054008841515,0.32047972083091736,0.0,0.0,0.0,0.0,0.0,0.0,0.0,0.0,0.0
1606828498679323276,2348936,1606828498668839787,imu_link,0.001948314718902111,0.0006548846140503883,0.13926781713962555,0.990252673625946,0.0,0.0,0.0,0.0,0.0,0.0,0.0,0.0,0.0,16.01108169555664,0.04321977496147156,0.2315361499786377,0.0,0.0,0.0,0.0,0.0,0.0,0.0,0.0,0.0,-0.0017001002561300993,0.012077054008841515,0.32047972083091736,0.0,0.0,0.0,0.0,0.0,0.0,0.0,0.0,0.0
1606828498679335899,2348937,1606828498668923851,imu_link,0.0019468357786536217,0.0006544795469380915,0.13927191495895386,0.9902520775794983,0.0,0.0,0.0,0.0,0.0,0.0,0.0,0.0,0.0,16.01155662536621,0.043196458369493484,0.23136205971240997,0.0,0.0,0.0,0.0,0.0,0.0,0.0,0.0,0.0,-0.00631735660135746,0.012122081592679024,0.3430440127849579,0.0,0.0,0.0,0.0,0.0,0.0,0.0,0.0,0.0
1606828498691220663,2348938,1606828498681487965,imu_link,0.0019468357786536217,0.0006544795469380915,0.13927191495895386,0.9902520775794983,0.0,0.0,0.0,0.0,0.0,0.0,0.0,0.0,0.0,16.01155662536621,0.043196458369493484,0.23136205971240997,0.0,0.0,0.0,0.0,0.0,0.0,0.0,0.0,0.0,-0.00631735660135746,0.012122081592679024,0.3430440127849579,0.0,0.0,0.0,0.0,0.0,0.0,0.0,0.0,0.0
1606828498691251554,2348939,1606828498681619965,imu_link,0.0019485802622511983,0.0006531685357913375,0.13927410542964935,0.9902517795562744,0.0,0.0,0.0,0.0,0.0,0.0,0.0,0.0,0.0,16.01180648803711,0.043019335716962814,0.23153918981552124,0.0,0.0,0.0,0.0,0.0,0.0,0.0,0.0,0.0,-0.012726443819701672,0.013741306029260159,0.33764246106147766,0.0,0.0,0.0,0.0,0.0,0.0,0.0,0.0,0.0
1606828498691260998,2348940,1606828498681802330,imu_link,0.0019485802622511983,0.0006531685357913375,0.13927410542964935,0.9902517795562744,0.0,0.0,0.0,0.0,0.0,0.0,0.0,0.0,0.0,16.01180648803711,0.043019335716962814,0.23153918981552124,0.0,0.0,0.0,0.0,0.0,0.0,0.0,0.0,0.0,-0.012726443819701672,0.013741306029260159,0.33764246106147766,0.0,0.0,0.0,0.0,0.0,0.0,0.0,0.0,0.0
1606828498691269928,2348941,1606828498681885558,imu_link,0.0019470853731036186,0.000649315828923136,0.13927841186523438,0.9902511835098267,0.0,0.0,0.0,0.0,0.0,0.0,0.0,0.0,0.0,16.012306213378906,0.04260500520467758,0.2313082069158554,0.0,0.0,0.0,0.0,0.0,0.0,0.0,0.0,0.0,-0.009052762761712074,-0.0011036790674552321,0.3279719650745392,0.0,0.0,0.0,0.0,0.0,0.0,0.0,0.0,0.0
1606828498691283319,2348942,1606828498681964620,imu_link,0.0019470853731036186,0.000649315828923136,0.13927841186523438,0.9902511835098267,0.0,0.0,0.0,0.0,0.0,0.0,0.0,0.0,0.0,16.012306213378906,0.04260500520467758,0.2313082069158554,0.0,0.0,0.0,0.0,0.0,0.0,0.0,0.0,0.0,-0.009052762761712074,-0.0011036790674552321,0.3279719650745392,0.0,0.0,0.0,0.0,0.0,0.0,0.0,0.0,0.0
1606828498692043543,2348943,1606828498682065242,imu_link,0.0019453776767477393,0.0006519666640087962,0.13927966356277466,0.9902510046958923,0.0,0.0,0.0,0.0,0.0,0.0,0.0,0.0,0.0,16.012451171875,0.042932767421007156,0.23115679621696472,0.0,0.0,0.0,0.0,0.0,0.0,0.0,0.0,0.0,0.0011247163638472557,-0.005808783695101738,0.33045998215675354,0.0,0.0,0.0,0.0,0.0,0.0,0.0,0.0,0.0
1606828498692099857,2348944,1606828498682152714,imu_link,0.0019453776767477393,0.0006519666640087962,0.13927966356277466,0.9902510046958923,0.0,0.0,0.0,0.0,0.0,0.0,0.0,0.0,0.0,16.012451171875,0.042932767421007156,0.23115679621696472,0.0,0.0,0.0,0.0,0.0,0.0,0.0,0.0,0.0,0.0011247163638472557,-0.005808783695101738,0.33045998215675354,0.0,0.0,0.0,0.0,0.0,0.0,0.0,0.0,0.0
1606828498692112448,2348945,1606828498682231451,imu_link,0.0019482586067169905,0.0006529156817123294,0.13927370309829712,0.9902518391609192,0.0,0.0,0.0,0.0,0.0,0.0,0.0,0.0,0.0,16.011760711669922,0.0429958738386631,0.2314985990524292,0.0,0.0,0.0,0.0,0.0,0.0,0.0,0.0,0.0,0.01041901670396328,-0.0025540427304804325,0.31643566489219666,0.0,0.0,0.0,0.0,0.0,0.0,0.0,0.0,0.0
1606828498692122589,2348946,1606828498682306995,imu_link,0.0019482586067169905,0.0006529156817123294,0.13927370309829712,0.9902518391609192,0.0,0.0,0.0,0.0,0.0,0.0,0.0,0.0,0.0,16.011760711669922,0.0429958738386631,0.2314985990524292,0.0,0.0,0.0,0.0,0.0,0.0,0.0,0.0,0.0,0.01041901670396328,-0.0025540427304804325,0.31643566489219666,0.0,0.0,0.0,0.0,0.0,0.0,0.0,0.0,0.0
1606828498692132101,2348947,1606828498682400085,imu_link,0.0019484850345179439,0.0006527434452436864,0.1392749696969986,0.9902516603469849,0.0,0.0,0.0,0.0,0.0,0.0,0.0,0.0,0.0,16.011905670166016,0.042972419410943985,0.2315216064453125,0.0,0.0,0.0,0.0,0.0,0.0,0.0,0.0,0.0,0.008934239856898785,0.011478912085294724,0.3040076494216919,0.0,0.0,0.0,0.0,0.0,0.0,0.0,0.0,0.0
1606828498704378198,2348948,1606828498695310265,imu_link,0.0019484850345179439,0.0006527434452436864,0.1392749696969986,0.9902516603469849,0.0,0.0,0.0,0.0,0.0,0.0,0.0,0.0,0.0,16.011905670166016,0.042972419410943985,0.2315216064453125,0.0,0.0,0.0,0.0,0.0,0.0,0.0,0.0,0.0,0.008934239856898785,0.011478912085294724,0.3040076494216919,0.0,0.0,0.0,0.0,0.0,0.0,0.0,0.0,0.0
1606828498705587691,2348949,1606828498695453921,imu_link,0.0019467913080006838,0.0006538961897604167,0.13926847279071808,0.9902525544166565,0.0,0.0,0.0,0.0,0.0,0.0,0.0,0.0,0.0,16.01115608215332,0.04313177615404129,0.23134754598140717,0.0,0.0,0.0,0.0,0.0,0.0,0.0,0.0,0.0,0.02008718252182007,0.022000383585691452,0.32414016127586365,0.0,0.0,0.0,0.0,0.0,0.0,0.0,0.0,0.0
1606828498705631714,2348950,1606828498695585959,imu_link,0.0019467913080006838,0.0006538961897604167,0.13926847279071808,0.9902525544166565,0.0,0.0,0.0,0.0,0.0,0.0,0.0,0.0,0.0,16.01115608215332,0.04313177615404129,0.23134754598140717,0.0,0.0,0.0,0.0,0.0,0.0,0.0,0.0,0.0,0.02008718252182007,0.022000383585691452,0.32414016127586365,0.0,0.0,0.0,0.0,0.0,0.0,0.0,0.0,0.0
1606828498705663384,2348951,1606828498695677513,imu_link,0.0019477999303489923,0.0006532020051963627,0.13926677405834198,0.9902527928352356,0.0,0.0,0.0,0.0,0.0,0.0,0.0,0.0,0.0,16.010957717895508,0.043037302792072296,0.23145084083080292,0.0,0.0,0.0,0.0,0.0,0.0,0.0,0.0,0.0,0.027057604864239693,-0.0027777052018791437,0.36057785153388977,0.0,0.0,0.0,0.0,0.0,0.0,0.0,0.0,0.0
1606828498705691352,2348952,1606828498695750121,imu_link,0.0019477999303489923,0.0006532020051963627,0.13926677405834198,0.9902527928352356,0.0,0.0,0.0,0.0,0.0,0.0,0.0,0.0,0.0,16.010957717895508,0.043037302792072296,0.23145084083080292,0.0,0.0,0.0,0.0,0.0,0.0,0.0,0.0,0.0,0.027057604864239693,-0.0027777052018791437,0.36057785153388977,0.0,0.0,0.0,0.0,0.0,0.0,0.0,0.0,0.0
1606828498705704559,2348953,1606828498695822190,imu_link,0.0019459641771391034,0.0006575187435373664,0.1392659693956375,0.9902529120445251,0.0,0.0,0.0,0.0,0.0,0.0,0.0,0.0,0.0,16.010868072509766,0.04355662688612938,0.2313113659620285,0.0,0.0,0.0,0.0,0.0,0.0,0.0,0.0,0.0,0.020325414836406708,-0.015196530148386955,0.3546120822429657,0.0,0.0,0.0,0.0,0.0,0.0,0.0,0.0,0.0
1606828498705724010,2348954,1606828498695916268,imu_link,0.0019459641771391034,0.0006575187435373664,0.1392659693956375,0.9902529120445251,0.0,0.0,0.0,0.0,0.0,0.0,0.0,0.0,0.0,16.010868072509766,0.04355662688612938,0.2313113659620285,0.0,0.0,0.0,0.0,0.0,0.0,0.0,0.0,0.0,0.020325414836406708,-0.015196530148386955,0.3546120822429657,0.0,0.0,0.0,0.0,0.0,0.0,0.0,0.0,0.0
1606828498705875277,2348955,1606828498695985721,imu_link,0.001945222495123744,0.0006576203741133213,0.13926781713962555,0.990252673625946,0.0,0.0,0.0,0.0,0.0,0.0,0.0,0.0,0.0,16.01108169555664,0.04357956349849701,0.23122891783714294,0.0,0.0,0.0,0.0,0.0,0.0,0.0,0.0,0.0,0.010475988499820232,-0.0005336813628673553,0.337837815284729,0.0,0.0,0.0,0.0,0.0,0.0,0.0,0.0,0.0
1606828498705904266,2348956,1606828498696069302,imu_link,0.001945222495123744,0.0006576203741133213,0.13926781713962555,0.990252673625946,0.0,0.0,0.0,0.0,0.0,0.0,0.0,0.0,0.0,16.01108169555664,0.04357956349849701,0.23122891783714294,0.0,0.0,0.0,0.0,0.0,0.0,0.0,0.0,0.0,0.010475988499820232,-0.0005336813628673553,0.337837815284729,0.0,0.0,0.0,0.0,0.0,0.0,0.0,0.0,0.0
1606828498705911810,2348957,1606828498696137539,imu_link,0.001947046723216772,0.0006577724125236273,0.13926644623279572,0.9902528524398804,0.0,0.0,0.0,0.0,0.0,0.0,0.0,0.0,0.0,16.010921478271484,0.04356802627444267,0.2314382791519165,0.0,0.0,0.0,0.0,0.0,0.0,0.0,0.0,0.0,0.00414698850363493,-0.0041488949209451675,0.34122079610824585,0.0,0.0,0.0,0.0,0.0,0.0,0.0,0.0,0.0
1606828498705921977,2348958,1606828498696214846,imu_link,0.001947046723216772,0.0006577724125236273,0.13926644623279572,0.9902528524398804,0.0,0.0,0.0,0.0,0.0,0.0,0.0,0.0,0.0,16.010921478271484,0.04356802627444267,0.2314382791519165,0.0,0.0,0.0,0.0,0.0,0.0,0.0,0.0,0.0,0.00414698850363493,-0.0041488949209451675,0.34122079610824585,0.0,0.0,0.0,0.0,0.0,0.0,0.0,0.0,0.0
1606828498717672967,2348959,1606828498708671465,imu_link,0.001946705742739141,0.0006578296888619661,0.1392681896686554,0.9902526140213013,0.0,0.0,0.0,0.0,0.0,0.0,0.0,0.0,0.0,16.011125564575195,0.04357956349849701,0.23140054941177368,0.0,0.0,0.0,0.0,0.0,0.0,0.0,0.0,0.0,0.014505536295473576,-0.0040451460517942905,0.3274446725845337,0.0,0.0,0.0,0.0,0.0,0.0,0.0,0.0,0.0
1606828498720750548,2348960,1606828498708793568,imu_link,0.001946705742739141,0.0006578296888619661,0.1392681896686554,0.9902526140213013,0.0,0.0,0.0,0.0,0.0,0.0,0.0,0.0,0.0,16.011125564575195,0.04357956349849701,0.23140054941177368,0.0,0.0,0.0,0.0,0.0,0.0,0.0,0.0,0.0,0.014505536295473576,-0.0040451460517942905,0.3274446725845337,0.0,0.0,0.0,0.0,0.0,0.0,0.0,0.0,0.0
1606828498720774618,2348961,1606828498708947213,imu_link,0.0019471560372039676,0.0006609811098314822,0.1392689049243927,0.9902525544166565,0.0,0.0,0.0,0.0,0.0,0.0,0.0,0.0,0.0,16.011207580566406,0.0439298115670681,0.2315019965171814,0.0,0.0,0.0,0.0,0.0,0.0,0.0,0.0,0.0,0.00621656933799386,0.0021227931138128042,0.30671003460884094,0.0,0.0,0.0,0.0,0.0,0.0,0.0,0.0,0.0
1606828498720861369,2348962,1606828498709014288,imu_link,0.0019471560372039676,0.0006609811098314822,0.1392689049243927,0.9902525544166565,0.0,0.0,0.0,0.0,0.0,0.0,0.0,0.0,0.0,16.011207580566406,0.0439298115670681,0.2315019965171814,0.0,0.0,0.0,0.0,0.0,0.0,0.0,0.0,0.0,0.00621656933799386,0.0021227931138128042,0.30671003460884094,0.0,0.0,0.0,0.0,0.0,0.0,0.0,0.0,0.0
1606828498720881390,2348963,1606828498709085011,imu_link,0.0019454065477475524,0.0006600720225833356,0.13926956057548523,0.9902524352073669,0.0,0.0,0.0,0.0,0.0,0.0,0.0,0.0,0.0,16.011281967163086,0.043854422867298126,0.23128899931907654,0.0,0.0,0.0,0.0,0.0,0.0,0.0,0.0,0.0,-0.007906333543360233,-0.013063383288681507,0.32284149527549744,0.0,0.0,0.0,0.0,0.0,0.0,0.0,0.0,0.0
1606828498720887996,2348964,1606828498709165610,imu_link,0.0019454065477475524,0.0006600720225833356,0.13926956057548523,0.9902524352073669,0.0,0.0,0.0,0.0,0.0,0.0,0.0,0.0,0.0,16.011281967163086,0.043854422867298126,0.23128899931907654,0.0,0.0,0.0,0.0,0.0,0.0,0.0,0.0,0.0,-0.007906333543360233,-0.013063383288681507,0.32284149527549744,0.0,0.0,0.0,0.0,0.0,0.0,0.0,0.0,0.0
1606828498720899100,2348965,1606828498709260727,imu_link,0.0019482964416965842,0.0006595833110623062,0.13927006721496582,0.9902523756027222,0.0,0.0,0.0,0.0,0.0,0.0,0.0,0.0,0.0,16.011341094970703,0.043752726167440414,0.23160913586616516,0.0,0.0,0.0,0.0,0.0,0.0,0.0,0.0,0.0,-0.007297529373317957,-0.018761996179819107,0.34331586956977844,0.0,0.0,0.0,0.0,0.0,0.0,0.0,0.0,0.0
1606828498720917617,2348966,1606828498709333699,imu_link,0.0019482964416965842,0.0006595833110623062,0.13927006721496582,0.9902523756027222,0.0,0.0,0.0,0.0,0.0,0.0,0.0,0.0,0.0,16.011341094970703,0.043752726167440414,0.23160913586616516,0.0,0.0,0.0,0.0,0.0,0.0,0.0,0.0,0.0,-0.007297529373317957,-0.018761996179819107,0.34331586956977844,0.0,0.0,0.0,0.0,0.0,0.0,0.0,0.0,0.0
1606828498720924808,2348967,1606828498709402076,imu_link,0.0019488513935357332,0.0006611318094655871,0.13927139341831207,0.9902521967887878,0.0,0.0,0.0,0.0,0.0,0.0,0.0,0.0,0.0,16.01149559020996,0.04391927644610405,0.23169688880443573,0.0,0.0,0.0,0.0,0.0,0.0,0.0,0.0,0.0,-0.005098027177155018,-0.0017990926280617714,0.3401351869106293,0.0,0.0,0.0,0.0,0.0,0.0,0.0,0.0,0.0
1606828498720936647,2348968,1606828498709474871,imu_link,0.0019488513935357332,0.0006611318094655871,0.13927139341831207,0.9902521967887878,0.0,0.0,0.0,0.0,0.0,0.0,0.0,0.0,0.0,16.01149559020996,0.04391927644610405,0.23169688880443573,0.0,0.0,0.0,0.0,0.0,0.0,0.0,0.0,0.0,-0.005098027177155018,-0.0017990926280617714,0.3401351869106293,0.0,0.0,0.0,0.0,0.0,0.0,0.0,0.0,0.0
1606828498720960634,2348969,1606828498709542849,imu_link,0.0019508225377649069,0.0006601866916753352,0.13927653431892395,0.9902514815330505,0.0,0.0,0.0,0.0,0.0,0.0,0.0,0.0,0.0,16.0120906829834,0.043779365718364716,0.2319057434797287,0.0,0.0,0.0,0.0,0.0,0.0,0.0,0.0,0.0,-0.003683208953589201,0.015571383759379387,0.3258475363254547,0.0,0.0,0.0,0.0,0.0,0.0,0.0,0.0,0.0
1606828498751553114,2348970,1606828498722437649,imu_link,0.0019508225377649069,0.0006601866916753352,0.13927653431892395,0.9902514815330505,0.0,0.0,0.0,0.0,0.0,0.0,0.0,0.0,0.0,16.0120906829834,0.043779365718364716,0.2319057434797287,0.0,0.0,0.0,0.0,0.0,0.0,0.0,0.0,0.0,-0.003683208953589201,0.015571383759379387,0.3258475363254547,0.0,0.0,0.0,0.0,0.0,0.0,0.0,0.0,0.0
1606828498751598557,2348971,1606828498722574214,imu_link,0.001951465499587357,0.0006580124027095735,0.13927768170833588,0.9902513027191162,0.0,0.0,0.0,0.0,0.0,0.0,0.0,0.0,0.0,16.012222290039062,0.04352210834622383,0.2319440394639969,0.0,0.0,0.0,0.0,0.0,0.0,0.0,0.0,0.0,-0.0010681857820600271,0.015011440962553024,0.32924214005470276,0.0,0.0,0.0,0.0,0.0,0.0,0.0,0.0,0.0
1606828498751618816,2348972,1606828498722759723,imu_link,0.001951465499587357,0.0006580124027095735,0.13927768170833588,0.9902513027191162,0.0,0.0,0.0,0.0,0.0,0.0,0.0,0.0,0.0,16.012222290039062,0.04352210834622383,0.2319440394639969,0.0,0.0,0.0,0.0,0.0,0.0,0.0,0.0,0.0,-0.0010681857820600271,0.015011440962553024,0.32924214005470276,0.0,0.0,0.0,0.0,0.0,0.0,0.0,0.0,0.0
1606828498751703754,2348973,1606828498722850838,imu_link,0.0019497951725497842,0.0006572612910531461,0.13928444683551788,0.990250289440155,0.0,0.0,0.0,0.0,0.0,0.0,0.0,0.0,0.0,16.01300621032715,0.04346195235848427,0.23174281418323517,0.0,0.0,0.0,0.0,0.0,0.0,0.0,0.0,0.0,-0.0042478530667722225,-0.006991809234023094,0.3500894606113434,0.0,0.0,0.0,0.0,0.0,0.0,0.0,0.0,0.0
1606828498751719375,2348974,1606828498722951325,imu_link,0.0019497951725497842,0.0006572612910531461,0.13928444683551788,0.990250289440155,0.0,0.0,0.0,0.0,0.0,0.0,0.0,0.0,0.0,16.01300621032715,0.04346195235848427,0.23174281418323517,0.0,0.0,0.0,0.0,0.0,0.0,0.0,0.0,0.0,-0.0042478530667722225,-0.006991809234023094,0.3500894606113434,0.0,0.0,0.0,0.0,0.0,0.0,0.0,0.0,0.0
1606828498751767441,2348975,1606828498723058372,imu_link,0.0019494107691571116,0.0006586835370399058,0.13928543031215668,0.9902501702308655,0.0,0.0,0.0,0.0,0.0,0.0,0.0,0.0,0.0,16.013120651245117,0.0436292439699173,0.2317219227552414,0.0,0.0,0.0,0.0,0.0,0.0,0.0,0.0,0.0,0.00560040632262826,-0.022861655801534653,0.35201510787010193,0.0,0.0,0.0,0.0,0.0,0.0,0.0,0.0,0.0
1606828498751792130,2348976,1606828498723136978,imu_link,0.0019494107691571116,0.0006586835370399058,0.13928543031215668,0.9902501702308655,0.0,0.0,0.0,0.0,0.0,0.0,0.0,0.0,0.0,16.013120651245117,0.0436292439699173,0.2317219227552414,0.0,0.0,0.0,0.0,0.0,0.0,0.0,0.0,0.0,0.00560040632262826,-0.022861655801534653,0.35201510787010193,0.0,0.0,0.0,0.0,0.0,0.0,0.0,0.0,0.0
1606828498751835024,2348977,1606828498723213034,imu_link,0.0019541699439287186,0.0006611267453990877,0.13929378986358643,0.99024897813797,0.0,0.0,0.0,0.0,0.0,0.0,0.0,0.0,0.0,16.014087677001953,0.043828561902046204,0.23230133950710297,0.0,0.0,0.0,0.0,0.0,0.0,0.0,0.0,0.0,0.014400165528059006,-0.022830737754702568,0.35975632071495056,0.0,0.0,0.0,0.0,0.0,0.0,0.0,0.0,0.0
1606828498751857062,2348978,1606828498723320482,imu_link,0.0019541699439287186,0.0006611267453990877,0.13929378986358643,0.99024897813797,0.0,0.0,0.0,0.0,0.0,0.0,0.0,0.0,0.0,16.014087677001953,0.043828561902046204,0.23230133950710297,0.0,0.0,0.0,0.0,0.0,0.0,0.0,0.0,0.0,0.014400165528059006,-0.022830737754702568,0.35975632071495056,0.0,0.0,0.0,0.0,0.0,0.0,0.0,0.0,0.0
1606828498751880035,2348979,1606828498723410951,imu_link,0.0019522710936143994,0.0006621837965212762,0.13929462432861328,0.9902488589286804,0.0,0.0,0.0,0.0,0.0,0.0,0.0,0.0,0.0,16.014184951782227,0.043978624045848846,0.23210278153419495,0.0,0.0,0.0,0.0,0.0,0.0,0.0,0.0,0.0,0.007767494767904282,-0.01999603398144245,0.3691411018371582,0.0,0.0,0.0,0.0,0.0,0.0,0.0,0.0,0.0
1606828498751898119,2348980,1606828498723488605,imu_link,0.0019522710936143994,0.0006621837965212762,0.13929462432861328,0.9902488589286804,0.0,0.0,0.0,0.0,0.0,0.0,0.0,0.0,0.0,16.014184951782227,0.043978624045848846,0.23210278153419495,0.0,0.0,0.0,0.0,0.0,0.0,0.0,0.0,0.0,0.007767494767904282,-0.01999603398144245,0.3691411018371582,0.0,0.0,0.0,0.0,0.0,0.0,0.0,0.0,0.0
1606828498751928003,2348981,1606828498735418695,imu_link,0.001954528735950589,0.0006648406269960105,0.13930201530456543,0.9902478456497192,0.0,0.0,0.0,0.0,0.0,0.0,0.0,0.0,0.0,16.01504135131836,0.04424233362078667,0.23240168392658234,0.0,0.0,0.0,0.0,0.0,0.0,0.0,0.0,0.0,0.007733368314802647,-0.0112617127597332,0.3503497540950775,0.0,0.0,0.0,0.0,0.0,0.0,0.0,0.0,0.0
1606828498751943815,2348982,1606828498735562311,imu_link,0.001954528735950589,0.0006648406269960105,0.13930201530456543,0.9902478456497192,0.0,0.0,0.0,0.0,0.0,0.0,0.0,0.0,0.0,16.01504135131836,0.04424233362078667,0.23240168392658234,0.0,0.0,0.0,0.0,0.0,0.0,0.0,0.0,0.0,0.007733368314802647,-0.0112617127597332,0.3503497540950775,0.0,0.0,0.0,0.0,0.0,0.0,0.0,0.0,0.0
1606828498751952708,2348983,1606828498735738558,imu_link,0.001953653059899807,0.0006644909153692424,0.13930350542068481,0.9902476072311401,0.0,0.0,0.0,0.0,0.0,0.0,0.0,0.0,0.0,16.01521110534668,0.044216278940439224,0.23229682445526123,0.0,0.0,0.0,0.0,0.0,0.0,0.0,0.0,0.0,0.01636197417974472,-0.011369802057743073,0.32014983892440796,0.0,0.0,0.0,0.0,0.0,0.0,0.0,0.0,0.0
1606828498751977427,2348984,1606828498735831929,imu_link,0.001953653059899807,0.0006644909153692424,0.13930350542068481,0.9902476072311401,0.0,0.0,0.0,0.0,0.0,0.0,0.0,0.0,0.0,16.01521110534668,0.044216278940439224,0.23229682445526123,0.0,0.0,0.0,0.0,0.0,0.0,0.0,0.0,0.0,0.01636197417974472,-0.011369802057743073,0.32014983892440796,0.0,0.0,0.0,0.0,0.0,0.0,0.0,0.0,0.0
1606828498751992604,2348985,1606828498735915236,imu_link,0.001957159023731947,0.0006695379852317274,0.13930968940258026,0.9902467131614685,0.0,0.0,0.0,0.0,0.0,0.0,0.0,0.0,0.0,16.01593017578125,0.04473156854510307,0.2327755093574524,0.0,0.0,0.0,0.0,0.0,0.0,0.0,0.0,0.0,0.007970521226525307,0.009426306001842022,0.3117162585258484,0.0,0.0,0.0,0.0,0.0,0.0,0.0,0.0,0.0
1606828498752002199,2348986,1606828498736020785,imu_link,0.001957159023731947,0.0006695379852317274,0.13930968940258026,0.9902467131614685,0.0,0.0,0.0,0.0,0.0,0.0,0.0,0.0,0.0,16.01593017578125,0.04473156854510307,0.2327755093574524,0.0,0.0,0.0,0.0,0.0,0.0,0.0,0.0,0.0,0.007970521226525307,0.009426306001842022,0.3117162585258484,0.0,0.0,0.0,0.0,0.0,0.0,0.0,0.0,0.0
1606828498752019632,2348987,1606828498736105811,imu_link,0.001957144122570753,0.0006688372232019901,0.13931231200695038,0.9902463555335999,0.0,0.0,0.0,0.0,0.0,0.0,0.0,0.0,0.0,16.016233444213867,0.04465167224407196,0.23276272416114807,0.0,0.0,0.0,0.0,0.0,0.0,0.0,0.0,0.0,-0.008808928541839123,0.04076683521270752,0.33969613909721375,0.0,0.0,0.0,0.0,0.0,0.0,0.0,0.0,0.0
1606828498752028189,2348988,1606828498736183851,imu_link,0.001957144122570753,0.0006688372232019901,0.13931231200695038,0.9902463555335999,0.0,0.0,0.0,0.0,0.0,0.0,0.0,0.0,0.0,16.016233444213867,0.04465167224407196,0.23276272416114807,0.0,0.0,0.0,0.0,0.0,0.0,0.0,0.0,0.0,-0.008808928541839123,0.04076683521270752,0.33969613909721375,0.0,0.0,0.0,0.0,0.0,0.0,0.0,0.0,0.0
1606828498752116996,2348989,1606828498736261570,imu_link,0.0019505734089761972,0.0006653492455370724,0.13931812345981598,0.9902455806732178,0.0,0.0,0.0,0.0,0.0,0.0,0.0,0.0,0.0,16.016904830932617,0.044359415769577026,0.23196172714233398,0.0,0.0,0.0,0.0,0.0,0.0,0.0,0.0,0.0,0.0034367069602012634,0.030256349593400955,0.3542161285877228,0.0,0.0,0.0,0.0,0.0,0.0,0.0,0.0,0.0
1606828498752177987,2348990,1606828498736345444,imu_link,0.0019505734089761972,0.0006653492455370724,0.13931812345981598,0.9902455806732178,0.0,0.0,0.0,0.0,0.0,0.0,0.0,0.0,0.0,16.016904830932617,0.044359415769577026,0.23196172714233398,0.0,0.0,0.0,0.0,0.0,0.0,0.0,0.0,0.0,0.0034367069602012634,0.030256349593400955,0.3542161285877228,0.0,0.0,0.0,0.0,0.0,0.0,0.0,0.0,0.0
1606828498758613027,2348991,1606828498748846490,imu_link,0.0019504654919728637,0.0006659989012405276,0.13931848108768463,0.990245521068573,0.0,0.0,0.0,0.0,0.0,0.0,0.0,0.0,0.0,16.01694679260254,0.044434770941734314,0.23195987939834595,0.0,0.0,0.0,0.0,0.0,0.0,0.0,0.0,0.0,0.03730810061097145,0.020864350721240044,0.3479403257369995,0.0,0.0,0.0,0.0,0.0,0.0,0.0,0.0,0.0
1606828498758637430,2348992,1606828498748960441,imu_link,0.0019504654919728637,0.0006659989012405276,0.13931848108768463,0.990245521068573,0.0,0.0,0.0,0.0,0.0,0.0,0.0,0.0,0.0,16.01694679260254,0.044434770941734314,0.23195987939834595,0.0,0.0,0.0,0.0,0.0,0.0,0.0,0.0,0.0,0.03730810061097145,0.020864350721240044,0.3479403257369995,0.0,0.0,0.0,0.0,0.0,0.0,0.0,0.0,0.0
1606828498758655051,2348993,1606828498749111453,imu_link,0.0019467168021947145,0.0006713519105687737,0.13931293785572052,0.9902462959289551,0.0,0.0,0.0,0.0,0.0,0.0,0.0,0.0,0.0,16.016305923461914,0.04510333761572838,0.2316196858882904,0.0,0.0,0.0,0.0,0.0,0.0,0.0,0.0,0.0,0.04126298427581787,0.013785555958747864,0.3349978029727936,0.0,0.0,0.0,0.0,0.0,0.0,0.0,0.0,0.0
1606828498758679232,2348994,1606828498749182068,imu_link,0.0019467168021947145,0.0006713519105687737,0.13931293785572052,0.9902462959289551,0.0,0.0,0.0,0.0,0.0,0.0,0.0,0.0,0.0,16.016305923461914,0.04510333761572838,0.2316196858882904,0.0,0.0,0.0,0.0,0.0,0.0,0.0,0.0,0.0,0.04126298427581787,0.013785555958747864,0.3349978029727936,0.0,0.0,0.0,0.0,0.0,0.0,0.0,0.0,0.0
1606828498758698145,2348995,1606828498749244649,imu_link,0.001945274998433888,0.0006717760115861893,0.1393139362335205,0.9902461767196655,0.0,0.0,0.0,0.0,0.0,0.0,0.0,0.0,0.0,16.016422271728516,0.0451742522418499,0.23146291077136993,0.0,0.0,0.0,0.0,0.0,0.0,0.0,0.0,0.0,0.022597379982471466,0.008658956736326218,0.32782548666000366,0.0,0.0,0.0,0.0,0.0,0.0,0.0,0.0,0.0
1606828498758745970,2348996,1606828498749318399,imu_link,0.001945274998433888,0.0006717760115861893,0.1393139362335205,0.9902461767196655,0.0,0.0,0.0,0.0,0.0,0.0,0.0,0.0,0.0,16.016422271728516,0.0451742522418499,0.23146291077136993,0.0,0.0,0.0,0.0,0.0,0.0,0.0,0.0,0.0,0.022597379982471466,0.008658956736326218,0.32782548666000366,0.0,0.0,0.0,0.0,0.0,0.0,0.0,0.0,0.0
1606828498758795712,2348997,1606828498749398548,imu_link,0.0019453555578365922,0.0006761049735359848,0.13930697739124298,0.9902471303939819,0.0,0.0,0.0,0.0,0.0,0.0,0.0,0.0,0.0,16.015615463256836,0.04566581919789314,0.23154081404209137,0.0,0.0,0.0,0.0,0.0,0.0,0.0,0.0,0.0,0.016623694449663162,0.003862126264721155,0.32702967524528503,0.0,0.0,0.0,0.0,0.0,0.0,0.0,0.0,0.0
1606828498758837130,2348998,1606828498749468449,imu_link,0.0019453555578365922,0.0006761049735359848,0.13930697739124298,0.9902471303939819,0.0,0.0,0.0,0.0,0.0,0.0,0.0,0.0,0.0,16.015615463256836,0.04566581919789314,0.23154081404209137,0.0,0.0,0.0,0.0,0.0,0.0,0.0,0.0,0.0,0.016623694449663162,0.003862126264721155,0.32702967524528503,0.0,0.0,0.0,0.0,0.0,0.0,0.0,0.0,0.0
1606828498762096115,2348999,1606828498749530200,imu_link,0.0019442894263193011,0.0006779370014555752,0.13930821418762207,0.9902469515800476,0.0,0.0,0.0,0.0,0.0,0.0,0.0,0.0,0.0,16.01576042175293,0.045890435576438904,0.23144914209842682,0.0,0.0,0.0,0.0,0.0,0.0,0.0,0.0,0.0,0.00359938177280128,-0.0038431109860539436,0.3237936198711395,0.0,0.0,0.0,0.0,0.0,0.0,0.0,0.0,0.0
1606828498762122097,2349000,1606828498749596801,imu_link,0.0019442894263193011,0.0006779370014555752,0.13930821418762207,0.9902469515800476,0.0,0.0,0.0,0.0,0.0,0.0,0.0,0.0,0.0,16.01576042175293,0.045890435576438904,0.23144914209842682,0.0,0.0,0.0,0.0,0.0,0.0,0.0,0.0,0.0,0.00359938177280128,-0.0038431109860539436,0.3237936198711395,0.0,0.0,0.0,0.0,0.0,0.0,0.0,0.0,0.0
1606828498762130193,2349001,1606828498749667909,imu_link,0.0019460010807961226,0.0006781723932363093,0.13930447399616241,0.9902474880218506,0.0,0.0,0.0,0.0,0.0,0.0,0.0,0.0,0.0,16.01532745361328,0.0458906926214695,0.23164696991443634,0.0,0.0,0.0,0.0,0.0,0.0,0.0,0.0,0.0,-0.008411613292992115,-0.0032236329279839993,0.31048619747161865,0.0,0.0,0.0,0.0,0.0,0.0,0.0,0.0,0.0
1606828498771684730,2349002,1606828498762616519,imu_link,0.0019460010807961226,0.0006781723932363093,0.13930447399616241,0.9902474880218506,0.0,0.0,0.0,0.0,0.0,0.0,0.0,0.0,0.0,16.01532745361328,0.0458906926214695,0.23164696991443634,0.0,0.0,0.0,0.0,0.0,0.0,0.0,0.0,0.0,-0.008411613292992115,-0.0032236329279839993,0.31048619747161865,0.0,0.0,0.0,0.0,0.0,0.0,0.0,0.0,0.0
1606828498772789229,2349003,1606828498762750072,imu_link,0.0019465619698166847,0.0006806623423472047,0.1393057256937027,0.9902473092079163,0.0,0.0,0.0,0.0,0.0,0.0,0.0,0.0,0.0,16.015474319458008,0.04616399109363556,0.23175041377544403,0.0,0.0,0.0,0.0,0.0,0.0,0.0,0.0,0.0,-0.005339792463928461,-0.010986030101776123,0.31132495403289795,0.0,0.0,0.0,0.0,0.0,0.0,0.0,0.0,0.0
1606828498772808708,2349004,1606828498762935019,imu_link,0.0019465619698166847,0.0006806623423472047,0.1393057256937027,0.9902473092079163,0.0,0.0,0.0,0.0,0.0,0.0,0.0,0.0,0.0,16.015474319458008,0.04616399109363556,0.23175041377544403,0.0,0.0,0.0,0.0,0.0,0.0,0.0,0.0,0.0,-0.005339792463928461,-0.010986030101776123,0.31132495403289795,0.0,0.0,0.0,0.0,0.0,0.0,0.0,0.0,0.0
1606828498772817526,2349005,1606828498763020958,imu_link,0.001948426477611065,0.0006784119759686291,0.13930335640907288,0.9902476668357849,0.0,0.0,0.0,0.0,0.0,0.0,0.0,0.0,0.0,16.01519775390625,0.04587942361831665,0.23192596435546875,0.0,0.0,0.0,0.0,0.0,0.0,0.0,0.0,0.0,-0.003867201041430235,-0.01801297999918461,0.31060507893562317,0.0,0.0,0.0,0.0,0.0,0.0,0.0,0.0,0.0
1606828498772828623,2349006,1606828498763105057,imu_link,0.001948426477611065,0.0006784119759686291,0.13930335640907288,0.9902476668357849,0.0,0.0,0.0,0.0,0.0,0.0,0.0,0.0,0.0,16.01519775390625,0.04587942361831665,0.23192596435546875,0.0,0.0,0.0,0.0,0.0,0.0,0.0,0.0,0.0,-0.003867201041430235,-0.01801297999918461,0.31060507893562317,0.0,0.0,0.0,0.0,0.0,0.0,0.0,0.0,0.0
1606828498772838566,2349007,1606828498763201920,imu_link,0.0019482346251606941,0.0006784482975490391,0.13930407166481018,0.9902475476264954,0.0,0.0,0.0,0.0,0.0,0.0,0.0,0.0,0.0,16.015281677246094,0.04588644579052925,0.2319047898054123,0.0,0.0,0.0,0.0,0.0,0.0,0.0,0.0,0.0,0.001958698034286499,-0.011721314862370491,0.3163416385650635,0.0,0.0,0.0,0.0,0.0,0.0,0.0,0.0,0.0
1606828498772846110,2349008,1606828498763344144,imu_link,0.0019482346251606941,0.0006784482975490391,0.13930407166481018,0.9902475476264954,0.0,0.0,0.0,0.0,0.0,0.0,0.0,0.0,0.0,16.015281677246094,0.04588644579052925,0.2319047898054123,0.0,0.0,0.0,0.0,0.0,0.0,0.0,0.0,0.0,0.001958698034286499,-0.011721314862370491,0.3163416385650635,0.0,0.0,0.0,0.0,0.0,0.0,0.0,0.0,0.0
1606828498772854915,2349009,1606828498763420665,imu_link,0.0019503245130181313,0.0006791123887524009,0.1393037587404251,0.9902476072311401,0.0,0.0,0.0,0.0,0.0,0.0,0.0,0.0,0.0,16.01524543762207,0.04592851176857948,0.23215252161026,0.0,0.0,0.0,0.0,0.0,0.0,0.0,0.0,0.0,0.00669264467433095,0.002050448674708605,0.35134419798851013,0.0,0.0,0.0,0.0,0.0,0.0,0.0,0.0,0.0
1606828498773872253,2349010,1606828498763497843,imu_link,0.0019503245130181313,0.0006791123887524009,0.1393037587404251,0.9902476072311401,0.0,0.0,0.0,0.0,0.0,0.0,0.0,0.0,0.0,16.01524543762207,0.04592851176857948,0.23215252161026,0.0,0.0,0.0,0.0,0.0,0.0,0.0,0.0,0.0,0.00669264467433095,0.002050448674708605,0.35134419798851013,0.0,0.0,0.0,0.0,0.0,0.0,0.0,0.0,0.0
1606828498773887707,2349011,1606828498763587926,imu_link,0.0019499639747664332,0.0006779165705665946,0.13930478692054749,0.990247368812561,0.0,0.0,0.0,0.0,0.0,0.0,0.0,0.0,0.0,16.01536750793457,0.04579832777380943,0.23209258913993835,0.0,0.0,0.0,0.0,0.0,0.0,0.0,0.0,0.0,0.006844730582088232,0.004889818374067545,0.3487711548805237,0.0,0.0,0.0,0.0,0.0,0.0,0.0,0.0,0.0
1606828498773899190,2349012,1606828498763663080,imu_link,0.0019499639747664332,0.0006779165705665946,0.13930478692054749,0.990247368812561,0.0,0.0,0.0,0.0,0.0,0.0,0.0,0.0,0.0,16.01536750793457,0.04579832777380943,0.23209258913993835,0.0,0.0,0.0,0.0,0.0,0.0,0.0,0.0,0.0,0.006844730582088232,0.004889818374067545,0.3487711548805237,0.0,0.0,0.0,0.0,0.0,0.0,0.0,0.0,0.0
1606828498792435296,2349013,1606828498776081959,imu_link,0.0019485707161948085,0.0006814359221607447,0.13930372893810272,0.9902475476264954,0.0,0.0,0.0,0.0,0.0,0.0,0.0,0.0,0.0,16.015243530273438,0.04622017592191696,0.23199062049388885,0.0,0.0,0.0,0.0,0.0,0.0,0.0,0.0,0.0,0.01007866207510233,0.006243359297513962,0.3178022801876068,0.0,0.0,0.0,0.0,0.0,0.0,0.0,0.0,0.0
1606828498792451103,2349014,1606828498776218789,imu_link,0.0019485707161948085,0.0006814359221607447,0.13930372893810272,0.9902475476264954,0.0,0.0,0.0,0.0,0.0,0.0,0.0,0.0,0.0,16.015243530273438,0.04622017592191696,0.23199062049388885,0.0,0.0,0.0,0.0,0.0,0.0,0.0,0.0,0.0,0.01007866207510233,0.006243359297513962,0.3178022801876068,0.0,0.0,0.0,0.0,0.0,0.0,0.0,0.0,0.0
1606828498792459395,2349015,1606828498776407896,imu_link,0.0019476208835840225,0.0006826777826063335,0.13930439949035645,0.9902474880218506,0.0,0.0,0.0,0.0,0.0,0.0,0.0,0.0,0.0,16.01531982421875,0.046376097947359085,0.23190270364284515,0.0,0.0,0.0,0.0,0.0,0.0,0.0,0.0,0.0,0.013811447657644749,0.004413174465298653,0.32489004731178284,0.0,0.0,0.0,0.0,0.0,0.0,0.0,0.0,0.0
1606828498792471202,2349016,1606828498776511881,imu_link,0.0019476208835840225,0.0006826777826063335,0.13930439949035645,0.9902474880218506,0.0,0.0,0.0,0.0,0.0,0.0,0.0,0.0,0.0,16.01531982421875,0.046376097947359085,0.23190270364284515,0.0,0.0,0.0,0.0,0.0,0.0,0.0,0.0,0.0,0.013811447657644749,0.004413174465298653,0.32489004731178284,0.0,0.0,0.0,0.0,0.0,0.0,0.0,0.0,0.0
1606828498792483191,2349017,1606828498776590963,imu_link,0.0019473665161058307,0.0006842720322310925,0.13931480050086975,0.9902459979057312,0.0,0.0,0.0,0.0,0.0,0.0,0.0,0.0,0.0,16.016523361206055,0.04655863344669342,0.23189976811408997,0.0,0.0,0.0,0.0,0.0,0.0,0.0,0.0,0.0,0.018006736412644386,0.0008789827115833759,0.35228800773620605,0.0,0.0,0.0,0.0,0.0,0.0,0.0,0.0,0.0
1606828498793365155,2349018,1606828498776677799,imu_link,0.0019473665161058307,0.0006842720322310925,0.13931480050086975,0.9902459979057312,0.0,0.0,0.0,0.0,0.0,0.0,0.0,0.0,0.0,16.016523361206055,0.04655863344669342,0.23189976811408997,0.0,0.0,0.0,0.0,0.0,0.0,0.0,0.0,0.0,0.018006736412644386,0.0008789827115833759,0.35228800773620605,0.0,0.0,0.0,0.0,0.0,0.0,0.0,0.0,0.0
1606828498793398074,2349019,1606828498776789933,imu_link,0.0019488832913339138,0.0006842000293545425,0.13931486010551453,0.9902459979057312,0.0,0.0,0.0,0.0,0.0,0.0,0.0,0.0,0.0,16.016530990600586,0.0465262308716774,0.2320707142353058,0.0,0.0,0.0,0.0,0.0,0.0,0.0,0.0,0.0,0.004596838261932135,0.009947948157787323,0.36323443055152893,0.0,0.0,0.0,0.0,0.0,0.0,0.0,0.0,0.0
1606828498793427119,2349020,1606828498776877224,imu_link,0.0019488832913339138,0.0006842000293545425,0.13931486010551453,0.9902459979057312,0.0,0.0,0.0,0.0,0.0,0.0,0.0,0.0,0.0,16.016530990600586,0.0465262308716774,0.2320707142353058,0.0,0.0,0.0,0.0,0.0,0.0,0.0,0.0,0.0,0.004596838261932135,0.009947948157787323,0.36323443055152893,0.0,0.0,0.0,0.0,0.0,0.0,0.0,0.0,0.0
1606828498793458062,2349021,1606828498776955836,imu_link,0.0019460830371826887,0.0006834750529378653,0.13932259380817413,0.9902449250221252,0.0,0.0,0.0,0.0,0.0,0.0,0.0,0.0,0.0,16.017423629760742,0.04648686200380325,0.2317417412996292,0.0,0.0,0.0,0.0,0.0,0.0,0.0,0.0,0.0,-0.007150431163609028,0.009021138772368431,0.363517701625824,0.0,0.0,0.0,0.0,0.0,0.0,0.0,0.0,0.0
1606828498793475999,2349022,1606828498777040626,imu_link,0.0019460830371826887,0.0006834750529378653,0.13932259380817413,0.9902449250221252,0.0,0.0,0.0,0.0,0.0,0.0,0.0,0.0,0.0,16.017423629760742,0.04648686200380325,0.2317417412996292,0.0,0.0,0.0,0.0,0.0,0.0,0.0,0.0,0.0,-0.007150431163609028,0.009021138772368431,0.363517701625824,0.0,0.0,0.0,0.0,0.0,0.0,0.0,0.0,0.0
1606828498793493069,2349023,1606828498777122230,imu_link,0.0019438976887613535,0.0006841188878752291,0.139323428273201,0.9902448058128357,0.0,0.0,0.0,0.0,0.0,0.0,0.0,0.0,0.0,16.01752281188965,0.046594612300395966,0.23150409758090973,0.0,0.0,0.0,0.0,0.0,0.0,0.0,0.0,0.0,-0.010406102985143661,-0.010743600316345692,0.3557785451412201,0.0,0.0,0.0,0.0,0.0,0.0,0.0,0.0,0.0
1606828498799089074,2349024,1606828498790058132,imu_link,0.0019438976887613535,0.0006841188878752291,0.139323428273201,0.9902448058128357,0.0,0.0,0.0,0.0,0.0,0.0,0.0,0.0,0.0,16.01752281188965,0.046594612300395966,0.23150409758090973,0.0,0.0,0.0,0.0,0.0,0.0,0.0,0.0,0.0,-0.010406102985143661,-0.010743600316345692,0.3557785451412201,0.0,0.0,0.0,0.0,0.0,0.0,0.0,0.0,0.0
1606828498800232368,2349025,1606828498790194211,imu_link,0.0019467542879283428,0.0006812068168073893,0.1393316388130188,0.990243673324585,0.0,0.0,0.0,0.0,0.0,0.0,0.0,0.0,0.0,16.01847267150879,0.04621664434671402,0.23178213834762573,0.0,0.0,0.0,0.0,0.0,0.0,0.0,0.0,0.0,-0.006910995114594698,-0.012826982885599136,0.3556382954120636,0.0,0.0,0.0,0.0,0.0,0.0,0.0,0.0,0.0
1606828498800251622,2349026,1606828498790340318,imu_link,0.0019467542879283428,0.0006812068168073893,0.1393316388130188,0.990243673324585,0.0,0.0,0.0,0.0,0.0,0.0,0.0,0.0,0.0,16.01847267150879,0.04621664434671402,0.23178213834762573,0.0,0.0,0.0,0.0,0.0,0.0,0.0,0.0,0.0,-0.006910995114594698,-0.012826982885599136,0.3556382954120636,0.0,0.0,0.0,0.0,0.0,0.0,0.0,0.0,0.0
1606828498800269383,2349027,1606828498790426908,imu_link,0.0019456373993307352,0.0006813943618908525,0.13933339715003967,0.9902434349060059,0.0,0.0,0.0,0.0,0.0,0.0,0.0,0.0,0.0,16.018674850463867,0.04625535011291504,0.231658473610878,0.0,0.0,0.0,0.0,0.0,0.0,0.0,0.0,0.0,-0.0017454394837841392,-0.016305919736623764,0.3444697856903076,0.0,0.0,0.0,0.0,0.0,0.0,0.0,0.0,0.0
1606828498800280124,2349028,1606828498790509589,imu_link,0.0019456373993307352,0.0006813943618908525,0.13933339715003967,0.9902434349060059,0.0,0.0,0.0,0.0,0.0,0.0,0.0,0.0,0.0,16.018674850463867,0.04625535011291504,0.231658473610878,0.0,0.0,0.0,0.0,0.0,0.0,0.0,0.0,0.0,-0.0017454394837841392,-0.016305919736623764,0.3444697856903076,0.0,0.0,0.0,0.0,0.0,0.0,0.0,0.0,0.0
1606828498800301143,2349029,1606828498790611870,imu_link,0.0019500275375321507,0.0006830687052570283,0.13934360444545746,0.9902419447898865,0.0,0.0,0.0,0.0,0.0,0.0,0.0,0.0,0.0,16.01985740661621,0.046372849494218826,0.23218384385108948,0.0,0.0,0.0,0.0,0.0,0.0,0.0,0.0,0.0,-0.01843617483973503,-0.010125265456736088,0.3279326856136322,0.0,0.0,0.0,0.0,0.0,0.0,0.0,0.0,0.0
1606828498800310990,2349030,1606828498790700740,imu_link,0.0019500275375321507,0.0006830687052570283,0.13934360444545746,0.9902419447898865,0.0,0.0,0.0,0.0,0.0,0.0,0.0,0.0,0.0,16.01985740661621,0.046372849494218826,0.23218384385108948,0.0,0.0,0.0,0.0,0.0,0.0,0.0,0.0,0.0,-0.01843617483973503,-0.010125265456736088,0.3279326856136322,0.0,0.0,0.0,0.0,0.0,0.0,0.0,0.0,0.0
1606828498800318944,2349031,1606828498790817264,imu_link,0.0019500721246004105,0.0006834797677583992,0.139345183968544,0.9902417659759521,0.0,0.0,0.0,0.0,0.0,0.0,0.0,0.0,0.0,16.020038604736328,0.04641841724514961,0.23219552636146545,0.0,0.0,0.0,0.0,0.0,0.0,0.0,0.0,0.0,-0.01698554866015911,-0.0029340339824557304,0.31897443532943726,0.0,0.0,0.0,0.0,0.0,0.0,0.0,0.0,0.0
1606828498800337092,2349032,1606828498790904595,imu_link,0.0019500721246004105,0.0006834797677583992,0.139345183968544,0.9902417659759521,0.0,0.0,0.0,0.0,0.0,0.0,0.0,0.0,0.0,16.020038604736328,0.04641841724514961,0.23219552636146545,0.0,0.0,0.0,0.0,0.0,0.0,0.0,0.0,0.0,-0.01698554866015911,-0.0029340339824557304,0.31897443532943726,0.0,0.0,0.0,0.0,0.0,0.0,0.0,0.0,0.0
1606828498800344026,2349033,1606828498790985873,imu_link,0.0019496851600706577,0.0006804587319493294,0.13935256004333496,0.990240752696991,0.0,0.0,0.0,0.0,0.0,0.0,0.0,0.0,0.0,16.020893096923828,0.04608006030321121,0.23210372030735016,0.0,0.0,0.0,0.0,0.0,0.0,0.0,0.0,0.0,0.007279541343450546,-0.01726563088595867,0.32519763708114624,0.0,0.0,0.0,0.0,0.0,0.0,0.0,0.0,0.0
1606828498802252538,2349034,1606828498791068850,imu_link,0.0019496851600706577,0.0006804587319493294,0.13935256004333496,0.990240752696991,0.0,0.0,0.0,0.0,0.0,0.0,0.0,0.0,0.0,16.020893096923828,0.04608006030321121,0.23210372030735016,0.0,0.0,0.0,0.0,0.0,0.0,0.0,0.0,0.0,0.007279541343450546,-0.01726563088595867,0.32519763708114624,0.0,0.0,0.0,0.0,0.0,0.0,0.0,0.0,0.0
1606828498811792233,2349035,1606828498802805706,imu_link,0.0019502140348777175,0.0006804401054978371,0.13935397565364838,0.9902404546737671,0.0,0.0,0.0,0.0,0.0,0.0,0.0,0.0,0.0,16.021059036254883,0.046069156378507614,0.23216353356838226,0.0,0.0,0.0,0.0,0.0,0.0,0.0,0.0,0.0,0.015621070750057697,-0.01340668834745884,0.33967986702919006,0.0,0.0,0.0,0.0,0.0,0.0,0.0,0.0,0.0
1606828498812880337,2349036,1606828498802936346,imu_link,0.0019502140348777175,0.0006804401054978371,0.13935397565364838,0.9902404546737671,0.0,0.0,0.0,0.0,0.0,0.0,0.0,0.0,0.0,16.021059036254883,0.046069156378507614,0.23216353356838226,0.0,0.0,0.0,0.0,0.0,0.0,0.0,0.0,0.0,0.015621070750057697,-0.01340668834745884,0.33967986702919006,0.0,0.0,0.0,0.0,0.0,0.0,0.0,0.0,0.0
1606828498812899474,2349037,1606828498803011309,imu_link,0.0019525849493220448,0.0006866249023005366,0.13936465978622437,0.9902390241622925,0.0,0.0,0.0,0.0,0.0,0.0,0.0,0.0,0.0,16.022294998168945,0.04673060402274132,0.2325318306684494,0.0,0.0,0.0,0.0,0.0,0.0,0.0,0.0,0.0,0.013611768372356892,-0.005712375044822693,0.33599284291267395,0.0,0.0,0.0,0.0,0.0,0.0,0.0,0.0,0.0
1606828498812912990,2349038,1606828498803081783,imu_link,0.0019525849493220448,0.0006866249023005366,0.13936465978622437,0.9902390241622925,0.0,0.0,0.0,0.0,0.0,0.0,0.0,0.0,0.0,16.022294998168945,0.04673060402274132,0.2325318306684494,0.0,0.0,0.0,0.0,0.0,0.0,0.0,0.0,0.0,0.013611768372356892,-0.005712375044822693,0.33599284291267395,0.0,0.0,0.0,0.0,0.0,0.0,0.0,0.0,0.0
1606828498812942743,2349039,1606828498803150394,imu_link,0.0019530567806214094,0.0006880323053337634,0.1393662989139557,0.9902387261390686,0.0,0.0,0.0,0.0,0.0,0.0,0.0,0.0,0.0,16.022485733032227,0.04688238725066185,0.23260794579982758,0.0,0.0,0.0,0.0,0.0,0.0,0.0,0.0,0.0,0.005689753219485283,-0.014630112797021866,0.3164339065551758,0.0,0.0,0.0,0.0,0.0,0.0,0.0,0.0,0.0
1606828498812954325,2349040,1606828498803235637,imu_link,0.0019530567806214094,0.0006880323053337634,0.1393662989139557,0.9902387261390686,0.0,0.0,0.0,0.0,0.0,0.0,0.0,0.0,0.0,16.022485733032227,0.04688238725066185,0.23260794579982758,0.0,0.0,0.0,0.0,0.0,0.0,0.0,0.0,0.0,0.005689753219485283,-0.014630112797021866,0.3164339065551758,0.0,0.0,0.0,0.0,0.0,0.0,0.0,0.0,0.0
1606828498812977646,2349041,1606828498803351116,imu_link,0.0019578184001147747,0.0006893246318213642,0.13936245441436768,0.9902392625808716,0.0,0.0,0.0,0.0,0.0,0.0,0.0,0.0,0.0,16.022043228149414,0.04695388674736023,0.23316872119903564,0.0,0.0,0.0,0.0,0.0,0.0,0.0,0.0,0.0,-0.005917898379266262,-0.0239391028881073,0.31877702474594116,0.0,0.0,0.0,0.0,0.0,0.0,0.0,0.0,0.0
1606828498812990408,2349042,1606828498803422382,imu_link,0.0019578184001147747,0.0006893246318213642,0.13936245441436768,0.9902392625808716,0.0,0.0,0.0,0.0,0.0,0.0,0.0,0.0,0.0,16.022043228149414,0.04695388674736023,0.23316872119903564,0.0,0.0,0.0,0.0,0.0,0.0,0.0,0.0,0.0,-0.005917898379266262,-0.0239391028881073,0.31877702474594116,0.0,0.0,0.0,0.0,0.0,0.0,0.0,0.0,0.0
1606828498813000909,2349043,1606828498803539933,imu_link,0.0019575345795601606,0.0006885345210321248,0.13936464488506317,0.9902389645576477,0.0,0.0,0.0,0.0,0.0,0.0,0.0,0.0,0.0,16.022294998168945,0.04686824977397919,0.2331240028142929,0.0,0.0,0.0,0.0,0.0,0.0,0.0,0.0,0.0,0.008997512049973011,-0.024380993098020554,0.3232017755508423,0.0,0.0,0.0,0.0,0.0,0.0,0.0,0.0,0.0
1606828498816520204,2349044,1606828498803612893,imu_link,0.0019575345795601606,0.0006885345210321248,0.13936464488506317,0.9902389645576477,0.0,0.0,0.0,0.0,0.0,0.0,0.0,0.0,0.0,16.022294998168945,0.04686824977397919,0.2331240028142929,0.0,0.0,0.0,0.0,0.0,0.0,0.0,0.0,0.0,0.008997512049973011,-0.024380993098020554,0.3232017755508423,0.0,0.0,0.0,0.0,0.0,0.0,0.0,0.0,0.0
1606828498825528352,2349045,1606828498816340322,imu_link,0.0019630147144198418,0.0006906257476657629,0.13936208188533783,0.9902393221855164,0.0,0.0,0.0,0.0,0.0,0.0,0.0,0.0,0.0,16.02199935913086,0.047018636018037796,0.23377911746501923,0.0,0.0,0.0,0.0,0.0,0.0,0.0,0.0,0.0,0.006214458961039782,-0.019877964630723,0.3249238431453705,0.0,0.0,0.0,0.0,0.0,0.0,0.0,0.0,0.0
1606828498827071278,2349046,1606828498816479639,imu_link,0.0019630147144198418,0.0006906257476657629,0.13936208188533783,0.9902393221855164,0.0,0.0,0.0,0.0,0.0,0.0,0.0,0.0,0.0,16.02199935913086,0.047018636018037796,0.23377911746501923,0.0,0.0,0.0,0.0,0.0,0.0,0.0,0.0,0.0,0.006214458961039782,-0.019877964630723,0.3249238431453705,0.0,0.0,0.0,0.0,0.0,0.0,0.0,0.0,0.0
1606828498827098486,2349047,1606828498816671832,imu_link,0.001962970709428191,0.0006891082739457488,0.1393623650074005,0.9902393221855164,0.0,0.0,0.0,0.0,0.0,0.0,0.0,0.0,0.0,16.022031784057617,0.04684707894921303,0.2337498664855957,0.0,0.0,0.0,0.0,0.0,0.0,0.0,0.0,0.0,-0.004933900665491819,-0.017603769898414612,0.33173665404319763,0.0,0.0,0.0,0.0,0.0,0.0,0.0,0.0,0.0
1606828498827106177,2349048,1606828498816775913,imu_link,0.001962970709428191,0.0006891082739457488,0.1393623650074005,0.9902393221855164,0.0,0.0,0.0,0.0,0.0,0.0,0.0,0.0,0.0,16.022031784057617,0.04684707894921303,0.2337498664855957,0.0,0.0,0.0,0.0,0.0,0.0,0.0,0.0,0.0,-0.004933900665491819,-0.017603769898414612,0.33173665404319763,0.0,0.0,0.0,0.0,0.0,0.0,0.0,0.0,0.0
1606828498827112973,2349049,1606828498816855992,imu_link,0.0019688024185597897,0.0006893813260830939,0.13936036825180054,0.9902395606040955,0.0,0.0,0.0,0.0,0.0,0.0,0.0,0.0,0.0,16.021799087524414,0.046785399317741394,0.23441588878631592,0.0,0.0,0.0,0.0,0.0,0.0,0.0,0.0,0.0,0.01558827143162489,-0.02129157818853855,0.33814316987991333,0.0,0.0,0.0,0.0,0.0,0.0,0.0,0.0,0.0
1606828498827118915,2349050,1606828498816935957,imu_link,0.0019688024185597897,0.0006893813260830939,0.13936036825180054,0.9902395606040955,0.0,0.0,0.0,0.0,0.0,0.0,0.0,0.0,0.0,16.021799087524414,0.046785399317741394,0.23441588878631592,0.0,0.0,0.0,0.0,0.0,0.0,0.0,0.0,0.0,0.01558827143162489,-0.02129157818853855,0.33814316987991333,0.0,0.0,0.0,0.0,0.0,0.0,0.0,0.0,0.0
1606828498827157035,2349051,1606828498817043595,imu_link,0.001969490898773074,0.0006907103816047311,0.13936127722263336,0.9902394413948059,0.0,0.0,0.0,0.0,0.0,0.0,0.0,0.0,0.0,16.02190589904785,0.046925004571676254,0.23451530933380127,0.0,0.0,0.0,0.0,0.0,0.0,0.0,0.0,0.0,0.026814604178071022,-0.008700724691152573,0.33653971552848816,0.0,0.0,0.0,0.0,0.0,0.0,0.0,0.0,0.0
1606828498827181654,2349052,1606828498817121651,imu_link,0.001969490898773074,0.0006907103816047311,0.13936127722263336,0.9902394413948059,0.0,0.0,0.0,0.0,0.0,0.0,0.0,0.0,0.0,16.02190589904785,0.046925004571676254,0.23451530933380127,0.0,0.0,0.0,0.0,0.0,0.0,0.0,0.0,0.0,0.026814604178071022,-0.008700724691152573,0.33653971552848816,0.0,0.0,0.0,0.0,0.0,0.0,0.0,0.0,0.0
1606828498827206342,2349053,1606828498817198338,imu_link,0.0019702177960425615,0.000695559661835432,0.1393602043390274,0.9902395606040955,0.0,0.0,0.0,0.0,0.0,0.0,0.0,0.0,0.0,16.02178192138672,0.04746390879154205,0.23467519879341125,0.0,0.0,0.0,0.0,0.0,0.0,0.0,0.0,0.0,0.01584615185856819,0.01439783163368702,0.3296193778514862,0.0,0.0,0.0,0.0,0.0,0.0,0.0,0.0,0.0
1606828498827247995,2349054,1606828498817285784,imu_link,0.0019702177960425615,0.000695559661835432,0.1393602043390274,0.9902395606040955,0.0,0.0,0.0,0.0,0.0,0.0,0.0,0.0,0.0,16.02178192138672,0.04746390879154205,0.23467519879341125,0.0,0.0,0.0,0.0,0.0,0.0,0.0,0.0,0.0,0.01584615185856819,0.01439783163368702,0.3296193778514862,0.0,0.0,0.0,0.0,0.0,0.0,0.0,0.0,0.0
1606828498829768251,2349055,1606828498817363830,imu_link,0.001970298122614622,0.0006947384681552649,0.13936100900173187,0.9902394413948059,0.0,0.0,0.0,0.0,0.0,0.0,0.0,0.0,0.0,16.02187728881836,0.04736925661563873,0.2346712201833725,0.0,0.0,0.0,0.0,0.0,0.0,0.0,0.0,0.0,0.0073837717063724995,0.009152738377451897,0.32977494597435,0.0,0.0,0.0,0.0,0.0,0.0,0.0,0.0,0.0
1606828498839633665,2349056,1606828498830183200,imu_link,0.001970298122614622,0.0006947384681552649,0.13936100900173187,0.9902394413948059,0.0,0.0,0.0,0.0,0.0,0.0,0.0,0.0,0.0,16.02187728881836,0.04736925661563873,0.2346712201833725,0.0,0.0,0.0,0.0,0.0,0.0,0.0,0.0,0.0,0.0073837717063724995,0.009152738377451897,0.32977494597435,0.0,0.0,0.0,0.0,0.0,0.0,0.0,0.0,0.0
1606828498840737520,2349057,1606828498830289887,imu_link,0.0019707605242729187,0.0006956231663934886,0.13936647772789001,0.9902387261390686,0.0,0.0,0.0,0.0,0.0,0.0,0.0,0.0,0.0,16.022506713867188,0.04746096953749657,0.2347380667924881,0.0,0.0,0.0,0.0,0.0,0.0,0.0,0.0,0.0,0.015156876295804977,0.010013462975621223,0.32884904742240906,0.0,0.0,0.0,0.0,0.0,0.0,0.0,0.0,0.0
1606828498840767223,2349058,1606828498830423358,imu_link,0.0019707605242729187,0.0006956231663934886,0.13936647772789001,0.9902387261390686,0.0,0.0,0.0,0.0,0.0,0.0,0.0,0.0,0.0,16.022506713867188,0.04746096953749657,0.2347380667924881,0.0,0.0,0.0,0.0,0.0,0.0,0.0,0.0,0.0,0.015156876295804977,0.010013462975621223,0.32884904742240906,0.0,0.0,0.0,0.0,0.0,0.0,0.0,0.0,0.0
1606828498840782100,2349059,1606828498830483946,imu_link,0.00197187764570117,0.0006928243092261255,0.13936695456504822,0.9902386665344238,0.0,0.0,0.0,0.0,0.0,0.0,0.0,0.0,0.0,16.02256202697754,0.04712541773915291,0.234820157289505,0.0,0.0,0.0,0.0,0.0,0.0,0.0,0.0,0.0,0.012566600926220417,0.0158236026763916,0.32809722423553467,0.0,0.0,0.0,0.0,0.0,0.0,0.0,0.0,0.0
1606828498840793790,2349060,1606828498830573717,imu_link,0.00197187764570117,0.0006928243092261255,0.13936695456504822,0.9902386665344238,0.0,0.0,0.0,0.0,0.0,0.0,0.0,0.0,0.0,16.02256202697754,0.04712541773915291,0.234820157289505,0.0,0.0,0.0,0.0,0.0,0.0,0.0,0.0,0.0,0.012566600926220417,0.0158236026763916,0.32809722423553467,0.0,0.0,0.0,0.0,0.0,0.0,0.0,0.0,0.0
1606828498840869009,2349061,1606828498830648106,imu_link,0.0019692436326295137,0.0006953108822926879,0.13937023282051086,0.9902381896972656,0.0,0.0,0.0,0.0,0.0,0.0,0.0,0.0,0.0,16.0229434967041,0.04744886979460716,0.23456111550331116,0.0,0.0,0.0,0.0,0.0,0.0,0.0,0.0,0.0,0.015862757340073586,0.010771251283586025,0.33139097690582275,0.0,0.0,0.0,0.0,0.0,0.0,0.0,0.0,0.0
1606828498840882162,2349062,1606828498830727111,imu_link,0.0019692436326295137,0.0006953108822926879,0.13937023282051086,0.9902381896972656,0.0,0.0,0.0,0.0,0.0,0.0,0.0,0.0,0.0,16.0229434967041,0.04744886979460716,0.23456111550331116,0.0,0.0,0.0,0.0,0.0,0.0,0.0,0.0,0.0,0.015862757340073586,0.010771251283586025,0.33139097690582275,0.0,0.0,0.0,0.0,0.0,0.0,0.0,0.0,0.0
1606828498840907207,2349063,1606828498830793051,imu_link,0.0019709498155862093,0.0006951837567612529,0.13937163352966309,0.9902380108833313,0.0,0.0,0.0,0.0,0.0,0.0,0.0,0.0,0.0,16.023103713989258,0.047406863421201706,0.23475278913974762,0.0,0.0,0.0,0.0,0.0,0.0,0.0,0.0,0.0,0.024764124304056168,0.010228273458778858,0.33546414971351624,0.0,0.0,0.0,0.0,0.0,0.0,0.0,0.0,0.0
1606828498840925288,2349064,1606828498830851602,imu_link,0.0019709498155862093,0.0006951837567612529,0.13937163352966309,0.9902380108833313,0.0,0.0,0.0,0.0,0.0,0.0,0.0,0.0,0.0,16.023103713989258,0.047406863421201706,0.23475278913974762,0.0,0.0,0.0,0.0,0.0,0.0,0.0,0.0,0.0,0.024764124304056168,0.010228273458778858,0.33546414971351624,0.0,0.0,0.0,0.0,0.0,0.0,0.0,0.0,0.0
1606828498840934839,2349065,1606828498830910658,imu_link,0.0019684999715536833,0.0006999457837082446,0.13937734067440033,0.9902371168136597,0.0,0.0,0.0,0.0,0.0,0.0,0.0,0.0,0.0,16.023765563964844,0.04798499494791031,0.23455113172531128,0.0,0.0,0.0,0.0,0.0,0.0,0.0,0.0,0.0,0.008761822246015072,-0.00026036077179014683,0.33380305767059326,0.0,0.0,0.0,0.0,0.0,0.0,0.0,0.0,0.0
1606828498840943520,2349066,1606828498830963481,imu_link,0.0019684999715536833,0.0006999457837082446,0.13937734067440033,0.9902371168136597,0.0,0.0,0.0,0.0,0.0,0.0,0.0,0.0,0.0,16.023765563964844,0.04798499494791031,0.23455113172531128,0.0,0.0,0.0,0.0,0.0,0.0,0.0,0.0,0.0,0.008761822246015072,-0.00026036077179014683,0.33380305767059326,0.0,0.0,0.0,0.0,0.0,0.0,0.0,0.0,0.0
1606828498852597355,2349067,1606828498843485123,imu_link,0.0019685791339725256,0.0007000527693890035,0.13937866687774658,0.9902369976043701,0.0,0.0,0.0,0.0,0.0,0.0,0.0,0.0,0.0,16.02391815185547,0.04799555614590645,0.23456186056137085,0.0,0.0,0.0,0.0,0.0,0.0,0.0,0.0,0.0,-0.020045574754476547,-0.007591358385980129,0.3247385025024414,0.0,0.0,0.0,0.0,0.0,0.0,0.0,0.0,0.0
1606828498853212109,2349068,1606828498843579978,imu_link,0.0019685791339725256,0.0007000527693890035,0.13937866687774658,0.9902369976043701,0.0,0.0,0.0,0.0,0.0,0.0,0.0,0.0,0.0,16.02391815185547,0.04799555614590645,0.23456186056137085,0.0,0.0,0.0,0.0,0.0,0.0,0.0,0.0,0.0,-0.020045574754476547,-0.007591358385980129,0.3247385025024414,0.0,0.0,0.0,0.0,0.0,0.0,0.0,0.0,0.0
1606828498853250019,2349069,1606828498843647859,imu_link,0.001971279503777623,0.0006971554830670357,0.13938696682453156,0.9902358055114746,0.0,0.0,0.0,0.0,0.0,0.0,0.0,0.0,0.0,16.02488136291504,0.047621697187423706,0.23482239246368408,0.0,0.0,0.0,0.0,0.0,0.0,0.0,0.0,0.0,-0.018261514604091644,-0.008613692596554756,0.3215819299221039,0.0,0.0,0.0,0.0,0.0,0.0,0.0,0.0,0.0
1606828498853270233,2349070,1606828498843706733,imu_link,0.001971279503777623,0.0006971554830670357,0.13938696682453156,0.9902358055114746,0.0,0.0,0.0,0.0,0.0,0.0,0.0,0.0,0.0,16.02488136291504,0.047621697187423706,0.23482239246368408,0.0,0.0,0.0,0.0,0.0,0.0,0.0,0.0,0.0,-0.018261514604091644,-0.008613692596554756,0.3215819299221039,0.0,0.0,0.0,0.0,0.0,0.0,0.0,0.0,0.0
1606828498853296401,2349071,1606828498843763638,imu_link,0.001972090918570757,0.0006995562580414116,0.1393890231847763,0.9902355074882507,0.0,0.0,0.0,0.0,0.0,0.0,0.0,0.0,0.0,16.02511978149414,0.04788067191839218,0.23495294153690338,0.0,0.0,0.0,0.0,0.0,0.0,0.0,0.0,0.0,-0.006122393999248743,-0.0017016164492815733,0.32933807373046875,0.0,0.0,0.0,0.0,0.0,0.0,0.0,0.0,0.0
1606828498853309162,2349072,1606828498843831632,imu_link,0.001972090918570757,0.0006995562580414116,0.1393890231847763,0.9902355074882507,0.0,0.0,0.0,0.0,0.0,0.0,0.0,0.0,0.0,16.02511978149414,0.04788067191839218,0.23495294153690338,0.0,0.0,0.0,0.0,0.0,0.0,0.0,0.0,0.0,-0.006122393999248743,-0.0017016164492815733,0.32933807373046875,0.0,0.0,0.0,0.0,0.0,0.0,0.0,0.0,0.0
1606828498853318511,2349073,1606828498843885596,imu_link,0.0019739277195185423,0.0006993088754825294,0.13939881324768066,0.9902341365814209,0.0,0.0,0.0,0.0,0.0,0.0,0.0,0.0,0.0,16.0262508392334,0.047820936888456345,0.23515790700912476,0.0,0.0,0.0,0.0,0.0,0.0,0.0,0.0,0.0,-0.0020117275416851044,0.0036229141987860203,0.3459080159664154,0.0,0.0,0.0,0.0,0.0,0.0,0.0,0.0,0.0
1606828498853329011,2349074,1606828498843941077,imu_link,0.0019739277195185423,0.0006993088754825294,0.13939881324768066,0.9902341365814209,0.0,0.0,0.0,0.0,0.0,0.0,0.0,0.0,0.0,16.0262508392334,0.047820936888456345,0.23515790700912476,0.0,0.0,0.0,0.0,0.0,0.0,0.0,0.0,0.0,-0.0020117275416851044,0.0036229141987860203,0.3459080159664154,0.0,0.0,0.0,0.0,0.0,0.0,0.0,0.0,0.0
1606828498853343852,2349075,1606828498844007838,imu_link,0.0019741414580494165,0.0007010570843704045,0.13939574360847473,0.9902345538139343,0.0,0.0,0.0,0.0,0.0,0.0,0.0,0.0,0.0,16.025896072387695,0.04801661893725395,0.2352098971605301,0.0,0.0,0.0,0.0,0.0,0.0,0.0,0.0,0.0,0.006212754175066948,0.002847509691491723,0.3425200879573822,0.0,0.0,0.0,0.0,0.0,0.0,0.0,0.0,0.0
1606828498855056365,2349076,1606828498844071086,imu_link,0.0019741414580494165,0.0007010570843704045,0.13939574360847473,0.9902345538139343,0.0,0.0,0.0,0.0,0.0,0.0,0.0,0.0,0.0,16.025896072387695,0.04801661893725395,0.2352098971605301,0.0,0.0,0.0,0.0,0.0,0.0,0.0,0.0,0.0,0.006212754175066948,0.002847509691491723,0.3425200879573822,0.0,0.0,0.0,0.0,0.0,0.0,0.0,0.0,0.0
1606828498855069818,2349077,1606828498844133788,imu_link,0.001974785001948476,0.0007007931708358228,0.13940615952014923,0.9902331233024597,0.0,0.0,0.0,0.0,0.0,0.0,0.0,0.0,0.0,16.027103424072266,0.04797391965985298,0.23527921736240387,0.0,0.0,0.0,0.0,0.0,0.0,0.0,0.0,0.0,0.007164726033806801,0.005685738287866116,0.3188989460468292,0.0,0.0,0.0,0.0,0.0,0.0,0.0,0.0,0.0
1606828498865443206,2349078,1606828498856456610,imu_link,0.001974785001948476,0.0007007931708358228,0.13940615952014923,0.9902331233024597,0.0,0.0,0.0,0.0,0.0,0.0,0.0,0.0,0.0,16.027103424072266,0.04797391965985298,0.23527921736240387,0.0,0.0,0.0,0.0,0.0,0.0,0.0,0.0,0.0,0.007164726033806801,0.005685738287866116,0.3188989460468292,0.0,0.0,0.0,0.0,0.0,0.0,0.0,0.0,0.0
1606828498867191842,2349079,1606828498856573471,imu_link,0.001977047650143504,0.0006998375174589455,0.13940925896167755,0.9902325868606567,0.0,0.0,0.0,0.0,0.0,0.0,0.0,0.0,0.0,16.027462005615234,0.047828588634729385,0.2355208396911621,0.0,0.0,0.0,0.0,0.0,0.0,0.0,0.0,0.0,0.004010951146483421,0.009724905714392662,0.33386194705963135,0.0,0.0,0.0,0.0,0.0,0.0,0.0,0.0,0.0
1606828498867209270,2349080,1606828498856742394,imu_link,0.001977047650143504,0.0006998375174589455,0.13940925896167755,0.9902325868606567,0.0,0.0,0.0,0.0,0.0,0.0,0.0,0.0,0.0,16.027462005615234,0.047828588634729385,0.2355208396911621,0.0,0.0,0.0,0.0,0.0,0.0,0.0,0.0,0.0,0.004010951146483421,0.009724905714392662,0.33386194705963135,0.0,0.0,0.0,0.0,0.0,0.0,0.0,0.0,0.0
1606828498867221379,2349081,1606828498856816583,imu_link,0.001974857645109296,0.0006990148685872555,0.1394176036119461,0.9902315139770508,0.0,0.0,0.0,0.0,0.0,0.0,0.0,0.0,0.0,16.028427124023438,0.047768253833055496,0.23525957763195038,0.0,0.0,0.0,0.0,0.0,0.0,0.0,0.0,0.0,1.1747179087251425e-05,0.012145414017140865,0.3275649845600128,0.0,0.0,0.0,0.0,0.0,0.0,0.0,0.0,0.0
1606828498867232095,2349082,1606828498856883181,imu_link,0.001974857645109296,0.0006990148685872555,0.1394176036119461,0.9902315139770508,0.0,0.0,0.0,0.0,0.0,0.0,0.0,0.0,0.0,16.028427124023438,0.047768253833055496,0.23525957763195038,0.0,0.0,0.0,0.0,0.0,0.0,0.0,0.0,0.0,1.1747179087251425e-05,0.012145414017140865,0.3275649845600128,0.0,0.0,0.0,0.0,0.0,0.0,0.0,0.0,0.0
1606828498867241099,2349083,1606828498856987101,imu_link,0.0019728918559849262,0.0006994659197516739,0.13941550254821777,0.9902318120002747,0.0,0.0,0.0,0.0,0.0,0.0,0.0,0.0,0.0,16.028182983398438,0.04785133898258209,0.23504365980625153,0.0,0.0,0.0,0.0,0.0,0.0,0.0,0.0,0.0,-0.006034964229911566,0.012757211923599243,0.3191230893135071,0.0,0.0,0.0,0.0,0.0,0.0,0.0,0.0,0.0
1606828498867251265,2349084,1606828498857061125,imu_link,0.0019728918559849262,0.0006994659197516739,0.13941550254821777,0.9902318120002747,0.0,0.0,0.0,0.0,0.0,0.0,0.0,0.0,0.0,16.028182983398438,0.04785133898258209,0.23504365980625153,0.0,0.0,0.0,0.0,0.0,0.0,0.0,0.0,0.0,-0.006034964229911566,0.012757211923599243,0.3191230893135071,0.0,0.0,0.0,0.0,0.0,0.0,0.0,0.0,0.0
1606828498867306345,2349085,1606828498857132618,imu_link,0.001970738172531128,0.0006978380843065679,0.13942323625087738,0.9902307391166687,0.0,0.0,0.0,0.0,0.0,0.0,0.0,0.0,0.0,16.02907943725586,0.047699205577373505,0.234773650765419,0.0,0.0,0.0,0.0,0.0,0.0,0.0,0.0,0.0,0.000767011777497828,-0.007244708947837353,0.35154539346694946,0.0,0.0,0.0,0.0,0.0,0.0,0.0,0.0,0.0
1606828498867333257,2349086,1606828498857202715,imu_link,0.001970738172531128,0.0006978380843065679,0.13942323625087738,0.9902307391166687,0.0,0.0,0.0,0.0,0.0,0.0,0.0,0.0,0.0,16.02907943725586,0.047699205577373505,0.234773650765419,0.0,0.0,0.0,0.0,0.0,0.0,0.0,0.0,0.0,0.000767011777497828,-0.007244708947837353,0.35154539346694946,0.0,0.0,0.0,0.0,0.0,0.0,0.0,0.0,0.0
1606828498867373017,2349087,1606828498857266707,imu_link,0.001968460390344262,0.0006992765120230615,0.13942530751228333,0.9902304410934448,0.0,0.0,0.0,0.0,0.0,0.0,0.0,0.0,0.0,16.029315948486328,0.04789832606911659,0.2345382571220398,0.0,0.0,0.0,0.0,0.0,0.0,0.0,0.0,0.0,0.019723476842045784,-0.013952890411019325,0.35008564591407776,0.0,0.0,0.0,0.0,0.0,0.0,0.0,0.0,0.0
1606828498875370356,2349088,1606828498866284774,imu_link,0.001968460390344262,0.0006992765120230615,0.13942530751228333,0.9902304410934448,0.0,0.0,0.0,0.0,0.0,0.0,0.0,0.0,0.0,16.029315948486328,0.04789832606911659,0.2345382571220398,0.0,0.0,0.0,0.0,0.0,0.0,0.0,0.0,0.0,0.019723476842045784,-0.013952890411019325,0.35008564591407776,0.0,0.0,0.0,0.0,0.0,0.0,0.0,0.0,0.0
1606828498877461284,2349089,1606828498866406940,imu_link,0.0019711668137460947,0.0007044151425361633,0.13942290842533112,0.9902307987213135,0.0,0.0,0.0,0.0,0.0,0.0,0.0,0.0,0.0,16.02903938293457,0.04843874275684357,0.23492735624313354,0.0,0.0,0.0,0.0,0.0,0.0,0.0,0.0,0.0,0.015812136232852936,-0.00796687975525856,0.355319619178772,0.0,0.0,0.0,0.0,0.0,0.0,0.0,0.0,0.0
1606828498877493357,2349090,1606828498866736773,imu_link,0.0019711668137460947,0.0007044151425361633,0.13942290842533112,0.9902307987213135,0.0,0.0,0.0,0.0,0.0,0.0,0.0,0.0,0.0,16.02903938293457,0.04843874275684357,0.23492735624313354,0.0,0.0,0.0,0.0,0.0,0.0,0.0,0.0,0.0,0.015812136232852936,-0.00796687975525856,0.355319619178772,0.0,0.0,0.0,0.0,0.0,0.0,0.0,0.0,0.0
1606828498877511450,2349091,1606828498866839276,imu_link,0.00197220453992486,0.0007037936593405902,0.1394250988960266,0.9902305006980896,0.0,0.0,0.0,0.0,0.0,0.0,0.0,0.0,0.0,16.0292911529541,0.04835112392902374,0.23503528535366058,0.0,0.0,0.0,0.0,0.0,0.0,0.0,0.0,0.0,0.003451887983828783,-0.012384847737848759,0.3540102541446686,0.0,0.0,0.0,0.0,0.0,0.0,0.0,0.0,0.0
1606828498877529247,2349092,1606828498866912200,imu_link,0.00197220453992486,0.0007037936593405902,0.1394250988960266,0.9902305006980896,0.0,0.0,0.0,0.0,0.0,0.0,0.0,0.0,0.0,16.0292911529541,0.04835112392902374,0.23503528535366058,0.0,0.0,0.0,0.0,0.0,0.0,0.0,0.0,0.0,0.003451887983828783,-0.012384847737848759,0.3540102541446686,0.0,0.0,0.0,0.0,0.0,0.0,0.0,0.0,0.0
1606828498877563105,2349093,1606828498866982833,imu_link,0.001973610371351242,0.0007056462927721441,0.13942325115203857,0.9902306795120239,0.0,0.0,0.0,0.0,0.0,0.0,0.0,0.0,0.0,16.029081344604492,0.04853931814432144,0.23522429168224335,0.0,0.0,0.0,0.0,0.0,0.0,0.0,0.0,0.0,-0.005163444206118584,0.01644667237997055,0.3473585247993469,0.0,0.0,0.0,0.0,0.0,0.0,0.0,0.0,0.0
1606828498877589816,2349094,1606828498867054871,imu_link,0.001973610371351242,0.0007056462927721441,0.13942325115203857,0.9902306795120239,0.0,0.0,0.0,0.0,0.0,0.0,0.0,0.0,0.0,16.029081344604492,0.04853931814432144,0.23522429168224335,0.0,0.0,0.0,0.0,0.0,0.0,0.0,0.0,0.0,-0.005163444206118584,0.01644667237997055,0.3473585247993469,0.0,0.0,0.0,0.0,0.0,0.0,0.0,0.0,0.0
1606828498877604544,2349095,1606828498867123328,imu_link,0.0019741279538720846,0.0007056577014736831,0.1394258290529251,0.9902303218841553,0.0,0.0,0.0,0.0,0.0,0.0,0.0,0.0,0.0,16.02937889099121,0.04853173345327377,0.23528335988521576,0.0,0.0,0.0,0.0,0.0,0.0,0.0,0.0,0.0,-0.00025594732142053545,0.019160546362400055,0.3462519347667694,0.0,0.0,0.0,0.0,0.0,0.0,0.0,0.0,0.0
1606828498889312142,2349096,1606828498880175390,imu_link,0.0019741279538720846,0.0007056577014736831,0.1394258290529251,0.9902303218841553,0.0,0.0,0.0,0.0,0.0,0.0,0.0,0.0,0.0,16.02937889099121,0.04853173345327377,0.23528335988521576,0.0,0.0,0.0,0.0,0.0,0.0,0.0,0.0,0.0,-0.00025594732142053545,0.019160546362400055,0.3462519347667694,0.0,0.0,0.0,0.0,0.0,0.0,0.0,0.0,0.0
1606828498890582386,2349097,1606828498880293213,imu_link,0.0019690850749611855,0.000705623475369066,0.13942283391952515,0.9902307391166687,0.0,0.0,0.0,0.0,0.0,0.0,0.0,0.0,0.0,16.02903175354004,0.04860913008451462,0.2347104400396347,0.0,0.0,0.0,0.0,0.0,0.0,0.0,0.0,0.0,0.006955408491194248,-0.0035949561279267073,0.3419787883758545,0.0,0.0,0.0,0.0,0.0,0.0,0.0,0.0,0.0
1606828498890612780,2349098,1606828498880459107,imu_link,0.0019690850749611855,0.000705623475369066,0.13942283391952515,0.9902307391166687,0.0,0.0,0.0,0.0,0.0,0.0,0.0,0.0,0.0,16.02903175354004,0.04860913008451462,0.2347104400396347,0.0,0.0,0.0,0.0,0.0,0.0,0.0,0.0,0.0,0.006955408491194248,-0.0035949561279267073,0.3419787883758545,0.0,0.0,0.0,0.0,0.0,0.0,0.0,0.0,0.0
1606828498890629109,2349099,1606828498880535421,imu_link,0.001970043871551752,0.0007066239486448467,0.13942424952983856,0.9902305603027344,0.0,0.0,0.0,0.0,0.0,0.0,0.0,0.0,0.0,16.029193878173828,0.04870700463652611,0.23483528196811676,0.0,0.0,0.0,0.0,0.0,0.0,0.0,0.0,0.0,0.002010276773944497,0.01023912150412798,0.3474416732788086,0.0,0.0,0.0,0.0,0.0,0.0,0.0,0.0,0.0
1606828498890648549,2349100,1606828498880624234,imu_link,0.001970043871551752,0.0007066239486448467,0.13942424952983856,0.9902305603027344,0.0,0.0,0.0,0.0,0.0,0.0,0.0,0.0,0.0,16.029193878173828,0.04870700463652611,0.23483528196811676,0.0,0.0,0.0,0.0,0.0,0.0,0.0,0.0,0.0,0.002010276773944497,0.01023912150412798,0.3474416732788086,0.0,0.0,0.0,0.0,0.0,0.0,0.0,0.0,0.0
1606828498890692758,2349101,1606828498880699663,imu_link,0.001969891134649515,0.000706855149473995,0.13942183554172516,0.9902308583259583,0.0,0.0,0.0,0.0,0.0,0.0,0.0,0.0,0.0,16.028915405273438,0.048736248165369034,0.23482151329517365,0.0,0.0,0.0,0.0,0.0,0.0,0.0,0.0,0.0,-0.00670610973611474,0.022088244557380676,0.3262854516506195,0.0,0.0,0.0,0.0,0.0,0.0,0.0,0.0,0.0
1606828498890707649,2349102,1606828498880798090,imu_link,0.001969891134649515,0.000706855149473995,0.13942183554172516,0.9902308583259583,0.0,0.0,0.0,0.0,0.0,0.0,0.0,0.0,0.0,16.028915405273438,0.048736248165369034,0.23482151329517365,0.0,0.0,0.0,0.0,0.0,0.0,0.0,0.0,0.0,-0.00670610973611474,0.022088244557380676,0.3262854516506195,0.0,0.0,0.0,0.0,0.0,0.0,0.0,0.0,0.0
1606828498890813621,2349103,1606828498880867815,imu_link,0.0019693896174430847,0.0007074883324094117,0.13942226767539978,0.9902307987213135,0.0,0.0,0.0,0.0,0.0,0.0,0.0,0.0,0.0,16.028968811035156,0.0488160066306591,0.23477475345134735,0.0,0.0,0.0,0.0,0.0,0.0,0.0,0.0,0.0,-0.005685256328433752,-0.0025804010219872,0.3090141713619232,0.0,0.0,0.0,0.0,0.0,0.0,0.0,0.0,0.0
1606828498890848001,2349104,1606828498880935964,imu_link,0.0019693896174430847,0.0007074883324094117,0.13942226767539978,0.9902307987213135,0.0,0.0,0.0,0.0,0.0,0.0,0.0,0.0,0.0,16.028968811035156,0.0488160066306591,0.23477475345134735,0.0,0.0,0.0,0.0,0.0,0.0,0.0,0.0,0.0,-0.005685256328433752,-0.0025804010219872,0.3090141713619232,0.0,0.0,0.0,0.0,0.0,0.0,0.0,0.0,0.0
1606828498890877853,2349105,1606828498881012802,imu_link,0.00196928926743567,0.0007055976893752813,0.1394239068031311,0.9902306199073792,0.0,0.0,0.0,0.0,0.0,0.0,0.0,0.0,0.0,16.029157638549805,0.04860268905758858,0.23473325371742249,0.0,0.0,0.0,0.0,0.0,0.0,0.0,0.0,0.0,0.005028405226767063,-0.011242387816309929,0.310982346534729,0.0,0.0,0.0,0.0,0.0,0.0,0.0,0.0,0.0
1606828498894739052,2349106,1606828498881089183,imu_link,0.00196928926743567,0.0007055976893752813,0.1394239068031311,0.9902306199073792,0.0,0.0,0.0,0.0,0.0,0.0,0.0,0.0,0.0,16.029157638549805,0.04860268905758858,0.23473325371742249,0.0,0.0,0.0,0.0,0.0,0.0,0.0,0.0,0.0,0.005028405226767063,-0.011242387816309929,0.310982346534729,0.0,0.0,0.0,0.0,0.0,0.0,0.0,0.0,0.0
1606828498931618596,2349107,1606828498893617494,imu_link,0.001970012905076146,0.0007065384997986257,0.13942646980285645,0.9902302622795105,0.0,0.0,0.0,0.0,0.0,0.0,0.0,0.0,0.0,16.02945327758789,0.048697277903556824,0.23483052849769592,0.0,0.0,0.0,0.0,0.0,0.0,0.0,0.0,0.0,0.002188692567870021,0.013867746107280254,0.32690465450286865,0.0,0.0,0.0,0.0,0.0,0.0,0.0,0.0,0.0
1606828498931662214,2349108,1606828498893728178,imu_link,0.001970012905076146,0.0007065384997986257,0.13942646980285645,0.9902302622795105,0.0,0.0,0.0,0.0,0.0,0.0,0.0,0.0,0.0,16.02945327758789,0.048697277903556824,0.23483052849769592,0.0,0.0,0.0,0.0,0.0,0.0,0.0,0.0,0.0,0.002188692567870021,0.013867746107280254,0.32690465450286865,0.0,0.0,0.0,0.0,0.0,0.0,0.0,0.0,0.0
1606828498931686676,2349109,1606828498893879182,imu_link,0.0019671637564897537,0.0007067203405313194,0.13942742347717285,0.990230143070221,0.0,0.0,0.0,0.0,0.0,0.0,0.0,0.0,0.0,16.02956199645996,0.048763208091259,0.2345101535320282,0.0,0.0,0.0,0.0,0.0,0.0,0.0,0.0,0.0,-0.0023944408167153597,0.008763604797422886,0.3143445551395416,0.0,0.0,0.0,0.0,0.0,0.0,0.0,0.0,0.0
1606828498931709009,2349110,1606828498893945691,imu_link,0.0019671637564897537,0.0007067203405313194,0.13942742347717285,0.990230143070221,0.0,0.0,0.0,0.0,0.0,0.0,0.0,0.0,0.0,16.02956199645996,0.048763208091259,0.2345101535320282,0.0,0.0,0.0,0.0,0.0,0.0,0.0,0.0,0.0,-0.0023944408167153597,0.008763604797422886,0.3143445551395416,0.0,0.0,0.0,0.0,0.0,0.0,0.0,0.0,0.0
1606828498931824692,2349111,1606828498894004667,imu_link,0.0019664245191961527,0.0007050862186588347,0.1394253969192505,0.9902304410934448,0.0,0.0,0.0,0.0,0.0,0.0,0.0,0.0,0.0,16.029327392578125,0.04859007149934769,0.23440004885196686,0.0,0.0,0.0,0.0,0.0,0.0,0.0,0.0,0.0,0.004115208517760038,-0.006399642210453749,0.31490710377693176,0.0,0.0,0.0,0.0,0.0,0.0,0.0,0.0,0.0
1606828498931879449,2349112,1606828498894079965,imu_link,0.0019664245191961527,0.0007050862186588347,0.1394253969192505,0.9902304410934448,0.0,0.0,0.0,0.0,0.0,0.0,0.0,0.0,0.0,16.029327392578125,0.04859007149934769,0.23440004885196686,0.0,0.0,0.0,0.0,0.0,0.0,0.0,0.0,0.0,0.004115208517760038,-0.006399642210453749,0.31490710377693176,0.0,0.0,0.0,0.0,0.0,0.0,0.0,0.0,0.0
1606828498931895677,2349113,1606828498894173834,imu_link,0.0019689188338816166,0.0007060584612190723,0.1394340991973877,0.9902291893959045,0.0,0.0,0.0,0.0,0.0,0.0,0.0,0.0,0.0,16.03033447265625,0.048658475279808044,0.2346990555524826,0.0,0.0,0.0,0.0,0.0,0.0,0.0,0.0,0.0,0.011821199208498001,0.00641727726906538,0.3472549319267273,0.0,0.0,0.0,0.0,0.0,0.0,0.0,0.0,0.0
1606828498931919910,2349114,1606828498894248025,imu_link,0.0019689188338816166,0.0007060584612190723,0.1394340991973877,0.9902291893959045,0.0,0.0,0.0,0.0,0.0,0.0,0.0,0.0,0.0,16.03033447265625,0.048658475279808044,0.2346990555524826,0.0,0.0,0.0,0.0,0.0,0.0,0.0,0.0,0.0,0.011821199208498001,0.00641727726906538,0.3472549319267273,0.0,0.0,0.0,0.0,0.0,0.0,0.0,0.0,0.0
1606828498931941958,2349115,1606828498894310938,imu_link,0.0019686806481331587,0.0007042774232104421,0.13943423330783844,0.9902291893959045,0.0,0.0,0.0,0.0,0.0,0.0,0.0,0.0,0.0,16.030349731445312,0.04846015200018883,0.23464356362819672,0.0,0.0,0.0,0.0,0.0,0.0,0.0,0.0,0.0,0.0035181462299078703,0.018220117315649986,0.3534776568412781,0.0,0.0,0.0,0.0,0.0,0.0,0.0,0.0,0.0
1606828498931961214,2349116,1606828498894376830,imu_link,0.0019686806481331587,0.0007042774232104421,0.13943423330783844,0.9902291893959045,0.0,0.0,0.0,0.0,0.0,0.0,0.0,0.0,0.0,16.030349731445312,0.04846015200018883,0.23464356362819672,0.0,0.0,0.0,0.0,0.0,0.0,0.0,0.0,0.0,0.0035181462299078703,0.018220117315649986,0.3534776568412781,0.0,0.0,0.0,0.0,0.0,0.0,0.0,0.0,0.0
1606828498931985439,2349117,1606828498894438312,imu_link,0.0019628037698566914,0.0007057953625917435,0.1394435167312622,0.9902278780937195,0.0,0.0,0.0,0.0,0.0,0.0,0.0,0.0,0.0,16.03142547607422,0.04872410371899605,0.23400144279003143,0.0,0.0,0.0,0.0,0.0,0.0,0.0,0.0,0.0,0.004400165751576424,0.021187366917729378,0.3296787440776825,0.0,0.0,0.0,0.0,0.0,0.0,0.0,0.0,0.0
1606828498932001155,2349118,1606828498907470155,imu_link,0.0019628037698566914,0.0007057953625917435,0.1394435167312622,0.9902278780937195,0.0,0.0,0.0,0.0,0.0,0.0,0.0,0.0,0.0,16.03142547607422,0.04872410371899605,0.23400144279003143,0.0,0.0,0.0,0.0,0.0,0.0,0.0,0.0,0.0,0.004400165751576424,0.021187366917729378,0.3296787440776825,0.0,0.0,0.0,0.0,0.0,0.0,0.0,0.0,0.0
