%time,field.header.seq,field.header.stamp,field.header.frame_id,field.orientation.x,field.orientation.y,field.orientation.z,field.orientation.w,field.orientation_covariance0,field.orientation_covariance1,field.orientation_covariance2,field.orientation_covariance3,field.orientation_covariance4,field.orientation_covariance5,field.orientation_covariance6,field.orientation_covariance7,field.orientation_covariance8,field.angular_velocity.x,field.angular_velocity.y,field.angular_velocity.z,field.angular_velocity_covariance0,field.angular_velocity_covariance1,field.angular_velocity_covariance2,field.angular_velocity_covariance3,field.angular_velocity_covariance4,field.angular_velocity_covariance5,field.angular_velocity_covariance6,field.angular_velocity_covariance7,field.angular_velocity_covariance8,field.linear_acceleration.x,field.linear_acceleration.y,field.linear_acceleration.z,field.linear_acceleration_covariance0,field.linear_acceleration_covariance1,field.linear_acceleration_covariance2,field.linear_acceleration_covariance3,field.linear_acceleration_covariance4,field.linear_acceleration_covariance5,field.linear_acceleration_covariance6,field.linear_acceleration_covariance7,field.linear_acceleration_covariance8
1606828467251768894,2323779,1606828467233393646,imu_link,0.0020823064260184765,0.0006175693706609309,0.12708419561386108,0.9918895959854126,0.0,0.0,0.0,0.0,0.0,0.0,0.0,0.0,0.0,14.602381706237793,0.03987012058496475,0.2456737756729126,0.0,0.0,0.0,0.0,0.0,0.0,0.0,0.0,0.0,0.012680782936513424,0.01795351132750511,0.30871355533599854,0.0,0.0,0.0,0.0,0.0,0.0,0.0,0.0,0.0
1606828467251791958,2323780,1606828467233502228,imu_link,0.0020823064260184765,0.0006175693706609309,0.12708419561386108,0.9918895959854126,0.0,0.0,0.0,0.0,0.0,0.0,0.0,0.0,0.0,14.602381706237793,0.03987012058496475,0.2456737756729126,0.0,0.0,0.0,0.0,0.0,0.0,0.0,0.0,0.0,0.012680782936513424,0.01795351132750511,0.30871355533599854,0.0,0.0,0.0,0.0,0.0,0.0,0.0,0.0,0.0
1606828467251800326,2323781,1606828467233626050,imu_link,0.002079015364870429,0.0006189589621499181,0.12708091735839844,0.991890013217926,0.0,0.0,0.0,0.0,0.0,0.0,0.0,0.0,0.0,14.60200309753418,0.04007679596543312,0.24531981348991394,0.0,0.0,0.0,0.0,0.0,0.0,0.0,0.0,0.0,0.03633689880371094,-0.0029805609956383705,0.2832563817501068,0.0,0.0,0.0,0.0,0.0,0.0,0.0,0.0,0.0
1606828467251810635,2323782,1606828467233691076,imu_link,0.002079015364870429,0.0006189589621499181,0.12708091735839844,0.991890013217926,0.0,0.0,0.0,0.0,0.0,0.0,0.0,0.0,0.0,14.60200309753418,0.04007679596543312,0.24531981348991394,0.0,0.0,0.0,0.0,0.0,0.0,0.0,0.0,0.0,0.03633689880371094,-0.0029805609956383705,0.2832563817501068,0.0,0.0,0.0,0.0,0.0,0.0,0.0,0.0,0.0
1606828467251843523,2323783,1606828467233749916,imu_link,0.0020793683361262083,0.0006179110496304929,0.12708061933517456,0.9918900728225708,0.0,0.0,0.0,0.0,0.0,0.0,0.0,0.0,0.0,14.601968765258789,0.03995262458920479,0.24534468352794647,0.0,0.0,0.0,0.0,0.0,0.0,0.0,0.0,0.0,0.0240864846855402,-0.007820822298526764,0.3103225827217102,0.0,0.0,0.0,0.0,0.0,0.0,0.0,0.0,0.0
1606828467252298516,2323784,1606828467233826140,imu_link,0.0020793683361262083,0.0006179110496304929,0.12708061933517456,0.9918900728225708,0.0,0.0,0.0,0.0,0.0,0.0,0.0,0.0,0.0,14.601968765258789,0.03995262458920479,0.24534468352794647,0.0,0.0,0.0,0.0,0.0,0.0,0.0,0.0,0.0,0.0240864846855402,-0.007820822298526764,0.3103225827217102,0.0,0.0,0.0,0.0,0.0,0.0,0.0,0.0,0.0
1606828467252318538,2323785,1606828467233906538,imu_link,0.0020789087284356356,0.0006209280691109598,0.12708507478237152,0.991889476776123,0.0,0.0,0.0,0.0,0.0,0.0,0.0,0.0,0.0,14.602484703063965,0.040301136672496796,0.24533653259277344,0.0,0.0,0.0,0.0,0.0,0.0,0.0,0.0,0.0,0.00685436837375164,0.001840186188928783,0.32468608021736145,0.0,0.0,0.0,0.0,0.0,0.0,0.0,0.0,0.0
1606828467252328929,2323786,1606828467233978484,imu_link,0.0020789087284356356,0.0006209280691109598,0.12708507478237152,0.991889476776123,0.0,0.0,0.0,0.0,0.0,0.0,0.0,0.0,0.0,14.602484703063965,0.040301136672496796,0.24533653259277344,0.0,0.0,0.0,0.0,0.0,0.0,0.0,0.0,0.0,0.00685436837375164,0.001840186188928783,0.32468608021736145,0.0,0.0,0.0,0.0,0.0,0.0,0.0,0.0,0.0
1606828467252337720,2323787,1606828467234046116,imu_link,0.0020782414358109236,0.000621033541392535,0.12708505988121033,0.991889476776123,0.0,0.0,0.0,0.0,0.0,0.0,0.0,0.0,0.0,14.602482795715332,0.04032284766435623,0.2452622354030609,0.0,0.0,0.0,0.0,0.0,0.0,0.0,0.0,0.0,0.014861620031297207,-0.0006378600373864174,0.3244333565235138,0.0,0.0,0.0,0.0,0.0,0.0,0.0,0.0,0.0
1606828467257000445,2323788,1606828467234107682,imu_link,0.0020782414358109236,0.000621033541392535,0.12708505988121033,0.991889476776123,0.0,0.0,0.0,0.0,0.0,0.0,0.0,0.0,0.0,14.602482795715332,0.04032284766435623,0.2452622354030609,0.0,0.0,0.0,0.0,0.0,0.0,0.0,0.0,0.0,0.014861620031297207,-0.0006378600373864174,0.3244333565235138,0.0,0.0,0.0,0.0,0.0,0.0,0.0,0.0,0.0
1606828467257036375,2323789,1606828467234175382,imu_link,0.0020782400388270617,0.00062280468409881,0.12708710134029388,0.991889238357544,0.0,0.0,0.0,0.0,0.0,0.0,0.0,0.0,0.0,14.602718353271484,0.040523674339056015,0.2452879548072815,0.0,0.0,0.0,0.0,0.0,0.0,0.0,0.0,0.0,0.0006468862411566079,-0.012098981067538261,0.3388291895389557,0.0,0.0,0.0,0.0,0.0,0.0,0.0,0.0,0.0
1606828467257090798,2323790,1606828467247239623,imu_link,0.0020782400388270617,0.00062280468409881,0.12708710134029388,0.991889238357544,0.0,0.0,0.0,0.0,0.0,0.0,0.0,0.0,0.0,14.602718353271484,0.040523674339056015,0.2452879548072815,0.0,0.0,0.0,0.0,0.0,0.0,0.0,0.0,0.0,0.0006468862411566079,-0.012098981067538261,0.3388291895389557,0.0,0.0,0.0,0.0,0.0,0.0,0.0,0.0,0.0
1606828467257123629,2323791,1606828467247425417,imu_link,0.0020797699689865112,0.000621542043518275,0.1270866096019745,0.9918892979621887,0.0,0.0,0.0,0.0,0.0,0.0,0.0,0.0,0.0,14.602662086486816,0.04035800322890282,0.2454434484243393,0.0,0.0,0.0,0.0,0.0,0.0,0.0,0.0,0.0,-0.013514987193048,-0.007587201427668333,0.3336319327354431,0.0,0.0,0.0,0.0,0.0,0.0,0.0,0.0,0.0
1606828467257163641,2323792,1606828467247516427,imu_link,0.0020797699689865112,0.000621542043518275,0.1270866096019745,0.9918892979621887,0.0,0.0,0.0,0.0,0.0,0.0,0.0,0.0,0.0,14.602662086486816,0.04035800322890282,0.2454434484243393,0.0,0.0,0.0,0.0,0.0,0.0,0.0,0.0,0.0,-0.013514987193048,-0.007587201427668333,0.3336319327354431,0.0,0.0,0.0,0.0,0.0,0.0,0.0,0.0,0.0
1606828467257227406,2323793,1606828467247600015,imu_link,0.0020791476126760244,0.0006209080456756055,0.12710097432136536,0.9918874502182007,0.0,0.0,0.0,0.0,0.0,0.0,0.0,0.0,0.0,14.604321479797363,0.040291447192430496,0.24536404013633728,0.0,0.0,0.0,0.0,0.0,0.0,0.0,0.0,0.0,-0.004209140315651894,0.0033895487431436777,0.34345826506614685,0.0,0.0,0.0,0.0,0.0,0.0,0.0,0.0,0.0
1606828467257255986,2323794,1606828467247678250,imu_link,0.0020791476126760244,0.0006209080456756055,0.12710097432136536,0.9918874502182007,0.0,0.0,0.0,0.0,0.0,0.0,0.0,0.0,0.0,14.604321479797363,0.040291447192430496,0.24536404013633728,0.0,0.0,0.0,0.0,0.0,0.0,0.0,0.0,0.0,-0.004209140315651894,0.0033895487431436777,0.34345826506614685,0.0,0.0,0.0,0.0,0.0,0.0,0.0,0.0,0.0
1606828467257268267,2323795,1606828467247775595,imu_link,0.002077145269140601,0.0006188737461343408,0.1271018534898758,0.9918873906135559,0.0,0.0,0.0,0.0,0.0,0.0,0.0,0.0,0.0,14.60442066192627,0.04008917137980461,0.24510684609413147,0.0,0.0,0.0,0.0,0.0,0.0,0.0,0.0,0.0,0.016033997759222984,0.0010549445869401097,0.3537917733192444,0.0,0.0,0.0,0.0,0.0,0.0,0.0,0.0,0.0
1606828467257277521,2323796,1606828467247854001,imu_link,0.002077145269140601,0.0006188737461343408,0.1271018534898758,0.9918873906135559,0.0,0.0,0.0,0.0,0.0,0.0,0.0,0.0,0.0,14.60442066192627,0.04008917137980461,0.24510684609413147,0.0,0.0,0.0,0.0,0.0,0.0,0.0,0.0,0.0,0.016033997759222984,0.0010549445869401097,0.3537917733192444,0.0,0.0,0.0,0.0,0.0,0.0,0.0,0.0,0.0
1606828467259888961,2323797,1606828467247936557,imu_link,0.002077555051073432,0.0006208010017871857,0.12711140513420105,0.9918861389160156,0.0,0.0,0.0,0.0,0.0,0.0,0.0,0.0,0.0,14.605525016784668,0.040299899876117706,0.24518190324306488,0.0,0.0,0.0,0.0,0.0,0.0,0.0,0.0,0.0,0.019827991724014282,-0.0020867567509412766,0.37188026309013367,0.0,0.0,0.0,0.0,0.0,0.0,0.0,0.0,0.0
1606828467259917201,2323798,1606828467248029326,imu_link,0.002077555051073432,0.0006208010017871857,0.12711140513420105,0.9918861389160156,0.0,0.0,0.0,0.0,0.0,0.0,0.0,0.0,0.0,14.605525016784668,0.040299899876117706,0.24518190324306488,0.0,0.0,0.0,0.0,0.0,0.0,0.0,0.0,0.0,0.019827991724014282,-0.0020867567509412766,0.37188026309013367,0.0,0.0,0.0,0.0,0.0,0.0,0.0,0.0,0.0
1606828467259932670,2323799,1606828467248102555,imu_link,0.0020782004576176405,0.0006192122236825526,0.12711186707019806,0.9918860793113708,0.0,0.0,0.0,0.0,0.0,0.0,0.0,0.0,0.0,14.605578422546387,0.040109798312187195,0.24523213505744934,0.0,0.0,0.0,0.0,0.0,0.0,0.0,0.0,0.0,0.004589501768350601,-0.001221602433361113,0.3611445128917694,0.0,0.0,0.0,0.0,0.0,0.0,0.0,0.0,0.0
1606828467259944083,2323800,1606828467248192723,imu_link,0.0020782004576176405,0.0006192122236825526,0.12711186707019806,0.9918860793113708,0.0,0.0,0.0,0.0,0.0,0.0,0.0,0.0,0.0,14.605578422546387,0.040109798312187195,0.24523213505744934,0.0,0.0,0.0,0.0,0.0,0.0,0.0,0.0,0.0,0.004589501768350601,-0.001221602433361113,0.3611445128917694,0.0,0.0,0.0,0.0,0.0,0.0,0.0,0.0,0.0
1606828467269174688,2323801,1606828467260113572,imu_link,0.0020771187264472246,0.0006189330015331507,0.12710891664028168,0.9918864965438843,0.0,0.0,0.0,0.0,0.0,0.0,0.0,0.0,0.0,14.605238914489746,0.04009455442428589,0.24510498344898224,0.0,0.0,0.0,0.0,0.0,0.0,0.0,0.0,0.0,0.002351788803935051,-0.00782015547156334,0.33151257038116455,0.0,0.0,0.0,0.0,0.0,0.0,0.0,0.0,0.0
1606828467270346640,2323802,1606828467260235498,imu_link,0.0020771187264472246,0.0006189330015331507,0.12710891664028168,0.9918864965438843,0.0,0.0,0.0,0.0,0.0,0.0,0.0,0.0,0.0,14.605238914489746,0.04009455442428589,0.24510498344898224,0.0,0.0,0.0,0.0,0.0,0.0,0.0,0.0,0.0,0.002351788803935051,-0.00782015547156334,0.33151257038116455,0.0,0.0,0.0,0.0,0.0,0.0,0.0,0.0,0.0
1606828467270366219,2323803,1606828467260399552,imu_link,0.0020784486550837755,0.0006198195042088628,0.12710823118686676,0.991886556148529,0.0,0.0,0.0,0.0,0.0,0.0,0.0,0.0,0.0,14.605158805847168,0.040176115930080414,0.2452690154314041,0.0,0.0,0.0,0.0,0.0,0.0,0.0,0.0,0.0,0.0038789031095802784,0.002360514597967267,0.33434829115867615,0.0,0.0,0.0,0.0,0.0,0.0,0.0,0.0,0.0
1606828467270376881,2323804,1606828467260489811,imu_link,0.0020784486550837755,0.0006198195042088628,0.12710823118686676,0.991886556148529,0.0,0.0,0.0,0.0,0.0,0.0,0.0,0.0,0.0,14.605158805847168,0.040176115930080414,0.2452690154314041,0.0,0.0,0.0,0.0,0.0,0.0,0.0,0.0,0.0,0.0038789031095802784,0.002360514597967267,0.33434829115867615,0.0,0.0,0.0,0.0,0.0,0.0,0.0,0.0,0.0
1606828467270406304,2323805,1606828467260562186,imu_link,0.0020786700770258904,0.0006199100171215832,0.12710469961166382,0.9918869137763977,0.0,0.0,0.0,0.0,0.0,0.0,0.0,0.0,0.0,14.604751586914062,0.04018404334783554,0.24529540538787842,0.0,0.0,0.0,0.0,0.0,0.0,0.0,0.0,0.0,0.0033425972796976566,0.020025525242090225,0.3277471363544464,0.0,0.0,0.0,0.0,0.0,0.0,0.0,0.0,0.0
1606828467270413438,2323806,1606828467260659789,imu_link,0.0020786700770258904,0.0006199100171215832,0.12710469961166382,0.9918869137763977,0.0,0.0,0.0,0.0,0.0,0.0,0.0,0.0,0.0,14.604751586914062,0.04018404334783554,0.24529540538787842,0.0,0.0,0.0,0.0,0.0,0.0,0.0,0.0,0.0,0.0033425972796976566,0.020025525242090225,0.3277471363544464,0.0,0.0,0.0,0.0,0.0,0.0,0.0,0.0,0.0
1606828467270426962,2323807,1606828467260740170,imu_link,0.00207975460216403,0.0006209730636328459,0.12710271775722504,0.9918872714042664,0.0,0.0,0.0,0.0,0.0,0.0,0.0,0.0,0.0,14.604522705078125,0.04028956592082977,0.24543403089046478,0.0,0.0,0.0,0.0,0.0,0.0,0.0,0.0,0.0,-0.0004870512639172375,0.015089553780853748,0.3381321430206299,0.0,0.0,0.0,0.0,0.0,0.0,0.0,0.0,0.0
1606828467270439537,2323808,1606828467260879568,imu_link,0.00207975460216403,0.0006209730636328459,0.12710271775722504,0.9918872714042664,0.0,0.0,0.0,0.0,0.0,0.0,0.0,0.0,0.0,14.604522705078125,0.04028956592082977,0.24543403089046478,0.0,0.0,0.0,0.0,0.0,0.0,0.0,0.0,0.0,-0.0004870512639172375,0.015089553780853748,0.3381321430206299,0.0,0.0,0.0,0.0,0.0,0.0,0.0,0.0,0.0
1606828467270457392,2323809,1606828467260950388,imu_link,0.00207954877987504,0.0006207835976965725,0.12709106504917145,0.9918886423110962,0.0,0.0,0.0,0.0,0.0,0.0,0.0,0.0,0.0,14.603178024291992,0.040273912250995636,0.24540746212005615,0.0,0.0,0.0,0.0,0.0,0.0,0.0,0.0,0.0,-0.01638014428317547,0.005782890133559704,0.3331310451030731,0.0,0.0,0.0,0.0,0.0,0.0,0.0,0.0,0.0
1606828467270465170,2323810,1606828467261018876,imu_link,0.00207954877987504,0.0006207835976965725,0.12709106504917145,0.9918886423110962,0.0,0.0,0.0,0.0,0.0,0.0,0.0,0.0,0.0,14.603178024291992,0.040273912250995636,0.24540746212005615,0.0,0.0,0.0,0.0,0.0,0.0,0.0,0.0,0.0,-0.01638014428317547,0.005782890133559704,0.3331310451030731,0.0,0.0,0.0,0.0,0.0,0.0,0.0,0.0,0.0
1606828467311132234,2323811,1606828467273559481,imu_link,0.0020802151411771774,0.0006211347063072026,0.12709097564220428,0.9918887615203857,0.0,0.0,0.0,0.0,0.0,0.0,0.0,0.0,0.0,14.603167533874512,0.040304139256477356,0.2454882711172104,0.0,0.0,0.0,0.0,0.0,0.0,0.0,0.0,0.0,-0.008301472291350365,0.007678628899157047,0.3260599374771118,0.0,0.0,0.0,0.0,0.0,0.0,0.0,0.0,0.0
1606828467311160692,2323812,1606828467273665722,imu_link,0.0020802151411771774,0.0006211347063072026,0.12709097564220428,0.9918887615203857,0.0,0.0,0.0,0.0,0.0,0.0,0.0,0.0,0.0,14.603167533874512,0.040304139256477356,0.2454882711172104,0.0,0.0,0.0,0.0,0.0,0.0,0.0,0.0,0.0,-0.008301472291350365,0.007678628899157047,0.3260599374771118,0.0,0.0,0.0,0.0,0.0,0.0,0.0,0.0,0.0
1606828467311184567,2323813,1606828467273806411,imu_link,0.002079564845189452,0.0006190238054841757,0.12708571553230286,0.9918893575668335,0.0,0.0,0.0,0.0,0.0,0.0,0.0,0.0,0.0,14.602558135986328,0.04007497429847717,0.24538341164588928,0.0,0.0,0.0,0.0,0.0,0.0,0.0,0.0,0.0,0.008975145407021046,0.007022108417004347,0.3511176109313965,0.0,0.0,0.0,0.0,0.0,0.0,0.0,0.0,0.0
1606828467311215056,2323814,1606828467273887398,imu_link,0.002079564845189452,0.0006190238054841757,0.12708571553230286,0.9918893575668335,0.0,0.0,0.0,0.0,0.0,0.0,0.0,0.0,0.0,14.602558135986328,0.04007497429847717,0.24538341164588928,0.0,0.0,0.0,0.0,0.0,0.0,0.0,0.0,0.0,0.008975145407021046,0.007022108417004347,0.3511176109313965,0.0,0.0,0.0,0.0,0.0,0.0,0.0,0.0,0.0
1606828467311239256,2323815,1606828467273947268,imu_link,0.0020781203638762236,0.0006196883041411638,0.12708665430545807,0.991889238357544,0.0,0.0,0.0,0.0,0.0,0.0,0.0,0.0,0.0,14.602664947509766,0.0401713103055954,0.24522896111011505,0.0,0.0,0.0,0.0,0.0,0.0,0.0,0.0,0.0,0.0033197281882166862,0.010309843346476555,0.32316145300865173,0.0,0.0,0.0,0.0,0.0,0.0,0.0,0.0,0.0
1606828467311248410,2323816,1606828467274015529,imu_link,0.0020781203638762236,0.0006196883041411638,0.12708665430545807,0.991889238357544,0.0,0.0,0.0,0.0,0.0,0.0,0.0,0.0,0.0,14.602664947509766,0.0401713103055954,0.24522896111011505,0.0,0.0,0.0,0.0,0.0,0.0,0.0,0.0,0.0,0.0033197281882166862,0.010309843346476555,0.32316145300865173,0.0,0.0,0.0,0.0,0.0,0.0,0.0,0.0,0.0
1606828467311262556,2323817,1606828467274100241,imu_link,0.002077340381219983,0.0006214313325472176,0.12707701325416565,0.991890549659729,0.0,0.0,0.0,0.0,0.0,0.0,0.0,0.0,0.0,14.601553916931152,0.040383175015449524,0.24516527354717255,0.0,0.0,0.0,0.0,0.0,0.0,0.0,0.0,0.0,-0.0046354299411177635,0.009406397119164467,0.32228904962539673,0.0,0.0,0.0,0.0,0.0,0.0,0.0,0.0,0.0
1606828467311267852,2323818,1606828467274170106,imu_link,0.002077340381219983,0.0006214313325472176,0.12707701325416565,0.991890549659729,0.0,0.0,0.0,0.0,0.0,0.0,0.0,0.0,0.0,14.601553916931152,0.040383175015449524,0.24516527354717255,0.0,0.0,0.0,0.0,0.0,0.0,0.0,0.0,0.0,-0.0046354299411177635,0.009406397119164467,0.32228904962539673,0.0,0.0,0.0,0.0,0.0,0.0,0.0,0.0,0.0
1606828467311308222,2323819,1606828467274239102,imu_link,0.0020766539964824915,0.0006227330304682255,0.12707632780075073,0.9918906092643738,0.0,0.0,0.0,0.0,0.0,0.0,0.0,0.0,0.0,14.60147476196289,0.04054128751158714,0.24510620534420013,0.0,0.0,0.0,0.0,0.0,0.0,0.0,0.0,0.0,0.0001647177996346727,0.009808764792978764,0.3419785797595978,0.0,0.0,0.0,0.0,0.0,0.0,0.0,0.0,0.0
1606828467311323717,2323820,1606828467274305270,imu_link,0.0020766539964824915,0.0006227330304682255,0.12707632780075073,0.9918906092643738,0.0,0.0,0.0,0.0,0.0,0.0,0.0,0.0,0.0,14.60147476196289,0.04054128751158714,0.24510620534420013,0.0,0.0,0.0,0.0,0.0,0.0,0.0,0.0,0.0,0.0001647177996346727,0.009808764792978764,0.3419785797595978,0.0,0.0,0.0,0.0,0.0,0.0,0.0,0.0,0.0
1606828467311337397,2323821,1606828467274373379,imu_link,0.0020749832037836313,0.0006212404696270823,0.12706823647022247,0.9918916821479797,0.0,0.0,0.0,0.0,0.0,0.0,0.0,0.0,0.0,14.600537300109863,0.040397968143224716,0.24489420652389526,0.0,0.0,0.0,0.0,0.0,0.0,0.0,0.0,0.0,0.0009313639020547271,-0.008564685471355915,0.3222191631793976,0.0,0.0,0.0,0.0,0.0,0.0,0.0,0.0,0.0
1606828467311357008,2323822,1606828467287429835,imu_link,0.0020749832037836313,0.0006212404696270823,0.12706823647022247,0.9918916821479797,0.0,0.0,0.0,0.0,0.0,0.0,0.0,0.0,0.0,14.600537300109863,0.040397968143224716,0.24489420652389526,0.0,0.0,0.0,0.0,0.0,0.0,0.0,0.0,0.0,0.0009313639020547271,-0.008564685471355915,0.3222191631793976,0.0,0.0,0.0,0.0,0.0,0.0,0.0,0.0,0.0
1606828467311366747,2323823,1606828467287569582,imu_link,0.0020749603863805532,0.0006211558938957751,0.12706626951694489,0.9918919205665588,0.0,0.0,0.0,0.0,0.0,0.0,0.0,0.0,0.0,14.600309371948242,0.040389176458120346,0.24489030241966248,0.0,0.0,0.0,0.0,0.0,0.0,0.0,0.0,0.0,0.0006181173957884312,-0.0040490226820111275,0.3152596950531006,0.0,0.0,0.0,0.0,0.0,0.0,0.0,0.0,0.0
1606828467311381904,2323824,1606828467287716942,imu_link,0.0020749603863805532,0.0006211558938957751,0.12706626951694489,0.9918919205665588,0.0,0.0,0.0,0.0,0.0,0.0,0.0,0.0,0.0,14.600309371948242,0.040389176458120346,0.24489030241966248,0.0,0.0,0.0,0.0,0.0,0.0,0.0,0.0,0.0,0.0006181173957884312,-0.0040490226820111275,0.3152596950531006,0.0,0.0,0.0,0.0,0.0,0.0,0.0,0.0,0.0
1606828467312230302,2323825,1606828467287798476,imu_link,0.0020751103293150663,0.0006207446567714214,0.12706561386585236,0.9918919801712036,0.0,0.0,0.0,0.0,0.0,0.0,0.0,0.0,0.0,14.600234031677246,0.04034041240811348,0.24490132927894592,0.0,0.0,0.0,0.0,0.0,0.0,0.0,0.0,0.0,0.0050897784531116486,0.017125308513641357,0.32977989315986633,0.0,0.0,0.0,0.0,0.0,0.0,0.0,0.0,0.0
1606828467312245254,2323826,1606828467287886574,imu_link,0.0020751103293150663,0.0006207446567714214,0.12706561386585236,0.9918919801712036,0.0,0.0,0.0,0.0,0.0,0.0,0.0,0.0,0.0,14.600234031677246,0.04034041240811348,0.24490132927894592,0.0,0.0,0.0,0.0,0.0,0.0,0.0,0.0,0.0,0.0050897784531116486,0.017125308513641357,0.32977989315986633,0.0,0.0,0.0,0.0,0.0,0.0,0.0,0.0,0.0
1606828467312279836,2323827,1606828467287964579,imu_link,0.002075944095849991,0.0006204804521985352,0.12706933915615082,0.9918915033340454,0.0,0.0,0.0,0.0,0.0,0.0,0.0,0.0,0.0,14.600664138793945,0.04029731824994087,0.2449924200773239,0.0,0.0,0.0,0.0,0.0,0.0,0.0,0.0,0.0,0.014383796602487564,0.00868860725313425,0.35361307859420776,0.0,0.0,0.0,0.0,0.0,0.0,0.0,0.0,0.0
1606828467312295945,2323828,1606828467288064409,imu_link,0.002075944095849991,0.0006204804521985352,0.12706933915615082,0.9918915033340454,0.0,0.0,0.0,0.0,0.0,0.0,0.0,0.0,0.0,14.600664138793945,0.04029731824994087,0.2449924200773239,0.0,0.0,0.0,0.0,0.0,0.0,0.0,0.0,0.0,0.014383796602487564,0.00868860725313425,0.35361307859420776,0.0,0.0,0.0,0.0,0.0,0.0,0.0,0.0,0.0
1606828467312304314,2323829,1606828467288155480,imu_link,0.002074663294479251,0.000623963016550988,0.1270667016506195,0.9918918013572693,0.0,0.0,0.0,0.0,0.0,0.0,0.0,0.0,0.0,14.600361824035645,0.040712449699640274,0.24489744007587433,0.0,0.0,0.0,0.0,0.0,0.0,0.0,0.0,0.0,0.009296147152781487,0.006215706933289766,0.3416875898838043,0.0,0.0,0.0,0.0,0.0,0.0,0.0,0.0,0.0
1606828467312318709,2323830,1606828467288232588,imu_link,0.002074663294479251,0.000623963016550988,0.1270667016506195,0.9918918013572693,0.0,0.0,0.0,0.0,0.0,0.0,0.0,0.0,0.0,14.600361824035645,0.040712449699640274,0.24489744007587433,0.0,0.0,0.0,0.0,0.0,0.0,0.0,0.0,0.0,0.009296147152781487,0.006215706933289766,0.3416875898838043,0.0,0.0,0.0,0.0,0.0,0.0,0.0,0.0,0.0
1606828467312358236,2323831,1606828467288314116,imu_link,0.0020755475852638483,0.0006236459594219923,0.1270659863948822,0.9918919205665588,0.0,0.0,0.0,0.0,0.0,0.0,0.0,0.0,0.0,14.600279808044434,0.04066372290253639,0.24499329924583435,0.0,0.0,0.0,0.0,0.0,0.0,0.0,0.0,0.0,-0.007007556967437267,0.016835534945130348,0.3415657877922058,0.0,0.0,0.0,0.0,0.0,0.0,0.0,0.0,0.0
1606828467312364320,2323832,1606828467288387385,imu_link,0.0020755475852638483,0.0006236459594219923,0.1270659863948822,0.9918919205665588,0.0,0.0,0.0,0.0,0.0,0.0,0.0,0.0,0.0,14.600279808044434,0.04066372290253639,0.24499329924583435,0.0,0.0,0.0,0.0,0.0,0.0,0.0,0.0,0.0,-0.007007556967437267,0.016835534945130348,0.3415657877922058,0.0,0.0,0.0,0.0,0.0,0.0,0.0,0.0,0.0
1606828467312394024,2323833,1606828467300925609,imu_link,0.0020743177738040686,0.0006200299831107259,0.12707439064979553,0.9918908476829529,0.0,0.0,0.0,0.0,0.0,0.0,0.0,0.0,0.0,14.601249694824219,0.04026855155825615,0.24480122327804565,0.0,0.0,0.0,0.0,0.0,0.0,0.0,0.0,0.0,0.00018707860726863146,-0.0021605039946734905,0.34851670265197754,0.0,0.0,0.0,0.0,0.0,0.0,0.0,0.0,0.0
1606828467312423687,2323834,1606828467301061342,imu_link,0.0020743177738040686,0.0006200299831107259,0.12707439064979553,0.9918908476829529,0.0,0.0,0.0,0.0,0.0,0.0,0.0,0.0,0.0,14.601249694824219,0.04026855155825615,0.24480122327804565,0.0,0.0,0.0,0.0,0.0,0.0,0.0,0.0,0.0,0.00018707860726863146,-0.0021605039946734905,0.34851670265197754,0.0,0.0,0.0,0.0,0.0,0.0,0.0,0.0,0.0
1606828467312435981,2323835,1606828467301205179,imu_link,0.002074615331366658,0.000620575447101146,0.1270725578069687,0.991891086101532,0.0,0.0,0.0,0.0,0.0,0.0,0.0,0.0,0.0,14.601037979125977,0.04032667353749275,0.24484290182590485,0.0,0.0,0.0,0.0,0.0,0.0,0.0,0.0,0.0,0.0012024631723761559,-0.03392884507775307,0.3518451750278473,0.0,0.0,0.0,0.0,0.0,0.0,0.0,0.0,0.0
1606828467312446353,2323836,1606828467301290410,imu_link,0.002074615331366658,0.000620575447101146,0.1270725578069687,0.991891086101532,0.0,0.0,0.0,0.0,0.0,0.0,0.0,0.0,0.0,14.601037979125977,0.04032667353749275,0.24484290182590485,0.0,0.0,0.0,0.0,0.0,0.0,0.0,0.0,0.0,0.0012024631723761559,-0.03392884507775307,0.3518451750278473,0.0,0.0,0.0,0.0,0.0,0.0,0.0,0.0,0.0
1606828467312472882,2323837,1606828467301388707,imu_link,0.002081258688122034,0.000620608392637223,0.12707433104515076,0.9918908476829529,0.0,0.0,0.0,0.0,0.0,0.0,0.0,0.0,0.0,14.601244926452637,0.04023323208093643,0.24559859931468964,0.0,0.0,0.0,0.0,0.0,0.0,0.0,0.0,0.0,-0.013897215947508812,-0.01738220453262329,0.3559355139732361,0.0,0.0,0.0,0.0,0.0,0.0,0.0,0.0,0.0
1606828467312489168,2323838,1606828467301494131,imu_link,0.002081258688122034,0.000620608392637223,0.12707433104515076,0.9918908476829529,0.0,0.0,0.0,0.0,0.0,0.0,0.0,0.0,0.0,14.601244926452637,0.04023323208093643,0.24559859931468964,0.0,0.0,0.0,0.0,0.0,0.0,0.0,0.0,0.0,-0.013897215947508812,-0.01738220453262329,0.3559355139732361,0.0,0.0,0.0,0.0,0.0,0.0,0.0,0.0,0.0
1606828467312528414,2323839,1606828467301578891,imu_link,0.002080084290355444,0.0006214450695551932,0.12707389891147614,0.9918909072875977,0.0,0.0,0.0,0.0,0.0,0.0,0.0,0.0,0.0,14.60119342803955,0.04034554958343506,0.24547722935676575,0.0,0.0,0.0,0.0,0.0,0.0,0.0,0.0,0.0,-0.011635638773441315,-0.003007536754012108,0.35374969244003296,0.0,0.0,0.0,0.0,0.0,0.0,0.0,0.0,0.0
1606828467312546225,2323840,1606828467301655212,imu_link,0.002080084290355444,0.0006214450695551932,0.12707389891147614,0.9918909072875977,0.0,0.0,0.0,0.0,0.0,0.0,0.0,0.0,0.0,14.60119342803955,0.04034554958343506,0.24547722935676575,0.0,0.0,0.0,0.0,0.0,0.0,0.0,0.0,0.0,-0.011635638773441315,-0.003007536754012108,0.35374969244003296,0.0,0.0,0.0,0.0,0.0,0.0,0.0,0.0,0.0
1606828467312570651,2323841,1606828467301736751,imu_link,0.0020813820883631706,0.000617345271166414,0.12708796560764313,0.9918891191482544,0.0,0.0,0.0,0.0,0.0,0.0,0.0,0.0,0.0,14.602815628051758,0.0398571752011776,0.24556562304496765,0.0,0.0,0.0,0.0,0.0,0.0,0.0,0.0,0.0,-0.003413151716813445,-0.005729190539568663,0.34412261843681335,0.0,0.0,0.0,0.0,0.0,0.0,0.0,0.0,0.0
1606828467312585649,2323842,1606828467301816550,imu_link,0.0020813820883631706,0.000617345271166414,0.12708796560764313,0.9918891191482544,0.0,0.0,0.0,0.0,0.0,0.0,0.0,0.0,0.0,14.602815628051758,0.0398571752011776,0.24556562304496765,0.0,0.0,0.0,0.0,0.0,0.0,0.0,0.0,0.0,-0.003413151716813445,-0.005729190539568663,0.34412261843681335,0.0,0.0,0.0,0.0,0.0,0.0,0.0,0.0,0.0
1606828467316142728,2323843,1606828467301898760,imu_link,0.002081184182316065,0.000619573867879808,0.12708811461925507,0.9918891191482544,0.0,0.0,0.0,0.0,0.0,0.0,0.0,0.0,0.0,14.602834701538086,0.04011332616209984,0.24557559192180634,0.0,0.0,0.0,0.0,0.0,0.0,0.0,0.0,0.0,0.004362178035080433,0.00471162237226963,0.3084498643875122,0.0,0.0,0.0,0.0,0.0,0.0,0.0,0.0,0.0
1606828467323149437,2323844,1606828467313844742,imu_link,0.002081184182316065,0.000619573867879808,0.12708811461925507,0.9918891191482544,0.0,0.0,0.0,0.0,0.0,0.0,0.0,0.0,0.0,14.602834701538086,0.04011332616209984,0.24557559192180634,0.0,0.0,0.0,0.0,0.0,0.0,0.0,0.0,0.0,0.004362178035080433,0.00471162237226963,0.3084498643875122,0.0,0.0,0.0,0.0,0.0,0.0,0.0,0.0,0.0
1606828467323749900,2323845,1606828467313982705,imu_link,0.0020816605538129807,0.0006221520015969872,0.12709559500217438,0.991888165473938,0.0,0.0,0.0,0.0,0.0,0.0,0.0,0.0,0.0,14.603699684143066,0.04039757698774338,0.24566759169101715,0.0,0.0,0.0,0.0,0.0,0.0,0.0,0.0,0.0,0.019341157749295235,0.01119296532124281,0.32104989886283875,0.0,0.0,0.0,0.0,0.0,0.0,0.0,0.0,0.0
1606828467323763576,2323846,1606828467314168138,imu_link,0.0020816605538129807,0.0006221520015969872,0.12709559500217438,0.991888165473938,0.0,0.0,0.0,0.0,0.0,0.0,0.0,0.0,0.0,14.603699684143066,0.04039757698774338,0.24566759169101715,0.0,0.0,0.0,0.0,0.0,0.0,0.0,0.0,0.0,0.019341157749295235,0.01119296532124281,0.32104989886283875,0.0,0.0,0.0,0.0,0.0,0.0,0.0,0.0,0.0
1606828467323773921,2323847,1606828467314251090,imu_link,0.00208062632009387,0.0006201766082085669,0.12709666788578033,0.9918880462646484,0.0,0.0,0.0,0.0,0.0,0.0,0.0,0.0,0.0,14.603824615478516,0.04018784686923027,0.24552130699157715,0.0,0.0,0.0,0.0,0.0,0.0,0.0,0.0,0.0,0.03144558519124985,0.01897491328418255,0.34498724341392517,0.0,0.0,0.0,0.0,0.0,0.0,0.0,0.0,0.0
1606828467323782890,2323848,1606828467314328980,imu_link,0.00208062632009387,0.0006201766082085669,0.12709666788578033,0.9918880462646484,0.0,0.0,0.0,0.0,0.0,0.0,0.0,0.0,0.0,14.603824615478516,0.04018784686923027,0.24552130699157715,0.0,0.0,0.0,0.0,0.0,0.0,0.0,0.0,0.0,0.03144558519124985,0.01897491328418255,0.34498724341392517,0.0,0.0,0.0,0.0,0.0,0.0,0.0,0.0,0.0
1606828467323795214,2323849,1606828467314450044,imu_link,0.00207775947637856,0.000626470660790801,0.1270974725484848,0.9918878674507141,0.0,0.0,0.0,0.0,0.0,0.0,0.0,0.0,0.0,14.603917121887207,0.040944792330265045,0.24528715014457703,0.0,0.0,0.0,0.0,0.0,0.0,0.0,0.0,0.0,0.016740167513489723,0.015941934660077095,0.3395131528377533,0.0,0.0,0.0,0.0,0.0,0.0,0.0,0.0,0.0
1606828467323817154,2323850,1606828467314539811,imu_link,0.00207775947637856,0.000626470660790801,0.1270974725484848,0.9918878674507141,0.0,0.0,0.0,0.0,0.0,0.0,0.0,0.0,0.0,14.603917121887207,0.040944792330265045,0.24528715014457703,0.0,0.0,0.0,0.0,0.0,0.0,0.0,0.0,0.0,0.016740167513489723,0.015941934660077095,0.3395131528377533,0.0,0.0,0.0,0.0,0.0,0.0,0.0,0.0,0.0
1606828467323823820,2323851,1606828467314613842,imu_link,0.002078424906358123,0.0006269423756748438,0.12709861993789673,0.9918877482414246,0.0,0.0,0.0,0.0,0.0,0.0,0.0,0.0,0.0,14.604049682617188,0.040988434106111526,0.24536970257759094,0.0,0.0,0.0,0.0,0.0,0.0,0.0,0.0,0.0,0.007486144546419382,-0.00574012566357851,0.33864858746528625,0.0,0.0,0.0,0.0,0.0,0.0,0.0,0.0,0.0
1606828467323839097,2323852,1606828467314698227,imu_link,0.002078424906358123,0.0006269423756748438,0.12709861993789673,0.9918877482414246,0.0,0.0,0.0,0.0,0.0,0.0,0.0,0.0,0.0,14.604049682617188,0.040988434106111526,0.24536970257759094,0.0,0.0,0.0,0.0,0.0,0.0,0.0,0.0,0.0,0.007486144546419382,-0.00574012566357851,0.33864858746528625,0.0,0.0,0.0,0.0,0.0,0.0,0.0,0.0,0.0
1606828467324494574,2323853,1606828467314783594,imu_link,0.0020793017465621233,0.0006281957612372935,0.12709972262382507,0.9918875694274902,0.0,0.0,0.0,0.0,0.0,0.0,0.0,0.0,0.0,14.604180335998535,0.041117846965789795,0.24548768997192383,0.0,0.0,0.0,0.0,0.0,0.0,0.0,0.0,0.0,0.012697701342403889,-0.008121958002448082,0.34042492508888245,0.0,0.0,0.0,0.0,0.0,0.0,0.0,0.0,0.0
1606828467336514690,2323854,1606828467327556147,imu_link,0.0020793017465621233,0.0006281957612372935,0.12709972262382507,0.9918875694274902,0.0,0.0,0.0,0.0,0.0,0.0,0.0,0.0,0.0,14.604180335998535,0.041117846965789795,0.24548768997192383,0.0,0.0,0.0,0.0,0.0,0.0,0.0,0.0,0.0,0.012697701342403889,-0.008121958002448082,0.34042492508888245,0.0,0.0,0.0,0.0,0.0,0.0,0.0,0.0,0.0
1606828467337069531,2323855,1606828467327666241,imu_link,0.0020793017465621233,0.0006281957612372935,0.12709972262382507,0.9918875694274902,0.0,0.0,0.0,0.0,0.0,0.0,0.0,0.0,0.0,14.604180335998535,0.041117846965789795,0.24548768997192383,0.0,0.0,0.0,0.0,0.0,0.0,0.0,0.0,0.0,-0.0043005975894629955,0.0029142447747290134,0.34323224425315857,0.0,0.0,0.0,0.0,0.0,0.0,0.0,0.0,0.0
1606828467337088094,2323856,1606828467327785464,imu_link,0.0020793017465621233,0.0006281957612372935,0.12709972262382507,0.9918875694274902,0.0,0.0,0.0,0.0,0.0,0.0,0.0,0.0,0.0,14.604180335998535,0.041117846965789795,0.24548768997192383,0.0,0.0,0.0,0.0,0.0,0.0,0.0,0.0,0.0,-0.0043005975894629955,0.0029142447747290134,0.34323224425315857,0.0,0.0,0.0,0.0,0.0,0.0,0.0,0.0,0.0
1606828467337100539,2323857,1606828467327856263,imu_link,0.002079130383208394,0.000627323635853827,0.12709373235702515,0.9918883442878723,0.0,0.0,0.0,0.0,0.0,0.0,0.0,0.0,0.0,14.603487014770508,0.04102269932627678,0.24545526504516602,0.0,0.0,0.0,0.0,0.0,0.0,0.0,0.0,0.0,-0.015015491284430027,0.014391936361789703,0.3449416160583496,0.0,0.0,0.0,0.0,0.0,0.0,0.0,0.0,0.0
1606828467337114958,2323858,1606828467327919145,imu_link,0.002079130383208394,0.000627323635853827,0.12709373235702515,0.9918883442878723,0.0,0.0,0.0,0.0,0.0,0.0,0.0,0.0,0.0,14.603487014770508,0.04102269932627678,0.24545526504516602,0.0,0.0,0.0,0.0,0.0,0.0,0.0,0.0,0.0,-0.015015491284430027,0.014391936361789703,0.3449416160583496,0.0,0.0,0.0,0.0,0.0,0.0,0.0,0.0,0.0
1606828467338358155,2323859,1606828467327983814,imu_link,0.002079130383208394,0.000627323635853827,0.12709373235702515,0.9918883442878723,0.0,0.0,0.0,0.0,0.0,0.0,0.0,0.0,0.0,14.603487014770508,0.04102269932627678,0.24545526504516602,0.0,0.0,0.0,0.0,0.0,0.0,0.0,0.0,0.0,-0.008995282463729382,0.015747277066111565,0.37630102038383484,0.0,0.0,0.0,0.0,0.0,0.0,0.0,0.0,0.0
1606828467338370479,2323860,1606828467328072230,imu_link,0.002079130383208394,0.000627323635853827,0.12709373235702515,0.9918883442878723,0.0,0.0,0.0,0.0,0.0,0.0,0.0,0.0,0.0,14.603487014770508,0.04102269932627678,0.24545526504516602,0.0,0.0,0.0,0.0,0.0,0.0,0.0,0.0,0.0,-0.008995282463729382,0.015747277066111565,0.37630102038383484,0.0,0.0,0.0,0.0,0.0,0.0,0.0,0.0,0.0
1606828467338392652,2323861,1606828467328146088,imu_link,0.0020776980090886354,0.0006238049827516079,0.12708868086338043,0.9918890595436096,0.0,0.0,0.0,0.0,0.0,0.0,0.0,0.0,0.0,14.602900505065918,0.04064487665891647,0.2452409714460373,0.0,0.0,0.0,0.0,0.0,0.0,0.0,0.0,0.0,-0.015137150883674622,0.004191268235445023,0.3749558627605438,0.0,0.0,0.0,0.0,0.0,0.0,0.0,0.0,0.0
1606828467338401792,2323862,1606828467328209535,imu_link,0.0020776980090886354,0.0006238049827516079,0.12708868086338043,0.9918890595436096,0.0,0.0,0.0,0.0,0.0,0.0,0.0,0.0,0.0,14.602900505065918,0.04064487665891647,0.2452409714460373,0.0,0.0,0.0,0.0,0.0,0.0,0.0,0.0,0.0,-0.015137150883674622,0.004191268235445023,0.3749558627605438,0.0,0.0,0.0,0.0,0.0,0.0,0.0,0.0,0.0
1606828467338421374,2323863,1606828467328276072,imu_link,0.0020789254922419786,0.0006238695350475609,0.12708845734596252,0.9918890595436096,0.0,0.0,0.0,0.0,0.0,0.0,0.0,0.0,0.0,14.602875709533691,0.0406343899667263,0.2453814148902893,0.0,0.0,0.0,0.0,0.0,0.0,0.0,0.0,0.0,-0.006528061348944902,0.013600921258330345,0.35350286960601807,0.0,0.0,0.0,0.0,0.0,0.0,0.0,0.0,0.0
1606828467338432759,2323864,1606828467328337694,imu_link,0.0020789254922419786,0.0006238695350475609,0.12708845734596252,0.9918890595436096,0.0,0.0,0.0,0.0,0.0,0.0,0.0,0.0,0.0,14.602875709533691,0.0406343899667263,0.2453814148902893,0.0,0.0,0.0,0.0,0.0,0.0,0.0,0.0,0.0,-0.006528061348944902,0.013600921258330345,0.35350286960601807,0.0,0.0,0.0,0.0,0.0,0.0,0.0,0.0,0.0
1606828467358516355,2323865,1606828467341098335,imu_link,0.002075725235044956,0.0006232986343093216,0.12707702815532684,0.991890549659729,0.0,0.0,0.0,0.0,0.0,0.0,0.0,0.0,0.0,14.601555824279785,0.04061892628669739,0.24500887095928192,0.0,0.0,0.0,0.0,0.0,0.0,0.0,0.0,0.0,0.006254540290683508,0.016856929287314415,0.3509564697742462,0.0,0.0,0.0,0.0,0.0,0.0,0.0,0.0,0.0
1606828467358530616,2323866,1606828467341238112,imu_link,0.002075725235044956,0.0006232986343093216,0.12707702815532684,0.991890549659729,0.0,0.0,0.0,0.0,0.0,0.0,0.0,0.0,0.0,14.601555824279785,0.04061892628669739,0.24500887095928192,0.0,0.0,0.0,0.0,0.0,0.0,0.0,0.0,0.0,0.006254540290683508,0.016856929287314415,0.3509564697742462,0.0,0.0,0.0,0.0,0.0,0.0,0.0,0.0,0.0
1606828467358536063,2323867,1606828467341425745,imu_link,0.0020744986832141876,0.0006244368269108236,0.1270778626203537,0.9918904304504395,0.0,0.0,0.0,0.0,0.0,0.0,0.0,0.0,0.0,14.601651191711426,0.04076595976948738,0.2448861002922058,0.0,0.0,0.0,0.0,0.0,0.0,0.0,0.0,0.0,-0.0015033753588795662,0.011686045676469803,0.3421687185764313,0.0,0.0,0.0,0.0,0.0,0.0,0.0,0.0,0.0
1606828467358545190,2323868,1606828467341536471,imu_link,0.0020744986832141876,0.0006244368269108236,0.1270778626203537,0.9918904304504395,0.0,0.0,0.0,0.0,0.0,0.0,0.0,0.0,0.0,14.601651191711426,0.04076595976948738,0.2448861002922058,0.0,0.0,0.0,0.0,0.0,0.0,0.0,0.0,0.0,-0.0015033753588795662,0.011686045676469803,0.3421687185764313,0.0,0.0,0.0,0.0,0.0,0.0,0.0,0.0,0.0
1606828467358561907,2323869,1606828467341617293,imu_link,0.0020730376709252596,0.0006245357217267156,0.12706969678401947,0.9918915033340454,0.0,0.0,0.0,0.0,0.0,0.0,0.0,0.0,0.0,14.6007080078125,0.040800485759973526,0.24472112953662872,0.0,0.0,0.0,0.0,0.0,0.0,0.0,0.0,0.0,0.0031496661249548197,0.013236981816589832,0.34188219904899597,0.0,0.0,0.0,0.0,0.0,0.0,0.0,0.0,0.0
1606828467360628321,2323870,1606828467341697583,imu_link,0.0020730376709252596,0.0006245357217267156,0.12706969678401947,0.9918915033340454,0.0,0.0,0.0,0.0,0.0,0.0,0.0,0.0,0.0,14.6007080078125,0.040800485759973526,0.24472112953662872,0.0,0.0,0.0,0.0,0.0,0.0,0.0,0.0,0.0,0.0031496661249548197,0.013236981816589832,0.34188219904899597,0.0,0.0,0.0,0.0,0.0,0.0,0.0,0.0,0.0
1606828467360658039,2323871,1606828467341807607,imu_link,0.0020735845901072025,0.0006252555758692324,0.12706997990608215,0.9918914437294006,0.0,0.0,0.0,0.0,0.0,0.0,0.0,0.0,0.0,14.600739479064941,0.04087426885962486,0.24479375779628754,0.0,0.0,0.0,0.0,0.0,0.0,0.0,0.0,0.0,0.004856199957430363,0.0009150681435130537,0.34167471528053284,0.0,0.0,0.0,0.0,0.0,0.0,0.0,0.0,0.0
1606828467360685116,2323872,1606828467341897870,imu_link,0.0020735845901072025,0.0006252555758692324,0.12706997990608215,0.9918914437294006,0.0,0.0,0.0,0.0,0.0,0.0,0.0,0.0,0.0,14.600739479064941,0.04087426885962486,0.24479375779628754,0.0,0.0,0.0,0.0,0.0,0.0,0.0,0.0,0.0,0.004856199957430363,0.0009150681435130537,0.34167471528053284,0.0,0.0,0.0,0.0,0.0,0.0,0.0,0.0,0.0
1606828467360704702,2323873,1606828467341975645,imu_link,0.002075513359159231,0.0006263901013880968,0.12706995010375977,0.9918914437294006,0.0,0.0,0.0,0.0,0.0,0.0,0.0,0.0,0.0,14.600737571716309,0.040975142270326614,0.2450294941663742,0.0,0.0,0.0,0.0,0.0,0.0,0.0,0.0,0.0,-0.012751370668411255,0.011161558330059052,0.3464125096797943,0.0,0.0,0.0,0.0,0.0,0.0,0.0,0.0,0.0
1606828467360745443,2323874,1606828467342057925,imu_link,0.002075513359159231,0.0006263901013880968,0.12706995010375977,0.9918914437294006,0.0,0.0,0.0,0.0,0.0,0.0,0.0,0.0,0.0,14.600737571716309,0.040975142270326614,0.2450294941663742,0.0,0.0,0.0,0.0,0.0,0.0,0.0,0.0,0.0,-0.012751370668411255,0.011161558330059052,0.3464125096797943,0.0,0.0,0.0,0.0,0.0,0.0,0.0,0.0,0.0
1606828467360788362,2323875,1606828467342143166,imu_link,0.002076640957966447,0.0006272137979976833,0.12707042694091797,0.9918913841247559,0.0,0.0,0.0,0.0,0.0,0.0,0.0,0.0,0.0,14.600790023803711,0.041052233427762985,0.24516968429088593,0.0,0.0,0.0,0.0,0.0,0.0,0.0,0.0,0.0,-0.019117841497063637,0.016190355643630028,0.3491358458995819,0.0,0.0,0.0,0.0,0.0,0.0,0.0,0.0,0.0
1606828467363849886,2323876,1606828467354849468,imu_link,0.002076640957966447,0.0006272137979976833,0.12707042694091797,0.9918913841247559,0.0,0.0,0.0,0.0,0.0,0.0,0.0,0.0,0.0,14.600790023803711,0.041052233427762985,0.24516968429088593,0.0,0.0,0.0,0.0,0.0,0.0,0.0,0.0,0.0,-0.019117841497063637,0.016190355643630028,0.3491358458995819,0.0,0.0,0.0,0.0,0.0,0.0,0.0,0.0,0.0
1606828467364953116,2323877,1606828467354995370,imu_link,0.002075433963909745,0.0006243708776310086,0.12706954777240753,0.9918915033340454,0.0,0.0,0.0,0.0,0.0,0.0,0.0,0.0,0.0,14.600689888000488,0.04074689373373985,0.24499107897281647,0.0,0.0,0.0,0.0,0.0,0.0,0.0,0.0,0.0,-0.015879541635513306,-0.008822067640721798,0.3364887833595276,0.0,0.0,0.0,0.0,0.0,0.0,0.0,0.0,0.0
1606828467364980756,2323878,1606828467355180066,imu_link,0.002075433963909745,0.0006243708776310086,0.12706954777240753,0.9918915033340454,0.0,0.0,0.0,0.0,0.0,0.0,0.0,0.0,0.0,14.600689888000488,0.04074689373373985,0.24499107897281647,0.0,0.0,0.0,0.0,0.0,0.0,0.0,0.0,0.0,-0.015879541635513306,-0.008822067640721798,0.3364887833595276,0.0,0.0,0.0,0.0,0.0,0.0,0.0,0.0,0.0
1606828467365002204,2323879,1606828467355258447,imu_link,0.0020766889210790396,0.0006265183910727501,0.1270705610513687,0.9918913841247559,0.0,0.0,0.0,0.0,0.0,0.0,0.0,0.0,0.0,14.600807189941406,0.04097246006131172,0.24516503512859344,0.0,0.0,0.0,0.0,0.0,0.0,0.0,0.0,0.0,-0.013794953934848309,-0.009944427758455276,0.32216596603393555,0.0,0.0,0.0,0.0,0.0,0.0,0.0,0.0,0.0
1606828467365037976,2323880,1606828467355390452,imu_link,0.0020766889210790396,0.0006265183910727501,0.1270705610513687,0.9918913841247559,0.0,0.0,0.0,0.0,0.0,0.0,0.0,0.0,0.0,14.600807189941406,0.04097246006131172,0.24516503512859344,0.0,0.0,0.0,0.0,0.0,0.0,0.0,0.0,0.0,-0.013794953934848309,-0.009944427758455276,0.32216596603393555,0.0,0.0,0.0,0.0,0.0,0.0,0.0,0.0,0.0
1606828467365048317,2323881,1606828467355488714,imu_link,0.0020793534349650145,0.0006257841596379876,0.12708313763141632,0.9918896555900574,0.0,0.0,0.0,0.0,0.0,0.0,0.0,0.0,0.0,14.602262496948242,0.040847089141607285,0.2454577535390854,0.0,0.0,0.0,0.0,0.0,0.0,0.0,0.0,0.0,-0.000888694659806788,0.013577539473772049,0.31865739822387695,0.0,0.0,0.0,0.0,0.0,0.0,0.0,0.0,0.0
1606828467365056791,2323882,1606828467355600461,imu_link,0.0020793534349650145,0.0006257841596379876,0.12708313763141632,0.9918896555900574,0.0,0.0,0.0,0.0,0.0,0.0,0.0,0.0,0.0,14.602262496948242,0.040847089141607285,0.2454577535390854,0.0,0.0,0.0,0.0,0.0,0.0,0.0,0.0,0.0,-0.000888694659806788,0.013577539473772049,0.31865739822387695,0.0,0.0,0.0,0.0,0.0,0.0,0.0,0.0,0.0
1606828467365094739,2323883,1606828467355675475,imu_link,0.002080255188047886,0.000624405569396913,0.12708348035812378,0.9918897151947021,0.0,0.0,0.0,0.0,0.0,0.0,0.0,0.0,0.0,14.602299690246582,0.040677182376384735,0.24554018676280975,0.0,0.0,0.0,0.0,0.0,0.0,0.0,0.0,0.0,0.011619111523032188,0.018121793866157532,0.30727511644363403,0.0,0.0,0.0,0.0,0.0,0.0,0.0,0.0,0.0
1606828467365100744,2323884,1606828467355761022,imu_link,0.002080255188047886,0.000624405569396913,0.12708348035812378,0.9918897151947021,0.0,0.0,0.0,0.0,0.0,0.0,0.0,0.0,0.0,14.602299690246582,0.040677182376384735,0.24554018676280975,0.0,0.0,0.0,0.0,0.0,0.0,0.0,0.0,0.0,0.011619111523032188,0.018121793866157532,0.30727511644363403,0.0,0.0,0.0,0.0,0.0,0.0,0.0,0.0,0.0
1606828467366520913,2323885,1606828467355847807,imu_link,0.002078833756968379,0.0006262639653868973,0.1270957589149475,0.9918881058692932,0.0,0.0,0.0,0.0,0.0,0.0,0.0,0.0,0.0,14.603720664978027,0.04090607538819313,0.24540618062019348,0.0,0.0,0.0,0.0,0.0,0.0,0.0,0.0,0.0,0.017661970108747482,0.008671669289469719,0.2988865375518799,0.0,0.0,0.0,0.0,0.0,0.0,0.0,0.0,0.0
1606828467366538659,2323886,1606828467355931485,imu_link,0.002078833756968379,0.0006262639653868973,0.1270957589149475,0.9918881058692932,0.0,0.0,0.0,0.0,0.0,0.0,0.0,0.0,0.0,14.603720664978027,0.04090607538819313,0.24540618062019348,0.0,0.0,0.0,0.0,0.0,0.0,0.0,0.0,0.0,0.017661970108747482,0.008671669289469719,0.2988865375518799,0.0,0.0,0.0,0.0,0.0,0.0,0.0,0.0,0.0
1606828467379544596,2323887,1606828467368299196,imu_link,0.0020793545991182327,0.0006280801026150584,0.12709519267082214,0.991888165473938,0.0,0.0,0.0,0.0,0.0,0.0,0.0,0.0,0.0,14.603653907775879,0.041105058044195175,0.24549181759357452,0.0,0.0,0.0,0.0,0.0,0.0,0.0,0.0,0.0,0.011568517424166203,-0.0045798225328326225,0.3266139328479767,0.0,0.0,0.0,0.0,0.0,0.0,0.0,0.0,0.0
1606828467379560078,2323888,1606828467368429597,imu_link,0.0020793545991182327,0.0006280801026150584,0.12709519267082214,0.991888165473938,0.0,0.0,0.0,0.0,0.0,0.0,0.0,0.0,0.0,14.603653907775879,0.041105058044195175,0.24549181759357452,0.0,0.0,0.0,0.0,0.0,0.0,0.0,0.0,0.0,0.011568517424166203,-0.0045798225328326225,0.3266139328479767,0.0,0.0,0.0,0.0,0.0,0.0,0.0,0.0,0.0
1606828467379579409,2323889,1606828467368599228,imu_link,0.0020806717220693827,0.0006305589340627193,0.12710757553577423,0.9918866157531738,0.0,0.0,0.0,0.0,0.0,0.0,0.0,0.0,0.0,14.605085372924805,0.041364554315805435,0.2456781268119812,0.0,0.0,0.0,0.0,0.0,0.0,0.0,0.0,0.0,-0.004667289555072784,0.005529514979571104,0.351995587348938,0.0,0.0,0.0,0.0,0.0,0.0,0.0,0.0,0.0
1606828467379589453,2323890,1606828467368695491,imu_link,0.0020806717220693827,0.0006305589340627193,0.12710757553577423,0.9918866157531738,0.0,0.0,0.0,0.0,0.0,0.0,0.0,0.0,0.0,14.605085372924805,0.041364554315805435,0.2456781268119812,0.0,0.0,0.0,0.0,0.0,0.0,0.0,0.0,0.0,-0.004667289555072784,0.005529514979571104,0.351995587348938,0.0,0.0,0.0,0.0,0.0,0.0,0.0,0.0,0.0
1606828467379597652,2323891,1606828467368776142,imu_link,0.0020802090875804424,0.0006323055131360888,0.127110093832016,0.9918862581253052,0.0,0.0,0.0,0.0,0.0,0.0,0.0,0.0,0.0,14.605377197265625,0.04156918451189995,0.24565109610557556,0.0,0.0,0.0,0.0,0.0,0.0,0.0,0.0,0.0,0.006056190002709627,0.00794006697833538,0.35792776942253113,0.0,0.0,0.0,0.0,0.0,0.0,0.0,0.0,0.0
1606828467381052291,2323892,1606828467368872574,imu_link,0.0020802090875804424,0.0006323055131360888,0.127110093832016,0.9918862581253052,0.0,0.0,0.0,0.0,0.0,0.0,0.0,0.0,0.0,14.605377197265625,0.04156918451189995,0.24565109610557556,0.0,0.0,0.0,0.0,0.0,0.0,0.0,0.0,0.0,0.006056190002709627,0.00794006697833538,0.35792776942253113,0.0,0.0,0.0,0.0,0.0,0.0,0.0,0.0,0.0
1606828467381062835,2323893,1606828467368956924,imu_link,0.0020783955696970224,0.0006329124444164336,0.12712037563323975,0.9918849468231201,0.0,0.0,0.0,0.0,0.0,0.0,0.0,0.0,0.0,14.606565475463867,0.04166204109787941,0.24545422196388245,0.0,0.0,0.0,0.0,0.0,0.0,0.0,0.0,0.0,0.0014661557506769896,-0.007032065652310848,0.34870073199272156,0.0,0.0,0.0,0.0,0.0,0.0,0.0,0.0,0.0
1606828467381075904,2323894,1606828467369034578,imu_link,0.0020783955696970224,0.0006329124444164336,0.12712037563323975,0.9918849468231201,0.0,0.0,0.0,0.0,0.0,0.0,0.0,0.0,0.0,14.606565475463867,0.04166204109787941,0.24545422196388245,0.0,0.0,0.0,0.0,0.0,0.0,0.0,0.0,0.0,0.0014661557506769896,-0.007032065652310848,0.34870073199272156,0.0,0.0,0.0,0.0,0.0,0.0,0.0,0.0,0.0
1606828467381080838,2323895,1606828467369150320,imu_link,0.0020792847499251366,0.000633043295238167,0.12712088227272034,0.9918848872184753,0.0,0.0,0.0,0.0,0.0,0.0,0.0,0.0,0.0,14.606621742248535,0.04166383296251297,0.24555721879005432,0.0,0.0,0.0,0.0,0.0,0.0,0.0,0.0,0.0,-0.0030925245955586433,-0.0002877685474231839,0.34651413559913635,0.0,0.0,0.0,0.0,0.0,0.0,0.0,0.0,0.0
1606828467381087327,2323896,1606828467369233362,imu_link,0.0020792847499251366,0.000633043295238167,0.12712088227272034,0.9918848872184753,0.0,0.0,0.0,0.0,0.0,0.0,0.0,0.0,0.0,14.606621742248535,0.04166383296251297,0.24555721879005432,0.0,0.0,0.0,0.0,0.0,0.0,0.0,0.0,0.0,-0.0030925245955586433,-0.0002877685474231839,0.34651413559913635,0.0,0.0,0.0,0.0,0.0,0.0,0.0,0.0,0.0
1606828467381095493,2323897,1606828467369316268,imu_link,0.0020786775276064873,0.0006325433496385813,0.12712790071964264,0.9918839931488037,0.0,0.0,0.0,0.0,0.0,0.0,0.0,0.0,0.0,14.60743236541748,0.041614118963479996,0.2454812079668045,0.0,0.0,0.0,0.0,0.0,0.0,0.0,0.0,0.0,0.015343643724918365,-0.004877418279647827,0.358499675989151,0.0,0.0,0.0,0.0,0.0,0.0,0.0,0.0,0.0
1606828467390200764,2323898,1606828467381266283,imu_link,0.0020786775276064873,0.0006325433496385813,0.12712790071964264,0.9918839931488037,0.0,0.0,0.0,0.0,0.0,0.0,0.0,0.0,0.0,14.60743236541748,0.041614118963479996,0.2454812079668045,0.0,0.0,0.0,0.0,0.0,0.0,0.0,0.0,0.0,0.015343643724918365,-0.004877418279647827,0.358499675989151,0.0,0.0,0.0,0.0,0.0,0.0,0.0,0.0,0.0
1606828467391098098,2323899,1606828467381368573,imu_link,0.0020764381624758244,0.0006325248978100717,0.12712687253952026,0.9918841123580933,0.0,0.0,0.0,0.0,0.0,0.0,0.0,0.0,0.0,14.607316970825195,0.04164489731192589,0.24522638320922852,0.0,0.0,0.0,0.0,0.0,0.0,0.0,0.0,0.0,0.005634946748614311,-0.009525233879685402,0.34912824630737305,0.0,0.0,0.0,0.0,0.0,0.0,0.0,0.0,0.0
1606828467391114491,2323900,1606828467381509881,imu_link,0.0020764381624758244,0.0006325248978100717,0.12712687253952026,0.9918841123580933,0.0,0.0,0.0,0.0,0.0,0.0,0.0,0.0,0.0,14.607316970825195,0.04164489731192589,0.24522638320922852,0.0,0.0,0.0,0.0,0.0,0.0,0.0,0.0,0.0,0.005634946748614311,-0.009525233879685402,0.34912824630737305,0.0,0.0,0.0,0.0,0.0,0.0,0.0,0.0,0.0
1606828467391129488,2323901,1606828467381580961,imu_link,0.0020783194340765476,0.0006320031825453043,0.1271316409111023,0.9918835163116455,0.0,0.0,0.0,0.0,0.0,0.0,0.0,0.0,0.0,14.607866287231445,0.04155701398849487,0.2454328089952469,0.0,0.0,0.0,0.0,0.0,0.0,0.0,0.0,0.0,0.011057847179472446,0.005010055843740702,0.365144282579422,0.0,0.0,0.0,0.0,0.0,0.0,0.0,0.0,0.0
1606828467391154210,2323902,1606828467381634977,imu_link,0.0020783194340765476,0.0006320031825453043,0.1271316409111023,0.9918835163116455,0.0,0.0,0.0,0.0,0.0,0.0,0.0,0.0,0.0,14.607866287231445,0.04155701398849487,0.2454328089952469,0.0,0.0,0.0,0.0,0.0,0.0,0.0,0.0,0.0,0.011057847179472446,0.005010055843740702,0.365144282579422,0.0,0.0,0.0,0.0,0.0,0.0,0.0,0.0,0.0
1606828467391236804,2323903,1606828467381715082,imu_link,0.002077951095998287,0.0006316056242212653,0.12713174521923065,0.9918834567070007,0.0,0.0,0.0,0.0,0.0,0.0,0.0,0.0,0.0,14.607878684997559,0.041517164558172226,0.24538518488407135,0.0,0.0,0.0,0.0,0.0,0.0,0.0,0.0,0.0,0.004219060763716698,0.014711236581206322,0.37944209575653076,0.0,0.0,0.0,0.0,0.0,0.0,0.0,0.0,0.0
1606828467391251744,2323904,1606828467381776267,imu_link,0.002077951095998287,0.0006316056242212653,0.12713174521923065,0.9918834567070007,0.0,0.0,0.0,0.0,0.0,0.0,0.0,0.0,0.0,14.607878684997559,0.041517164558172226,0.24538518488407135,0.0,0.0,0.0,0.0,0.0,0.0,0.0,0.0,0.0,0.004219060763716698,0.014711236581206322,0.37944209575653076,0.0,0.0,0.0,0.0,0.0,0.0,0.0,0.0,0.0
1606828467391259505,2323905,1606828467381833592,imu_link,0.0020768404938280582,0.0006308716256171465,0.12711554765701294,0.9918855428695679,0.0,0.0,0.0,0.0,0.0,0.0,0.0,0.0,0.0,14.606006622314453,0.041453924030065536,0.24524755775928497,0.0,0.0,0.0,0.0,0.0,0.0,0.0,0.0,0.0,-0.004765610676258802,0.018372956663370132,0.3709321916103363,0.0,0.0,0.0,0.0,0.0,0.0,0.0,0.0,0.0
1606828467391268212,2323906,1606828467381914776,imu_link,0.0020768404938280582,0.0006308716256171465,0.12711554765701294,0.9918855428695679,0.0,0.0,0.0,0.0,0.0,0.0,0.0,0.0,0.0,14.606006622314453,0.041453924030065536,0.24524755775928497,0.0,0.0,0.0,0.0,0.0,0.0,0.0,0.0,0.0,-0.004765610676258802,0.018372956663370132,0.3709321916103363,0.0,0.0,0.0,0.0,0.0,0.0,0.0,0.0,0.0
1606828467391888179,2323907,1606828467381979598,imu_link,0.0020770933479070663,0.0006300595123320818,0.1271163821220398,0.9918854236602783,0.0,0.0,0.0,0.0,0.0,0.0,0.0,0.0,0.0,14.606103897094727,0.041357725858688354,0.24526450037956238,0.0,0.0,0.0,0.0,0.0,0.0,0.0,0.0,0.0,0.007914022542536259,0.008428649976849556,0.365313321352005,0.0,0.0,0.0,0.0,0.0,0.0,0.0,0.0,0.0
1606828467404187640,2323908,1606828467395126990,imu_link,0.0020770933479070663,0.0006300595123320818,0.1271163821220398,0.9918854236602783,0.0,0.0,0.0,0.0,0.0,0.0,0.0,0.0,0.0,14.606103897094727,0.041357725858688354,0.24526450037956238,0.0,0.0,0.0,0.0,0.0,0.0,0.0,0.0,0.0,0.007914022542536259,0.008428649976849556,0.365313321352005,0.0,0.0,0.0,0.0,0.0,0.0,0.0,0.0,0.0
1606828467406169888,2323909,1606828467395235120,imu_link,0.0020751175470650196,0.0006284819100983441,0.1271066963672638,0.9918867349624634,0.0,0.0,0.0,0.0,0.0,0.0,0.0,0.0,0.0,14.604986190795898,0.041209593415260315,0.24501651525497437,0.0,0.0,0.0,0.0,0.0,0.0,0.0,0.0,0.0,0.003530869260430336,0.025653274729847908,0.3453865647315979,0.0,0.0,0.0,0.0,0.0,0.0,0.0,0.0,0.0
1606828467406192492,2323910,1606828467395356895,imu_link,0.0020751175470650196,0.0006284819100983441,0.1271066963672638,0.9918867349624634,0.0,0.0,0.0,0.0,0.0,0.0,0.0,0.0,0.0,14.604986190795898,0.041209593415260315,0.24501651525497437,0.0,0.0,0.0,0.0,0.0,0.0,0.0,0.0,0.0,0.003530869260430336,0.025653274729847908,0.3453865647315979,0.0,0.0,0.0,0.0,0.0,0.0,0.0,0.0,0.0
1606828467406221634,2323911,1606828467395417165,imu_link,0.002075397642329335,0.0006283344118855894,0.12710775434970856,0.991886556148529,0.0,0.0,0.0,0.0,0.0,0.0,0.0,0.0,0.0,14.605107307434082,0.04118848592042923,0.24504628777503967,0.0,0.0,0.0,0.0,0.0,0.0,0.0,0.0,0.0,0.0024903255980461836,0.04557812958955765,0.345636248588562,0.0,0.0,0.0,0.0,0.0,0.0,0.0,0.0,0.0
1606828467406234504,2323912,1606828467395476185,imu_link,0.002075397642329335,0.0006283344118855894,0.12710775434970856,0.991886556148529,0.0,0.0,0.0,0.0,0.0,0.0,0.0,0.0,0.0,14.605107307434082,0.04118848592042923,0.24504628777503967,0.0,0.0,0.0,0.0,0.0,0.0,0.0,0.0,0.0,0.0024903255980461836,0.04557812958955765,0.345636248588562,0.0,0.0,0.0,0.0,0.0,0.0,0.0,0.0,0.0
1606828467406258238,2323913,1606828467395532785,imu_link,0.0020701466128230095,0.0006300256354734302,0.12709827721118927,0.9918878078460693,0.0,0.0,0.0,0.0,0.0,0.0,0.0,0.0,0.0,14.604012489318848,0.04145953431725502,0.2444736361503601,0.0,0.0,0.0,0.0,0.0,0.0,0.0,0.0,0.0,-0.00023293757112696767,0.014037858694791794,0.3440393805503845,0.0,0.0,0.0,0.0,0.0,0.0,0.0,0.0,0.0
1606828467406275041,2323914,1606828467395600206,imu_link,0.0020701466128230095,0.0006300256354734302,0.12709827721118927,0.9918878078460693,0.0,0.0,0.0,0.0,0.0,0.0,0.0,0.0,0.0,14.604012489318848,0.04145953431725502,0.2444736361503601,0.0,0.0,0.0,0.0,0.0,0.0,0.0,0.0,0.0,-0.00023293757112696767,0.014037858694791794,0.3440393805503845,0.0,0.0,0.0,0.0,0.0,0.0,0.0,0.0,0.0
1606828467406285482,2323915,1606828467395653871,imu_link,0.002070697257295251,0.0006298147491179407,0.12709951400756836,0.991887629032135,0.0,0.0,0.0,0.0,0.0,0.0,0.0,0.0,0.0,14.604155540466309,0.041427236050367355,0.2445332258939743,0.0,0.0,0.0,0.0,0.0,0.0,0.0,0.0,0.0,0.0004090630100108683,0.004740141797810793,0.3247549831867218,0.0,0.0,0.0,0.0,0.0,0.0,0.0,0.0,0.0
1606828467406297533,2323916,1606828467395719842,imu_link,0.002070697257295251,0.0006298147491179407,0.12709951400756836,0.991887629032135,0.0,0.0,0.0,0.0,0.0,0.0,0.0,0.0,0.0,14.604155540466309,0.041427236050367355,0.2445332258939743,0.0,0.0,0.0,0.0,0.0,0.0,0.0,0.0,0.0,0.0004090630100108683,0.004740141797810793,0.3247549831867218,0.0,0.0,0.0,0.0,0.0,0.0,0.0,0.0,0.0
1606828467409002071,2323917,1606828467395783155,imu_link,0.0020708220545202494,0.0006282845861278474,0.12709510326385498,0.991888165473938,0.0,0.0,0.0,0.0,0.0,0.0,0.0,0.0,0.0,14.603643417358398,0.041252583265304565,0.24452492594718933,0.0,0.0,0.0,0.0,0.0,0.0,0.0,0.0,0.0,0.008495043031871319,0.0009053549729287624,0.34391188621520996,0.0,0.0,0.0,0.0,0.0,0.0,0.0,0.0,0.0
1606828467409021350,2323918,1606828467395844114,imu_link,0.0020708220545202494,0.0006282845861278474,0.12709510326385498,0.991888165473938,0.0,0.0,0.0,0.0,0.0,0.0,0.0,0.0,0.0,14.603643417358398,0.041252583265304565,0.24452492594718933,0.0,0.0,0.0,0.0,0.0,0.0,0.0,0.0,0.0,0.008495043031871319,0.0009053549729287624,0.34391188621520996,0.0,0.0,0.0,0.0,0.0,0.0,0.0,0.0,0.0
1606828467417455983,2323919,1606828467408403704,imu_link,0.0020723403431475163,0.0006277859210968018,0.12709517776966095,0.991888165473938,0.0,0.0,0.0,0.0,0.0,0.0,0.0,0.0,0.0,14.603652000427246,0.0411737784743309,0.24469025433063507,0.0,0.0,0.0,0.0,0.0,0.0,0.0,0.0,0.0,0.019759563729166985,-0.004821241833269596,0.347283273935318,0.0,0.0,0.0,0.0,0.0,0.0,0.0,0.0,0.0
1606828467418219533,2323920,1606828467408583300,imu_link,0.0020723403431475163,0.0006277859210968018,0.12709517776966095,0.991888165473938,0.0,0.0,0.0,0.0,0.0,0.0,0.0,0.0,0.0,14.603652000427246,0.0411737784743309,0.24469025433063507,0.0,0.0,0.0,0.0,0.0,0.0,0.0,0.0,0.0,0.019759563729166985,-0.004821241833269596,0.347283273935318,0.0,0.0,0.0,0.0,0.0,0.0,0.0,0.0,0.0
1606828467418248091,2323921,1606828467408715428,imu_link,0.0020716211292892694,0.0006309653981588781,0.12709426879882812,0.9918882846832275,0.0,0.0,0.0,0.0,0.0,0.0,0.0,0.0,0.0,14.60354995727539,0.04154586046934128,0.24465477466583252,0.0,0.0,0.0,0.0,0.0,0.0,0.0,0.0,0.0,0.019631797447800636,-0.008166677318513393,0.31506213545799255,0.0,0.0,0.0,0.0,0.0,0.0,0.0,0.0,0.0
1606828467418290388,2323922,1606828467408814973,imu_link,0.0020716211292892694,0.0006309653981588781,0.12709426879882812,0.9918882846832275,0.0,0.0,0.0,0.0,0.0,0.0,0.0,0.0,0.0,14.60354995727539,0.04154586046934128,0.24465477466583252,0.0,0.0,0.0,0.0,0.0,0.0,0.0,0.0,0.0,0.019631797447800636,-0.008166677318513393,0.31506213545799255,0.0,0.0,0.0,0.0,0.0,0.0,0.0,0.0,0.0
1606828467418303656,2323923,1606828467408891791,imu_link,0.0020713922567665577,0.0006302791880443692,0.12709356844425201,0.9918884038925171,0.0,0.0,0.0,0.0,0.0,0.0,0.0,0.0,0.0,14.60346794128418,0.04147137701511383,0.2446187287569046,0.0,0.0,0.0,0.0,0.0,0.0,0.0,0.0,0.0,0.02042640559375286,-0.021131297573447227,0.3287690579891205,0.0,0.0,0.0,0.0,0.0,0.0,0.0,0.0,0.0
1606828467419443812,2323924,1606828467408968772,imu_link,0.0020713922567665577,0.0006302791880443692,0.12709356844425201,0.9918884038925171,0.0,0.0,0.0,0.0,0.0,0.0,0.0,0.0,0.0,14.60346794128418,0.04147137701511383,0.2446187287569046,0.0,0.0,0.0,0.0,0.0,0.0,0.0,0.0,0.0,0.02042640559375286,-0.021131297573447227,0.3287690579891205,0.0,0.0,0.0,0.0,0.0,0.0,0.0,0.0,0.0
1606828467419480960,2323925,1606828467409058455,imu_link,0.0020741710904985666,0.0006336343940347433,0.12709379196166992,0.9918883442878723,0.0,0.0,0.0,0.0,0.0,0.0,0.0,0.0,0.0,14.603495597839355,0.04181220009922981,0.24498344957828522,0.0,0.0,0.0,0.0,0.0,0.0,0.0,0.0,0.0,0.020455768331885338,-0.007776718586683273,0.34178629517555237,0.0,0.0,0.0,0.0,0.0,0.0,0.0,0.0,0.0
1606828467419500600,2323926,1606828467409139865,imu_link,0.0020741710904985666,0.0006336343940347433,0.12709379196166992,0.9918883442878723,0.0,0.0,0.0,0.0,0.0,0.0,0.0,0.0,0.0,14.603495597839355,0.04181220009922981,0.24498344957828522,0.0,0.0,0.0,0.0,0.0,0.0,0.0,0.0,0.0,0.020455768331885338,-0.007776718586683273,0.34178629517555237,0.0,0.0,0.0,0.0,0.0,0.0,0.0,0.0,0.0
1606828467419520766,2323927,1606828467409210427,imu_link,0.0020733210258185863,0.000633931893389672,0.12709473073482513,0.9918882250785828,0.0,0.0,0.0,0.0,0.0,0.0,0.0,0.0,0.0,14.603604316711426,0.04185817018151283,0.2448912113904953,0.0,0.0,0.0,0.0,0.0,0.0,0.0,0.0,0.0,0.003887816797941923,0.016743145883083344,0.34779301285743713,0.0,0.0,0.0,0.0,0.0,0.0,0.0,0.0,0.0
1606828467419537559,2323928,1606828467409283387,imu_link,0.0020733210258185863,0.000633931893389672,0.12709473073482513,0.9918882250785828,0.0,0.0,0.0,0.0,0.0,0.0,0.0,0.0,0.0,14.603604316711426,0.04185817018151283,0.2448912113904953,0.0,0.0,0.0,0.0,0.0,0.0,0.0,0.0,0.0,0.003887816797941923,0.016743145883083344,0.34779301285743713,0.0,0.0,0.0,0.0,0.0,0.0,0.0,0.0,0.0
1606828467419550245,2323929,1606828467409351420,imu_link,0.00206999690271914,0.0006347160669974983,0.12710967659950256,0.99188631772995,0.0,0.0,0.0,0.0,0.0,0.0,0.0,0.0,0.0,14.605330467224121,0.041992027312517166,0.24452544748783112,0.0,0.0,0.0,0.0,0.0,0.0,0.0,0.0,0.0,-0.007784683723002672,0.009591624140739441,0.3599449694156647,0.0,0.0,0.0,0.0,0.0,0.0,0.0,0.0,0.0
1606828467431225030,2323930,1606828467422253434,imu_link,0.00206999690271914,0.0006347160669974983,0.12710967659950256,0.99188631772995,0.0,0.0,0.0,0.0,0.0,0.0,0.0,0.0,0.0,14.605330467224121,0.041992027312517166,0.24452544748783112,0.0,0.0,0.0,0.0,0.0,0.0,0.0,0.0,0.0,-0.007784683723002672,0.009591624140739441,0.3599449694156647,0.0,0.0,0.0,0.0,0.0,0.0,0.0,0.0,0.0
1606828467432674376,2323931,1606828467422355389,imu_link,0.002069959184154868,0.0006345286965370178,0.12711012363433838,0.9918862581253052,0.0,0.0,0.0,0.0,0.0,0.0,0.0,0.0,0.0,14.605381965637207,0.04197116568684578,0.2445184588432312,0.0,0.0,0.0,0.0,0.0,0.0,0.0,0.0,0.0,-0.009204156696796417,0.0019712592475116253,0.35398539900779724,0.0,0.0,0.0,0.0,0.0,0.0,0.0,0.0,0.0
1606828467432690950,2323932,1606828467422471621,imu_link,0.002069959184154868,0.0006345286965370178,0.12711012363433838,0.9918862581253052,0.0,0.0,0.0,0.0,0.0,0.0,0.0,0.0,0.0,14.605381965637207,0.04197116568684578,0.2445184588432312,0.0,0.0,0.0,0.0,0.0,0.0,0.0,0.0,0.0,-0.009204156696796417,0.0019712592475116253,0.35398539900779724,0.0,0.0,0.0,0.0,0.0,0.0,0.0,0.0,0.0
1606828467432699987,2323933,1606828467422535496,imu_link,0.0020704995840787888,0.0006330999312922359,0.12711971998214722,0.9918850064277649,0.0,0.0,0.0,0.0,0.0,0.0,0.0,0.0,0.0,14.606490135192871,0.041798535734415054,0.24455946683883667,0.0,0.0,0.0,0.0,0.0,0.0,0.0,0.0,0.0,-0.013510605320334435,0.019034672528505325,0.34429726004600525,0.0,0.0,0.0,0.0,0.0,0.0,0.0,0.0,0.0
1606828467432712808,2323934,1606828467422591177,imu_link,0.0020704995840787888,0.0006330999312922359,0.12711971998214722,0.9918850064277649,0.0,0.0,0.0,0.0,0.0,0.0,0.0,0.0,0.0,14.606490135192871,0.041798535734415054,0.24455946683883667,0.0,0.0,0.0,0.0,0.0,0.0,0.0,0.0,0.0,-0.013510605320334435,0.019034672528505325,0.34429726004600525,0.0,0.0,0.0,0.0,0.0,0.0,0.0,0.0,0.0
1606828467432720299,2323935,1606828467422644176,imu_link,0.002070404589176178,0.0006307902513071895,0.1271190643310547,0.9918851256370544,0.0,0.0,0.0,0.0,0.0,0.0,0.0,0.0,0.0,14.606413841247559,0.041537560522556305,0.24451497197151184,0.0,0.0,0.0,0.0,0.0,0.0,0.0,0.0,0.0,-0.00997412670403719,0.014929603785276413,0.3402194678783417,0.0,0.0,0.0,0.0,0.0,0.0,0.0,0.0,0.0
1606828467432727514,2323936,1606828467422741294,imu_link,0.002070404589176178,0.0006307902513071895,0.1271190643310547,0.9918851256370544,0.0,0.0,0.0,0.0,0.0,0.0,0.0,0.0,0.0,14.606413841247559,0.041537560522556305,0.24451497197151184,0.0,0.0,0.0,0.0,0.0,0.0,0.0,0.0,0.0,-0.00997412670403719,0.014929603785276413,0.3402194678783417,0.0,0.0,0.0,0.0,0.0,0.0,0.0,0.0,0.0
1606828467432739940,2323937,1606828467422828379,imu_link,0.002068811096251011,0.0006309472373686731,0.12712803483009338,0.9918839931488037,0.0,0.0,0.0,0.0,0.0,0.0,0.0,0.0,0.0,14.607451438903809,0.041576407849788666,0.24433650076389313,0.0,0.0,0.0,0.0,0.0,0.0,0.0,0.0,0.0,-0.002947143279016018,0.001373010454699397,0.32633957266807556,0.0,0.0,0.0,0.0,0.0,0.0,0.0,0.0,0.0
1606828467432755578,2323938,1606828467422891535,imu_link,0.002068811096251011,0.0006309472373686731,0.12712803483009338,0.9918839931488037,0.0,0.0,0.0,0.0,0.0,0.0,0.0,0.0,0.0,14.607451438903809,0.041576407849788666,0.24433650076389313,0.0,0.0,0.0,0.0,0.0,0.0,0.0,0.0,0.0,-0.002947143279016018,0.001373010454699397,0.32633957266807556,0.0,0.0,0.0,0.0,0.0,0.0,0.0,0.0,0.0
1606828467434435063,2323939,1606828467422948886,imu_link,0.0020686709322035313,0.0006281150854192674,0.1271279752254486,0.9918839931488037,0.0,0.0,0.0,0.0,0.0,0.0,0.0,0.0,0.0,14.607440948486328,0.041256558150053024,0.24427932500839233,0.0,0.0,0.0,0.0,0.0,0.0,0.0,0.0,0.0,-0.00820235162973404,0.015394310466945171,0.32056060433387756,0.0,0.0,0.0,0.0,0.0,0.0,0.0,0.0,0.0
1606828467434448932,2323940,1606828467423011635,imu_link,0.0020686709322035313,0.0006281150854192674,0.1271279752254486,0.9918839931488037,0.0,0.0,0.0,0.0,0.0,0.0,0.0,0.0,0.0,14.607440948486328,0.041256558150053024,0.24427932500839233,0.0,0.0,0.0,0.0,0.0,0.0,0.0,0.0,0.0,-0.00820235162973404,0.015394310466945171,0.32056060433387756,0.0,0.0,0.0,0.0,0.0,0.0,0.0,0.0,0.0
1606828467444339767,2323941,1606828467435229440,imu_link,0.002067581517621875,0.0006284065311774611,0.1271311193704605,0.9918836355209351,0.0,0.0,0.0,0.0,0.0,0.0,0.0,0.0,0.0,14.607803344726562,0.041304778307676315,0.24415990710258484,0.0,0.0,0.0,0.0,0.0,0.0,0.0,0.0,0.0,0.010517824441194534,0.024162091314792633,0.3335497975349426,0.0,0.0,0.0,0.0,0.0,0.0,0.0,0.0,0.0
1606828467444829509,2323942,1606828467435392825,imu_link,0.002067581517621875,0.0006284065311774611,0.1271311193704605,0.9918836355209351,0.0,0.0,0.0,0.0,0.0,0.0,0.0,0.0,0.0,14.607803344726562,0.041304778307676315,0.24415990710258484,0.0,0.0,0.0,0.0,0.0,0.0,0.0,0.0,0.0,0.010517824441194534,0.024162091314792633,0.3335497975349426,0.0,0.0,0.0,0.0,0.0,0.0,0.0,0.0,0.0
1606828467444842040,2323943,1606828467435477002,imu_link,0.0020688106305897236,0.0006284041446633637,0.1271313577890396,0.9918835759162903,0.0,0.0,0.0,0.0,0.0,0.0,0.0,0.0,0.0,14.607831954956055,0.041286543011665344,0.24429957568645477,0.0,0.0,0.0,0.0,0.0,0.0,0.0,0.0,0.0,0.0071437121368944645,0.010993595235049725,0.3508889377117157,0.0,0.0,0.0,0.0,0.0,0.0,0.0,0.0,0.0
1606828467444860040,2323944,1606828467435558840,imu_link,0.0020688106305897236,0.0006284041446633637,0.1271313577890396,0.9918835759162903,0.0,0.0,0.0,0.0,0.0,0.0,0.0,0.0,0.0,14.607831954956055,0.041286543011665344,0.24429957568645477,0.0,0.0,0.0,0.0,0.0,0.0,0.0,0.0,0.0,0.0071437121368944645,0.010993595235049725,0.3508889377117157,0.0,0.0,0.0,0.0,0.0,0.0,0.0,0.0,0.0
1606828467444869706,2323945,1606828467435630146,imu_link,0.002066003857180476,0.0006286257412284613,0.1271342784166336,0.9918832182884216,0.0,0.0,0.0,0.0,0.0,0.0,0.0,0.0,0.0,14.608168601989746,0.04135189950466156,0.24398386478424072,0.0,0.0,0.0,0.0,0.0,0.0,0.0,0.0,0.0,-0.023861277848482132,0.012374527752399445,0.3556062877178192,0.0,0.0,0.0,0.0,0.0,0.0,0.0,0.0,0.0
1606828467445591895,2323946,1606828467435717446,imu_link,0.002066003857180476,0.0006286257412284613,0.1271342784166336,0.9918832182884216,0.0,0.0,0.0,0.0,0.0,0.0,0.0,0.0,0.0,14.608168601989746,0.04135189950466156,0.24398386478424072,0.0,0.0,0.0,0.0,0.0,0.0,0.0,0.0,0.0,-0.023861277848482132,0.012374527752399445,0.3556062877178192,0.0,0.0,0.0,0.0,0.0,0.0,0.0,0.0,0.0
1606828467445605433,2323947,1606828467435797243,imu_link,0.002066217130050063,0.0006266773561947048,0.12713472545146942,0.9918831586837769,0.0,0.0,0.0,0.0,0.0,0.0,0.0,0.0,0.0,14.608222007751465,0.04112722724676132,0.24397976696491241,0.0,0.0,0.0,0.0,0.0,0.0,0.0,0.0,0.0,-0.012642327696084976,0.0074573238380253315,0.3412471413612366,0.0,0.0,0.0,0.0,0.0,0.0,0.0,0.0,0.0
1606828467445618833,2323948,1606828467435863186,imu_link,0.002066217130050063,0.0006266773561947048,0.12713472545146942,0.9918831586837769,0.0,0.0,0.0,0.0,0.0,0.0,0.0,0.0,0.0,14.608222007751465,0.04112722724676132,0.24397976696491241,0.0,0.0,0.0,0.0,0.0,0.0,0.0,0.0,0.0,-0.012642327696084976,0.0074573238380253315,0.3412471413612366,0.0,0.0,0.0,0.0,0.0,0.0,0.0,0.0,0.0
1606828467445625855,2323949,1606828467435941234,imu_link,0.0020655530970543623,0.0006246402626857162,0.1271377056837082,0.9918828010559082,0.0,0.0,0.0,0.0,0.0,0.0,0.0,0.0,0.0,14.608566284179688,0.04090462997555733,0.2438747137784958,0.0,0.0,0.0,0.0,0.0,0.0,0.0,0.0,0.0,-0.0010354636469855905,0.0029099569655954838,0.3318839371204376,0.0,0.0,0.0,0.0,0.0,0.0,0.0,0.0,0.0
1606828467448142055,2323950,1606828467436016933,imu_link,0.0020655530970543623,0.0006246402626857162,0.1271377056837082,0.9918828010559082,0.0,0.0,0.0,0.0,0.0,0.0,0.0,0.0,0.0,14.608566284179688,0.04090462997555733,0.2438747137784958,0.0,0.0,0.0,0.0,0.0,0.0,0.0,0.0,0.0,-0.0010354636469855905,0.0029099569655954838,0.3318839371204376,0.0,0.0,0.0,0.0,0.0,0.0,0.0,0.0,0.0
1606828467448155795,2323951,1606828467436093041,imu_link,0.0020645044278353453,0.0006244097603484988,0.12713858485221863,0.9918826818466187,0.0,0.0,0.0,0.0,0.0,0.0,0.0,0.0,0.0,14.608667373657227,0.040893495082855225,0.24375222623348236,0.0,0.0,0.0,0.0,0.0,0.0,0.0,0.0,0.0,-0.007370923645794392,0.010086402297019958,0.34830087423324585,0.0,0.0,0.0,0.0,0.0,0.0,0.0,0.0,0.0
1606828467457829460,2323952,1606828467448698458,imu_link,0.0020645044278353453,0.0006244097603484988,0.12713858485221863,0.9918826818466187,0.0,0.0,0.0,0.0,0.0,0.0,0.0,0.0,0.0,14.608667373657227,0.040893495082855225,0.24375222623348236,0.0,0.0,0.0,0.0,0.0,0.0,0.0,0.0,0.0,-0.007370923645794392,0.010086402297019958,0.34830087423324585,0.0,0.0,0.0,0.0,0.0,0.0,0.0,0.0,0.0
1606828467458479147,2323953,1606828467448818285,imu_link,0.002062662038952112,0.0006245740805752575,0.12712550163269043,0.9918843507766724,0.0,0.0,0.0,0.0,0.0,0.0,0.0,0.0,0.0,14.607152938842773,0.040942221879959106,0.24354465305805206,0.0,0.0,0.0,0.0,0.0,0.0,0.0,0.0,0.0,-0.012443115934729576,0.0033458545804023743,0.3390589952468872,0.0,0.0,0.0,0.0,0.0,0.0,0.0,0.0,0.0
1606828467458495856,2323954,1606828467448984291,imu_link,0.002062662038952112,0.0006245740805752575,0.12712550163269043,0.9918843507766724,0.0,0.0,0.0,0.0,0.0,0.0,0.0,0.0,0.0,14.607152938842773,0.040942221879959106,0.24354465305805206,0.0,0.0,0.0,0.0,0.0,0.0,0.0,0.0,0.0,-0.012443115934729576,0.0033458545804023743,0.3390589952468872,0.0,0.0,0.0,0.0,0.0,0.0,0.0,0.0,0.0
1606828467458501486,2323955,1606828467449073087,imu_link,0.002063547959551215,0.0006239257054403424,0.1271251142024994,0.9918844103813171,0.0,0.0,0.0,0.0,0.0,0.0,0.0,0.0,0.0,14.607108116149902,0.04085571691393852,0.24363590776920319,0.0,0.0,0.0,0.0,0.0,0.0,0.0,0.0,0.0,-0.01515754871070385,0.010308448225259781,0.3203218877315521,0.0,0.0,0.0,0.0,0.0,0.0,0.0,0.0,0.0
1606828467458512339,2323956,1606828467449142220,imu_link,0.002063547959551215,0.0006239257054403424,0.1271251142024994,0.9918844103813171,0.0,0.0,0.0,0.0,0.0,0.0,0.0,0.0,0.0,14.607108116149902,0.04085571691393852,0.24363590776920319,0.0,0.0,0.0,0.0,0.0,0.0,0.0,0.0,0.0,-0.01515754871070385,0.010308448225259781,0.3203218877315521,0.0,0.0,0.0,0.0,0.0,0.0,0.0,0.0,0.0
1606828467459604741,2323957,1606828467449233042,imu_link,0.00206326087936759,0.0006214720197021961,0.12711937725543976,0.9918851256370544,0.0,0.0,0.0,0.0,0.0,0.0,0.0,0.0,0.0,14.606446266174316,0.04058242216706276,0.24356728792190552,0.0,0.0,0.0,0.0,0.0,0.0,0.0,0.0,0.0,0.006142710335552692,0.004643027205020189,0.3529094159603119,0.0,0.0,0.0,0.0,0.0,0.0,0.0,0.0,0.0
1606828467459620502,2323958,1606828467449307450,imu_link,0.00206326087936759,0.0006214720197021961,0.12711937725543976,0.9918851256370544,0.0,0.0,0.0,0.0,0.0,0.0,0.0,0.0,0.0,14.606446266174316,0.04058242216706276,0.24356728792190552,0.0,0.0,0.0,0.0,0.0,0.0,0.0,0.0,0.0,0.006142710335552692,0.004643027205020189,0.3529094159603119,0.0,0.0,0.0,0.0,0.0,0.0,0.0,0.0,0.0
1606828467459657367,2323959,1606828467449383412,imu_link,0.0020637765992432833,0.0006220390205271542,0.1271211951971054,0.9918848872184753,0.0,0.0,0.0,0.0,0.0,0.0,0.0,0.0,0.0,14.606656074523926,0.04063890129327774,0.24363425374031067,0.0,0.0,0.0,0.0,0.0,0.0,0.0,0.0,0.0,0.008610990829765797,-0.013994608074426651,0.3576386868953705,0.0,0.0,0.0,0.0,0.0,0.0,0.0,0.0,0.0
1606828467459726742,2323960,1606828467449455338,imu_link,0.0020637765992432833,0.0006220390205271542,0.1271211951971054,0.9918848872184753,0.0,0.0,0.0,0.0,0.0,0.0,0.0,0.0,0.0,14.606656074523926,0.04063890129327774,0.24363425374031067,0.0,0.0,0.0,0.0,0.0,0.0,0.0,0.0,0.0,0.008610990829765797,-0.013994608074426651,0.3576386868953705,0.0,0.0,0.0,0.0,0.0,0.0,0.0,0.0,0.0
1606828467460282962,2323961,1606828467449526743,imu_link,0.002068599918857217,0.0006215976318344474,0.12711040675640106,0.9918862581253052,0.0,0.0,0.0,0.0,0.0,0.0,0.0,0.0,0.0,14.6054105758667,0.04052113741636276,0.24417562782764435,0.0,0.0,0.0,0.0,0.0,0.0,0.0,0.0,0.0,-0.0023153165820986032,-0.023009957745671272,0.33036741614341736,0.0,0.0,0.0,0.0,0.0,0.0,0.0,0.0,0.0
1606828467472863234,2323962,1606828467462456312,imu_link,0.002068599918857217,0.0006215976318344474,0.12711040675640106,0.9918862581253052,0.0,0.0,0.0,0.0,0.0,0.0,0.0,0.0,0.0,14.6054105758667,0.04052113741636276,0.24417562782764435,0.0,0.0,0.0,0.0,0.0,0.0,0.0,0.0,0.0,-0.0023153165820986032,-0.023009957745671272,0.33036741614341736,0.0,0.0,0.0,0.0,0.0,0.0,0.0,0.0,0.0
1606828467472888363,2323963,1606828467462578572,imu_link,0.0020668008364737034,0.0006217957707121968,0.12711074948310852,0.9918861985206604,0.0,0.0,0.0,0.0,0.0,0.0,0.0,0.0,0.0,14.605448722839355,0.04056977108120918,0.2439740002155304,0.0,0.0,0.0,0.0,0.0,0.0,0.0,0.0,0.0,-0.00026883429381996393,-0.025267597287893295,0.32228925824165344,0.0,0.0,0.0,0.0,0.0,0.0,0.0,0.0,0.0
1606828467472899228,2323964,1606828467462743985,imu_link,0.0020668008364737034,0.0006217957707121968,0.12711074948310852,0.9918861985206604,0.0,0.0,0.0,0.0,0.0,0.0,0.0,0.0,0.0,14.605448722839355,0.04056977108120918,0.2439740002155304,0.0,0.0,0.0,0.0,0.0,0.0,0.0,0.0,0.0,-0.00026883429381996393,-0.025267597287893295,0.32228925824165344,0.0,0.0,0.0,0.0,0.0,0.0,0.0,0.0,0.0
1606828467472974164,2323965,1606828467462832906,imu_link,0.0020734916906803846,0.0006219794158823788,0.1271003782749176,0.9918875098228455,0.0,0.0,0.0,0.0,0.0,0.0,0.0,0.0,0.0,14.604253768920898,0.040495745837688446,0.24473679065704346,0.0,0.0,0.0,0.0,0.0,0.0,0.0,0.0,0.0,-0.005360082723200321,-0.011458761058747768,0.30328401923179626,0.0,0.0,0.0,0.0,0.0,0.0,0.0,0.0,0.0
1606828467472984163,2323966,1606828467462898573,imu_link,0.0020734916906803846,0.0006219794158823788,0.1271003782749176,0.9918875098228455,0.0,0.0,0.0,0.0,0.0,0.0,0.0,0.0,0.0,14.604253768920898,0.040495745837688446,0.24473679065704346,0.0,0.0,0.0,0.0,0.0,0.0,0.0,0.0,0.0,-0.005360082723200321,-0.011458761058747768,0.30328401923179626,0.0,0.0,0.0,0.0,0.0,0.0,0.0,0.0,0.0
1606828467475600711,2323967,1606828467462975154,imu_link,0.002074735937640071,0.0006220248178578913,0.1271008998155594,0.9918874502182007,0.0,0.0,0.0,0.0,0.0,0.0,0.0,0.0,0.0,14.604312896728516,0.04048265516757965,0.244878888130188,0.0,0.0,0.0,0.0,0.0,0.0,0.0,0.0,0.0,0.006623841822147369,-0.0034482586197555065,0.3070434629917145,0.0,0.0,0.0,0.0,0.0,0.0,0.0,0.0,0.0
1606828467475623594,2323968,1606828467463075670,imu_link,0.002074735937640071,0.0006220248178578913,0.1271008998155594,0.9918874502182007,0.0,0.0,0.0,0.0,0.0,0.0,0.0,0.0,0.0,14.604312896728516,0.04048265516757965,0.244878888130188,0.0,0.0,0.0,0.0,0.0,0.0,0.0,0.0,0.0,0.006623841822147369,-0.0034482586197555065,0.3070434629917145,0.0,0.0,0.0,0.0,0.0,0.0,0.0,0.0,0.0
1606828467475652106,2323969,1606828467463154665,imu_link,0.0020738872699439526,0.0006226662662811577,0.12709467113018036,0.9918882846832275,0.0,0.0,0.0,0.0,0.0,0.0,0.0,0.0,0.0,14.603592872619629,0.04056946188211441,0.24479147791862488,0.0,0.0,0.0,0.0,0.0,0.0,0.0,0.0,0.0,0.0020920326933264732,-0.012026295065879822,0.33536794781684875,0.0,0.0,0.0,0.0,0.0,0.0,0.0,0.0,0.0
1606828467475665502,2323970,1606828467463223019,imu_link,0.0020738872699439526,0.0006226662662811577,0.12709467113018036,0.9918882846832275,0.0,0.0,0.0,0.0,0.0,0.0,0.0,0.0,0.0,14.603592872619629,0.04056946188211441,0.24479147791862488,0.0,0.0,0.0,0.0,0.0,0.0,0.0,0.0,0.0,0.0020920326933264732,-0.012026295065879822,0.33536794781684875,0.0,0.0,0.0,0.0,0.0,0.0,0.0,0.0,0.0
1606828467475677961,2323971,1606828467463323905,imu_link,0.0020754721481353045,0.0006213719607330859,0.1270948052406311,0.9918882250785828,0.0,0.0,0.0,0.0,0.0,0.0,0.0,0.0,0.0,14.603608131408691,0.040399231016635895,0.24495279788970947,0.0,0.0,0.0,0.0,0.0,0.0,0.0,0.0,0.0,0.003459366038441658,-0.007153237238526344,0.3381747901439667,0.0,0.0,0.0,0.0,0.0,0.0,0.0,0.0,0.0
1606828467475689700,2323972,1606828467463394598,imu_link,0.0020754721481353045,0.0006213719607330859,0.1270948052406311,0.9918882250785828,0.0,0.0,0.0,0.0,0.0,0.0,0.0,0.0,0.0,14.603608131408691,0.040399231016635895,0.24495279788970947,0.0,0.0,0.0,0.0,0.0,0.0,0.0,0.0,0.0,0.003459366038441658,-0.007153237238526344,0.3381747901439667,0.0,0.0,0.0,0.0,0.0,0.0,0.0,0.0,0.0
1606828467491392063,2323973,1606828467475899143,imu_link,0.002076822565868497,0.000622165622189641,0.12709000706672668,0.9918888211250305,0.0,0.0,0.0,0.0,0.0,0.0,0.0,0.0,0.0,14.603055000305176,0.04047096148133278,0.245117649435997,0.0,0.0,0.0,0.0,0.0,0.0,0.0,0.0,0.0,0.011899425648152828,0.015864690765738487,0.3240116536617279,0.0,0.0,0.0,0.0,0.0,0.0,0.0,0.0,0.0
1606828467491413096,2323974,1606828467476039888,imu_link,0.002076822565868497,0.000622165622189641,0.12709000706672668,0.9918888211250305,0.0,0.0,0.0,0.0,0.0,0.0,0.0,0.0,0.0,14.603055000305176,0.04047096148133278,0.245117649435997,0.0,0.0,0.0,0.0,0.0,0.0,0.0,0.0,0.0,0.011899425648152828,0.015864690765738487,0.3240116536617279,0.0,0.0,0.0,0.0,0.0,0.0,0.0,0.0,0.0
1606828467491426900,2323975,1606828467476196880,imu_link,0.002075986936688423,0.0006213881424628198,0.12708978354930878,0.9918888807296753,0.0,0.0,0.0,0.0,0.0,0.0,0.0,0.0,0.0,14.60302734375,0.04039481654763222,0.2450113296508789,0.0,0.0,0.0,0.0,0.0,0.0,0.0,0.0,0.0,-0.009861655533313751,0.003622329793870449,0.3254944682121277,0.0,0.0,0.0,0.0,0.0,0.0,0.0,0.0,0.0
1606828467491448206,2323976,1606828467476279471,imu_link,0.002075986936688423,0.0006213881424628198,0.12708978354930878,0.9918888807296753,0.0,0.0,0.0,0.0,0.0,0.0,0.0,0.0,0.0,14.60302734375,0.04039481654763222,0.2450113296508789,0.0,0.0,0.0,0.0,0.0,0.0,0.0,0.0,0.0,-0.009861655533313751,0.003622329793870449,0.3254944682121277,0.0,0.0,0.0,0.0,0.0,0.0,0.0,0.0,0.0
1606828467491460674,2323977,1606828467476354214,imu_link,0.00207557063549757,0.0006220918148756027,0.12710103392601013,0.9918874502182007,0.0,0.0,0.0,0.0,0.0,0.0,0.0,0.0,0.0,14.604328155517578,0.04047808051109314,0.24497473239898682,0.0,0.0,0.0,0.0,0.0,0.0,0.0,0.0,0.0,-0.0003498864243738353,-0.0019079586490988731,0.3339468240737915,0.0,0.0,0.0,0.0,0.0,0.0,0.0,0.0,0.0
1606828467494093161,2323978,1606828467476446612,imu_link,0.00207557063549757,0.0006220918148756027,0.12710103392601013,0.9918874502182007,0.0,0.0,0.0,0.0,0.0,0.0,0.0,0.0,0.0,14.604328155517578,0.04047808051109314,0.24497473239898682,0.0,0.0,0.0,0.0,0.0,0.0,0.0,0.0,0.0,-0.0003498864243738353,-0.0019079586490988731,0.3339468240737915,0.0,0.0,0.0,0.0,0.0,0.0,0.0,0.0,0.0
1606828467494134233,2323979,1606828467476553854,imu_link,0.002074518706649542,0.0006231230800040066,0.12710228562355042,0.9918872714042664,0.0,0.0,0.0,0.0,0.0,0.0,0.0,0.0,0.0,14.604474067687988,0.040610309690237045,0.24487024545669556,0.0,0.0,0.0,0.0,0.0,0.0,0.0,0.0,0.0,0.00670776329934597,0.004189363680779934,0.33898693323135376,0.0,0.0,0.0,0.0,0.0,0.0,0.0,0.0,0.0
1606828467494156211,2323980,1606828467476632040,imu_link,0.002074518706649542,0.0006231230800040066,0.12710228562355042,0.9918872714042664,0.0,0.0,0.0,0.0,0.0,0.0,0.0,0.0,0.0,14.604474067687988,0.040610309690237045,0.24487024545669556,0.0,0.0,0.0,0.0,0.0,0.0,0.0,0.0,0.0,0.00670776329934597,0.004189363680779934,0.33898693323135376,0.0,0.0,0.0,0.0,0.0,0.0,0.0,0.0,0.0
1606828467494175029,2323981,1606828467476720624,imu_link,0.0020728446543216705,0.000621677958406508,0.12711043655872345,0.9918862581253052,0.0,0.0,0.0,0.0,0.0,0.0,0.0,0.0,0.0,14.605414390563965,0.040468424558639526,0.24465923011302948,0.0,0.0,0.0,0.0,0.0,0.0,0.0,0.0,0.0,0.006621688138693571,-0.013352296315133572,0.3282546401023865,0.0,0.0,0.0,0.0,0.0,0.0,0.0,0.0,0.0
1606828467494189626,2323982,1606828467476809920,imu_link,0.0020728446543216705,0.000621677958406508,0.12711043655872345,0.9918862581253052,0.0,0.0,0.0,0.0,0.0,0.0,0.0,0.0,0.0,14.605414390563965,0.040468424558639526,0.24465923011302948,0.0,0.0,0.0,0.0,0.0,0.0,0.0,0.0,0.0,0.006621688138693571,-0.013352296315133572,0.3282546401023865,0.0,0.0,0.0,0.0,0.0,0.0,0.0,0.0,0.0
1606828467494215248,2323983,1606828467476892812,imu_link,0.002074651187285781,0.000621754617895931,0.1271114945411682,0.9918861389160156,0.0,0.0,0.0,0.0,0.0,0.0,0.0,0.0,0.0,14.605535507202148,0.0404505617916584,0.24486573040485382,0.0,0.0,0.0,0.0,0.0,0.0,0.0,0.0,0.0,-0.007109384518116713,-0.01273423247039318,0.31570619344711304,0.0,0.0,0.0,0.0,0.0,0.0,0.0,0.0,0.0
1606828467498711242,2323984,1606828467489722278,imu_link,0.002074651187285781,0.000621754617895931,0.1271114945411682,0.9918861389160156,0.0,0.0,0.0,0.0,0.0,0.0,0.0,0.0,0.0,14.605535507202148,0.0404505617916584,0.24486573040485382,0.0,0.0,0.0,0.0,0.0,0.0,0.0,0.0,0.0,-0.007109384518116713,-0.01273423247039318,0.31570619344711304,0.0,0.0,0.0,0.0,0.0,0.0,0.0,0.0,0.0
1606828467499444355,2323985,1606828467489851893,imu_link,0.002076253527775407,0.0006208748091012239,0.12712576985359192,0.9918842911720276,0.0,0.0,0.0,0.0,0.0,0.0,0.0,0.0,0.0,14.607187271118164,0.04032369703054428,0.24503560364246368,0.0,0.0,0.0,0.0,0.0,0.0,0.0,0.0,0.0,-0.03227187693119049,-0.01278514415025711,0.3066316246986389,0.0,0.0,0.0,0.0,0.0,0.0,0.0,0.0,0.0
1606828467499468188,2323986,1606828467489992280,imu_link,0.002076253527775407,0.0006208748091012239,0.12712576985359192,0.9918842911720276,0.0,0.0,0.0,0.0,0.0,0.0,0.0,0.0,0.0,14.607187271118164,0.04032369703054428,0.24503560364246368,0.0,0.0,0.0,0.0,0.0,0.0,0.0,0.0,0.0,-0.03227187693119049,-0.01278514415025711,0.3066316246986389,0.0,0.0,0.0,0.0,0.0,0.0,0.0,0.0,0.0
1606828467499475663,2323987,1606828467490071427,imu_link,0.002076556673273444,0.0006231599836610258,0.12712474167346954,0.9918844103813171,0.0,0.0,0.0,0.0,0.0,0.0,0.0,0.0,0.0,14.607067108154297,0.04057927057147026,0.24510329961776733,0.0,0.0,0.0,0.0,0.0,0.0,0.0,0.0,0.0,-0.0007236588862724602,0.0016022996278479695,0.31908172369003296,0.0,0.0,0.0,0.0,0.0,0.0,0.0,0.0,0.0
1606828467499491727,2323988,1606828467490140622,imu_link,0.002076556673273444,0.0006231599836610258,0.12712474167346954,0.9918844103813171,0.0,0.0,0.0,0.0,0.0,0.0,0.0,0.0,0.0,14.607067108154297,0.04057927057147026,0.24510329961776733,0.0,0.0,0.0,0.0,0.0,0.0,0.0,0.0,0.0,-0.0007236588862724602,0.0016022996278479695,0.31908172369003296,0.0,0.0,0.0,0.0,0.0,0.0,0.0,0.0,0.0
1606828467500810622,2323989,1606828467490234306,imu_link,0.0020786926615983248,0.0006208237609826028,0.12713761627674103,0.9918828010559082,0.0,0.0,0.0,0.0,0.0,0.0,0.0,0.0,0.0,14.60855484008789,0.040279436856508255,0.24531258642673492,0.0,0.0,0.0,0.0,0.0,0.0,0.0,0.0,0.0,0.02896944060921669,0.023287896066904068,0.36111775040626526,0.0,0.0,0.0,0.0,0.0,0.0,0.0,0.0,0.0
1606828467500854673,2323990,1606828467490312187,imu_link,0.0020786926615983248,0.0006208237609826028,0.12713761627674103,0.9918828010559082,0.0,0.0,0.0,0.0,0.0,0.0,0.0,0.0,0.0,14.60855484008789,0.040279436856508255,0.24531258642673492,0.0,0.0,0.0,0.0,0.0,0.0,0.0,0.0,0.0,0.02896944060921669,0.023287896066904068,0.36111775040626526,0.0,0.0,0.0,0.0,0.0,0.0,0.0,0.0,0.0
1606828467500904385,2323991,1606828467490383053,imu_link,0.0020782845094799995,0.0006224343087524176,0.12713664770126343,0.9918829202651978,0.0,0.0,0.0,0.0,0.0,0.0,0.0,0.0,0.0,14.608442306518555,0.04046867415308952,0.2452896386384964,0.0,0.0,0.0,0.0,0.0,0.0,0.0,0.0,0.0,0.02721910923719406,0.010559839196503162,0.3790317177772522,0.0,0.0,0.0,0.0,0.0,0.0,0.0,0.0,0.0
1606828467500946828,2323992,1606828467490495508,imu_link,0.0020782845094799995,0.0006224343087524176,0.12713664770126343,0.9918829202651978,0.0,0.0,0.0,0.0,0.0,0.0,0.0,0.0,0.0,14.608442306518555,0.04046867415308952,0.2452896386384964,0.0,0.0,0.0,0.0,0.0,0.0,0.0,0.0,0.0,0.02721910923719406,0.010559839196503162,0.3790317177772522,0.0,0.0,0.0,0.0,0.0,0.0,0.0,0.0,0.0
1606828467500969693,2323993,1606828467490580570,imu_link,0.002075366210192442,0.0006270906887948513,0.12714195251464844,0.9918821454048157,0.0,0.0,0.0,0.0,0.0,0.0,0.0,0.0,0.0,14.60905647277832,0.041039127856492996,0.24502597749233246,0.0,0.0,0.0,0.0,0.0,0.0,0.0,0.0,0.0,0.02454948052763939,-0.0012025809846818447,0.3758855164051056,0.0,0.0,0.0,0.0,0.0,0.0,0.0,0.0,0.0
1606828467501003231,2323994,1606828467490655744,imu_link,0.002075366210192442,0.0006270906887948513,0.12714195251464844,0.9918821454048157,0.0,0.0,0.0,0.0,0.0,0.0,0.0,0.0,0.0,14.60905647277832,0.041039127856492996,0.24502597749233246,0.0,0.0,0.0,0.0,0.0,0.0,0.0,0.0,0.0,0.02454948052763939,-0.0012025809846818447,0.3758855164051056,0.0,0.0,0.0,0.0,0.0,0.0,0.0,0.0,0.0
1606828467511606489,2323995,1606828467502634655,imu_link,0.0020760642364621162,0.0006271653692238033,0.12714268267154694,0.9918820261955261,0.0,0.0,0.0,0.0,0.0,0.0,0.0,0.0,0.0,14.609140396118164,0.041037265211343765,0.24510647356510162,0.0,0.0,0.0,0.0,0.0,0.0,0.0,0.0,0.0,0.002277776598930359,0.008846993558108807,0.3683353662490845,0.0,0.0,0.0,0.0,0.0,0.0,0.0,0.0,0.0
1606828467512391826,2323996,1606828467502761142,imu_link,0.0020760642364621162,0.0006271653692238033,0.12714268267154694,0.9918820261955261,0.0,0.0,0.0,0.0,0.0,0.0,0.0,0.0,0.0,14.609140396118164,0.041037265211343765,0.24510647356510162,0.0,0.0,0.0,0.0,0.0,0.0,0.0,0.0,0.0,0.002277776598930359,0.008846993558108807,0.3683353662490845,0.0,0.0,0.0,0.0,0.0,0.0,0.0,0.0,0.0
1606828467512404822,2323997,1606828467502933713,imu_link,0.0020728944800794125,0.0006267030839808285,0.127149298787117,0.991881251335144,0.0,0.0,0.0,0.0,0.0,0.0,0.0,0.0,0.0,14.609903335571289,0.041029274463653564,0.24473969638347626,0.0,0.0,0.0,0.0,0.0,0.0,0.0,0.0,0.0,-0.0146363889798522,0.00807526707649231,0.36061039566993713,0.0,0.0,0.0,0.0,0.0,0.0,0.0,0.0,0.0
1606828467512410931,2323998,1606828467503039611,imu_link,0.0020728944800794125,0.0006267030839808285,0.127149298787117,0.991881251335144,0.0,0.0,0.0,0.0,0.0,0.0,0.0,0.0,0.0,14.609903335571289,0.041029274463653564,0.24473969638347626,0.0,0.0,0.0,0.0,0.0,0.0,0.0,0.0,0.0,-0.0146363889798522,0.00807526707649231,0.36061039566993713,0.0,0.0,0.0,0.0,0.0,0.0,0.0,0.0,0.0
1606828467512418055,2323999,1606828467503110579,imu_link,0.002071934286504984,0.0006260580848902464,0.12715063989162445,0.9918810725212097,0.0,0.0,0.0,0.0,0.0,0.0,0.0,0.0,0.0,14.610060691833496,0.04096962511539459,0.24462123215198517,0.0,0.0,0.0,0.0,0.0,0.0,0.0,0.0,0.0,-0.005837894044816494,-0.007896484807133675,0.331585168838501,0.0,0.0,0.0,0.0,0.0,0.0,0.0,0.0,0.0
1606828467513088158,2324000,1606828467503212735,imu_link,0.002071934286504984,0.0006260580848902464,0.12715063989162445,0.9918810725212097,0.0,0.0,0.0,0.0,0.0,0.0,0.0,0.0,0.0,14.610060691833496,0.04096962511539459,0.24462123215198517,0.0,0.0,0.0,0.0,0.0,0.0,0.0,0.0,0.0,-0.005837894044816494,-0.007896484807133675,0.331585168838501,0.0,0.0,0.0,0.0,0.0,0.0,0.0,0.0,0.0
1606828467513104422,2324001,1606828467503313782,imu_link,0.0020744511857628822,0.0006266135605983436,0.12714725732803345,0.9918814897537231,0.0,0.0,0.0,0.0,0.0,0.0,0.0,0.0,0.0,14.609667778015137,0.04099692031741142,0.24491526186466217,0.0,0.0,0.0,0.0,0.0,0.0,0.0,0.0,0.0,0.0013808846706524491,-0.01944134570658207,0.32580795884132385,0.0,0.0,0.0,0.0,0.0,0.0,0.0,0.0,0.0
1606828467513112637,2324002,1606828467503384434,imu_link,0.0020744511857628822,0.0006266135605983436,0.12714725732803345,0.9918814897537231,0.0,0.0,0.0,0.0,0.0,0.0,0.0,0.0,0.0,14.609667778015137,0.04099692031741142,0.24491526186466217,0.0,0.0,0.0,0.0,0.0,0.0,0.0,0.0,0.0,0.0013808846706524491,-0.01944134570658207,0.32580795884132385,0.0,0.0,0.0,0.0,0.0,0.0,0.0,0.0,0.0
1606828467513123618,2324003,1606828467503454583,imu_link,0.002075780648738146,0.0006267867865972221,0.1271495670080185,0.9918811917304993,0.0,0.0,0.0,0.0,0.0,0.0,0.0,0.0,0.0,14.60993480682373,0.040996670722961426,0.2450689673423767,0.0,0.0,0.0,0.0,0.0,0.0,0.0,0.0,0.0,0.008094653487205505,-0.023042701184749603,0.32223761081695557,0.0,0.0,0.0,0.0,0.0,0.0,0.0,0.0,0.0
1606828467514249472,2324004,1606828467503519746,imu_link,0.002075780648738146,0.0006267867865972221,0.1271495670080185,0.9918811917304993,0.0,0.0,0.0,0.0,0.0,0.0,0.0,0.0,0.0,14.60993480682373,0.040996670722961426,0.2450689673423767,0.0,0.0,0.0,0.0,0.0,0.0,0.0,0.0,0.0,0.008094653487205505,-0.023042701184749603,0.32223761081695557,0.0,0.0,0.0,0.0,0.0,0.0,0.0,0.0,0.0
1606828467544667345,2324005,1606828467516052655,imu_link,0.0020805271342396736,0.00063022889662534,0.12714572250843048,0.9918816685676575,0.0,0.0,0.0,0.0,0.0,0.0,0.0,0.0,0.0,14.609492301940918,0.041319698095321655,0.2456584870815277,0.0,0.0,0.0,0.0,0.0,0.0,0.0,0.0,0.0,0.010848457925021648,-0.021964652463793755,0.3341209888458252,0.0,0.0,0.0,0.0,0.0,0.0,0.0,0.0,0.0
1606828467544697031,2324006,1606828467516210665,imu_link,0.0020805271342396736,0.00063022889662534,0.12714572250843048,0.9918816685676575,0.0,0.0,0.0,0.0,0.0,0.0,0.0,0.0,0.0,14.609492301940918,0.041319698095321655,0.2456584870815277,0.0,0.0,0.0,0.0,0.0,0.0,0.0,0.0,0.0,0.010848457925021648,-0.021964652463793755,0.3341209888458252,0.0,0.0,0.0,0.0,0.0,0.0,0.0,0.0,0.0
1606828467544713610,2324007,1606828467516353570,imu_link,0.002080835634842515,0.000631743751000613,0.1271437406539917,0.9918819665908813,0.0,0.0,0.0,0.0,0.0,0.0,0.0,0.0,0.0,14.60926342010498,0.04148787632584572,0.24571551382541656,0.0,0.0,0.0,0.0,0.0,0.0,0.0,0.0,0.0,0.0017238855361938477,-0.009240297600626945,0.33415624499320984,0.0,0.0,0.0,0.0,0.0,0.0,0.0,0.0,0.0
1606828467544723702,2324008,1606828467516437980,imu_link,0.002080835634842515,0.000631743751000613,0.1271437406539917,0.9918819665908813,0.0,0.0,0.0,0.0,0.0,0.0,0.0,0.0,0.0,14.60926342010498,0.04148787632584572,0.24571551382541656,0.0,0.0,0.0,0.0,0.0,0.0,0.0,0.0,0.0,0.0017238855361938477,-0.009240297600626945,0.33415624499320984,0.0,0.0,0.0,0.0,0.0,0.0,0.0,0.0,0.0
1606828467544735475,2324009,1606828467516515118,imu_link,0.002083532279357314,0.0006320217507891357,0.12713442742824554,0.9918831586837769,0.0,0.0,0.0,0.0,0.0,0.0,0.0,0.0,0.0,14.608187675476074,0.04148249328136444,0.2460256963968277,0.0,0.0,0.0,0.0,0.0,0.0,0.0,0.0,0.0,0.01403791457414627,0.003002625424414873,0.3190796971321106,0.0,0.0,0.0,0.0,0.0,0.0,0.0,0.0,0.0
1606828467544748395,2324010,1606828467516594285,imu_link,0.002083532279357314,0.0006320217507891357,0.12713442742824554,0.9918831586837769,0.0,0.0,0.0,0.0,0.0,0.0,0.0,0.0,0.0,14.608187675476074,0.04148249328136444,0.2460256963968277,0.0,0.0,0.0,0.0,0.0,0.0,0.0,0.0,0.0,0.01403791457414627,0.003002625424414873,0.3190796971321106,0.0,0.0,0.0,0.0,0.0,0.0,0.0,0.0,0.0
1606828467544775582,2324011,1606828467516705552,imu_link,0.002085085492581129,0.0006297559011727571,0.12713497877120972,0.9918830394744873,0.0,0.0,0.0,0.0,0.0,0.0,0.0,0.0,0.0,14.60825252532959,0.04120219126343727,0.24616923928260803,0.0,0.0,0.0,0.0,0.0,0.0,0.0,0.0,0.0,0.024821624159812927,0.004509738180786371,0.3474806547164917,0.0,0.0,0.0,0.0,0.0,0.0,0.0,0.0,0.0
1606828467544823101,2324012,1606828467516786329,imu_link,0.002085085492581129,0.0006297559011727571,0.12713497877120972,0.9918830394744873,0.0,0.0,0.0,0.0,0.0,0.0,0.0,0.0,0.0,14.60825252532959,0.04120219126343727,0.24616923928260803,0.0,0.0,0.0,0.0,0.0,0.0,0.0,0.0,0.0,0.024821624159812927,0.004509738180786371,0.3474806547164917,0.0,0.0,0.0,0.0,0.0,0.0,0.0,0.0,0.0
1606828467544831866,2324013,1606828467516878351,imu_link,0.0020841648802161217,0.0006320081884041429,0.1271282136440277,0.9918839335441589,0.0,0.0,0.0,0.0,0.0,0.0,0.0,0.0,0.0,14.607470512390137,0.041473276913166046,0.2460971474647522,0.0,0.0,0.0,0.0,0.0,0.0,0.0,0.0,0.0,0.00982592161744833,0.010609607212245464,0.3635743260383606,0.0,0.0,0.0,0.0,0.0,0.0,0.0,0.0,0.0
1606828467544849874,2324014,1606828467516963462,imu_link,0.0020841648802161217,0.0006320081884041429,0.1271282136440277,0.9918839335441589,0.0,0.0,0.0,0.0,0.0,0.0,0.0,0.0,0.0,14.607470512390137,0.041473276913166046,0.2460971474647522,0.0,0.0,0.0,0.0,0.0,0.0,0.0,0.0,0.0,0.00982592161744833,0.010609607212245464,0.3635743260383606,0.0,0.0,0.0,0.0,0.0,0.0,0.0,0.0,0.0
1606828467544853849,2324015,1606828467517043663,imu_link,0.0020832803566008806,0.0006332416087388992,0.1271272599697113,0.9918840527534485,0.0,0.0,0.0,0.0,0.0,0.0,0.0,0.0,0.0,14.60736083984375,0.041626594960689545,0.2460145354270935,0.0,0.0,0.0,0.0,0.0,0.0,0.0,0.0,0.0,0.005596329923719168,0.013542216271162033,0.33935993909835815,0.0,0.0,0.0,0.0,0.0,0.0,0.0,0.0,0.0
1606828467544915490,2324016,1606828467529866680,imu_link,0.0020832803566008806,0.0006332416087388992,0.1271272599697113,0.9918840527534485,0.0,0.0,0.0,0.0,0.0,0.0,0.0,0.0,0.0,14.60736083984375,0.041626594960689545,0.2460145354270935,0.0,0.0,0.0,0.0,0.0,0.0,0.0,0.0,0.0,0.005596329923719168,0.013542216271162033,0.33935993909835815,0.0,0.0,0.0,0.0,0.0,0.0,0.0,0.0,0.0
1606828467544922383,2324017,1606828467529993195,imu_link,0.0020828223787248135,0.0006328861927613616,0.1271243840456009,0.9918844103813171,0.0,0.0,0.0,0.0,0.0,0.0,0.0,0.0,0.0,14.607028007507324,0.04159357771277428,0.2459571808576584,0.0,0.0,0.0,0.0,0.0,0.0,0.0,0.0,0.0,0.006961699575185776,-0.004649466369301081,0.3142026662826538,0.0,0.0,0.0,0.0,0.0,0.0,0.0,0.0,0.0
1606828467544933580,2324018,1606828467530154879,imu_link,0.0020828223787248135,0.0006328861927613616,0.1271243840456009,0.9918844103813171,0.0,0.0,0.0,0.0,0.0,0.0,0.0,0.0,0.0,14.607028007507324,0.04159357771277428,0.2459571808576584,0.0,0.0,0.0,0.0,0.0,0.0,0.0,0.0,0.0,0.006961699575185776,-0.004649466369301081,0.3142026662826538,0.0,0.0,0.0,0.0,0.0,0.0,0.0,0.0,0.0
1606828467545361361,2324019,1606828467530237394,imu_link,0.0020833699963986874,0.0006322452099993825,0.1271224170923233,0.9918846487998962,0.0,0.0,0.0,0.0,0.0,0.0,0.0,0.0,0.0,14.60680103302002,0.04151323437690735,0.2460099756717682,0.0,0.0,0.0,0.0,0.0,0.0,0.0,0.0,0.0,-0.004027538932859898,-0.021190471947193146,0.3147597014904022,0.0,0.0,0.0,0.0,0.0,0.0,0.0,0.0,0.0
1606828467545372484,2324020,1606828467530316461,imu_link,0.0020833699963986874,0.0006322452099993825,0.1271224170923233,0.9918846487998962,0.0,0.0,0.0,0.0,0.0,0.0,0.0,0.0,0.0,14.60680103302002,0.04151323437690735,0.2460099756717682,0.0,0.0,0.0,0.0,0.0,0.0,0.0,0.0,0.0,-0.004027538932859898,-0.021190471947193146,0.3147597014904022,0.0,0.0,0.0,0.0,0.0,0.0,0.0,0.0,0.0
1606828467545393571,2324021,1606828467530388191,imu_link,0.002086589578539133,0.0006313046906143427,0.1271195113658905,0.9918850064277649,0.0,0.0,0.0,0.0,0.0,0.0,0.0,0.0,0.0,14.606464385986328,0.04136015102267265,0.2463621348142624,0.0,0.0,0.0,0.0,0.0,0.0,0.0,0.0,0.0,-0.007259952370077372,-0.010994539596140385,0.33307114243507385,0.0,0.0,0.0,0.0,0.0,0.0,0.0,0.0,0.0
1606828467545404638,2324022,1606828467530476875,imu_link,0.002086589578539133,0.0006313046906143427,0.1271195113658905,0.9918850064277649,0.0,0.0,0.0,0.0,0.0,0.0,0.0,0.0,0.0,14.606464385986328,0.04136015102267265,0.2463621348142624,0.0,0.0,0.0,0.0,0.0,0.0,0.0,0.0,0.0,-0.007259952370077372,-0.010994539596140385,0.33307114243507385,0.0,0.0,0.0,0.0,0.0,0.0,0.0,0.0,0.0
1606828467547132532,2324023,1606828467530552895,imu_link,0.002085460349917412,0.0006299013621173799,0.12712012231349945,0.9918849468231201,0.0,0.0,0.0,0.0,0.0,0.0,0.0,0.0,0.0,14.606534957885742,0.04121694713830948,0.24621336162090302,0.0,0.0,0.0,0.0,0.0,0.0,0.0,0.0,0.0,0.00565769337117672,0.012120253406465054,0.3431788384914398,0.0,0.0,0.0,0.0,0.0,0.0,0.0,0.0,0.0
1606828467547141665,2324024,1606828467530641010,imu_link,0.002085460349917412,0.0006299013621173799,0.12712012231349945,0.9918849468231201,0.0,0.0,0.0,0.0,0.0,0.0,0.0,0.0,0.0,14.606534957885742,0.04121694713830948,0.24621336162090302,0.0,0.0,0.0,0.0,0.0,0.0,0.0,0.0,0.0,0.00565769337117672,0.012120253406465054,0.3431788384914398,0.0,0.0,0.0,0.0,0.0,0.0,0.0,0.0,0.0
1606828467547153640,2324025,1606828467530726194,imu_link,0.002084588399156928,0.0006315708160400391,0.12712599337100983,0.991884171962738,0.0,0.0,0.0,0.0,0.0,0.0,0.0,0.0,0.0,14.607215881347656,0.04141794517636299,0.2461388260126114,0.0,0.0,0.0,0.0,0.0,0.0,0.0,0.0,0.0,0.0017932483460754156,0.012059099972248077,0.3350299596786499,0.0,0.0,0.0,0.0,0.0,0.0,0.0,0.0,0.0
1606828467547160074,2324026,1606828467530872179,imu_link,0.002084588399156928,0.0006315708160400391,0.12712599337100983,0.991884171962738,0.0,0.0,0.0,0.0,0.0,0.0,0.0,0.0,0.0,14.607215881347656,0.04141794517636299,0.2461388260126114,0.0,0.0,0.0,0.0,0.0,0.0,0.0,0.0,0.0,0.0017932483460754156,0.012059099972248077,0.3350299596786499,0.0,0.0,0.0,0.0,0.0,0.0,0.0,0.0,0.0
1606828467552342285,2324027,1606828467543372082,imu_link,0.0020842875819653273,0.0006328009767457843,0.12712666392326355,0.9918841123580933,0.0,0.0,0.0,0.0,0.0,0.0,0.0,0.0,0.0,14.607294082641602,0.04156198725104332,0.2461225390434265,0.0,0.0,0.0,0.0,0.0,0.0,0.0,0.0,0.0,-0.00539912935346365,0.0005309731932356954,0.32408592104911804,0.0,0.0,0.0,0.0,0.0,0.0,0.0,0.0,0.0
1606828467553106454,2324028,1606828467543497496,imu_link,0.0020842875819653273,0.0006328009767457843,0.12712666392326355,0.9918841123580933,0.0,0.0,0.0,0.0,0.0,0.0,0.0,0.0,0.0,14.607294082641602,0.04156198725104332,0.2461225390434265,0.0,0.0,0.0,0.0,0.0,0.0,0.0,0.0,0.0,-0.00539912935346365,0.0005309731932356954,0.32408592104911804,0.0,0.0,0.0,0.0,0.0,0.0,0.0,0.0,0.0
1606828467553123896,2324029,1606828467543661996,imu_link,0.002085064072161913,0.0006332816556096077,0.12713474035263062,0.9918830990791321,0.0,0.0,0.0,0.0,0.0,0.0,0.0,0.0,0.0,14.608226776123047,0.04160330444574356,0.24621817469596863,0.0,0.0,0.0,0.0,0.0,0.0,0.0,0.0,0.0,0.005606847815215588,0.0065388865768909454,0.32065775990486145,0.0,0.0,0.0,0.0,0.0,0.0,0.0,0.0,0.0
1606828467553133187,2324030,1606828467543772077,imu_link,0.002085064072161913,0.0006332816556096077,0.12713474035263062,0.9918830990791321,0.0,0.0,0.0,0.0,0.0,0.0,0.0,0.0,0.0,14.608226776123047,0.04160330444574356,0.24621817469596863,0.0,0.0,0.0,0.0,0.0,0.0,0.0,0.0,0.0,0.005606847815215588,0.0065388865768909454,0.32065775990486145,0.0,0.0,0.0,0.0,0.0,0.0,0.0,0.0,0.0
1606828467553142469,2324031,1606828467543845375,imu_link,0.002086707390844822,0.0006322306580841541,0.12713505327701569,0.9918830394744873,0.0,0.0,0.0,0.0,0.0,0.0,0.0,0.0,0.0,14.60826301574707,0.041459821164608,0.24638967216014862,0.0,0.0,0.0,0.0,0.0,0.0,0.0,0.0,0.0,0.021148061379790306,-0.003259129822254181,0.3286895751953125,0.0,0.0,0.0,0.0,0.0,0.0,0.0,0.0,0.0
1606828467556248587,2324032,1606828467543927404,imu_link,0.002086707390844822,0.0006322306580841541,0.12713505327701569,0.9918830394744873,0.0,0.0,0.0,0.0,0.0,0.0,0.0,0.0,0.0,14.60826301574707,0.041459821164608,0.24638967216014862,0.0,0.0,0.0,0.0,0.0,0.0,0.0,0.0,0.0,0.021148061379790306,-0.003259129822254181,0.3286895751953125,0.0,0.0,0.0,0.0,0.0,0.0,0.0,0.0,0.0
1606828467556268556,2324033,1606828467544016405,imu_link,0.0020870224107056856,0.0006362689309753478,0.1271449774503708,0.991881787776947,0.0,0.0,0.0,0.0,0.0,0.0,0.0,0.0,0.0,14.609410285949707,0.0419117696583271,0.24648471176624298,0.0,0.0,0.0,0.0,0.0,0.0,0.0,0.0,0.0,0.011138074100017548,-0.021861828863620758,0.3207763731479645,0.0,0.0,0.0,0.0,0.0,0.0,0.0,0.0,0.0
1606828467556278750,2324034,1606828467544085396,imu_link,0.0020870224107056856,0.0006362689309753478,0.1271449774503708,0.991881787776947,0.0,0.0,0.0,0.0,0.0,0.0,0.0,0.0,0.0,14.609410285949707,0.0419117696583271,0.24648471176624298,0.0,0.0,0.0,0.0,0.0,0.0,0.0,0.0,0.0,0.011138074100017548,-0.021861828863620758,0.3207763731479645,0.0,0.0,0.0,0.0,0.0,0.0,0.0,0.0,0.0
1606828467556344261,2324035,1606828467544166930,imu_link,0.0020869860891252756,0.0006351986667141318,0.12714365124702454,0.9918819665908813,0.0,0.0,0.0,0.0,0.0,0.0,0.0,0.0,0.0,14.609254837036133,0.041790977120399475,0.24646493792533875,0.0,0.0,0.0,0.0,0.0,0.0,0.0,0.0,0.0,0.006175016984343529,-0.016474932432174683,0.3021336495876312,0.0,0.0,0.0,0.0,0.0,0.0,0.0,0.0,0.0
1606828467556356414,2324036,1606828467544245190,imu_link,0.0020869860891252756,0.0006351986667141318,0.12714365124702454,0.9918819665908813,0.0,0.0,0.0,0.0,0.0,0.0,0.0,0.0,0.0,14.609254837036133,0.041790977120399475,0.24646493792533875,0.0,0.0,0.0,0.0,0.0,0.0,0.0,0.0,0.0,0.006175016984343529,-0.016474932432174683,0.3021336495876312,0.0,0.0,0.0,0.0,0.0,0.0,0.0,0.0,0.0
1606828467556383659,2324037,1606828467544315428,imu_link,0.0020900596864521503,0.0006371125346049666,0.12715210020542145,0.9918808937072754,0.0,0.0,0.0,0.0,0.0,0.0,0.0,0.0,0.0,14.6102294921875,0.04196162521839142,0.24684251844882965,0.0,0.0,0.0,0.0,0.0,0.0,0.0,0.0,0.0,0.019891543313860893,-0.01034584827721119,0.3127595782279968,0.0,0.0,0.0,0.0,0.0,0.0,0.0,0.0,0.0
1606828467566234599,2324038,1606828467557179734,imu_link,0.0020900596864521503,0.0006371125346049666,0.12715210020542145,0.9918808937072754,0.0,0.0,0.0,0.0,0.0,0.0,0.0,0.0,0.0,14.6102294921875,0.04196162521839142,0.24684251844882965,0.0,0.0,0.0,0.0,0.0,0.0,0.0,0.0,0.0,0.019891543313860893,-0.01034584827721119,0.3127595782279968,0.0,0.0,0.0,0.0,0.0,0.0,0.0,0.0,0.0
1606828467567171551,2324039,1606828467557299165,imu_link,0.002088554436340928,0.0006387162720784545,0.12715232372283936,0.9918807744979858,0.0,0.0,0.0,0.0,0.0,0.0,0.0,0.0,0.0,14.610260009765625,0.04216577857732773,0.24669483304023743,0.0,0.0,0.0,0.0,0.0,0.0,0.0,0.0,0.0,0.007872534915804863,-0.009343654848635197,0.3296046555042267,0.0,0.0,0.0,0.0,0.0,0.0,0.0,0.0,0.0
1606828467567183024,2324040,1606828467557455313,imu_link,0.002088554436340928,0.0006387162720784545,0.12715232372283936,0.9918807744979858,0.0,0.0,0.0,0.0,0.0,0.0,0.0,0.0,0.0,14.610260009765625,0.04216577857732773,0.24669483304023743,0.0,0.0,0.0,0.0,0.0,0.0,0.0,0.0,0.0,0.007872534915804863,-0.009343654848635197,0.3296046555042267,0.0,0.0,0.0,0.0,0.0,0.0,0.0,0.0,0.0
1606828467567234062,2324041,1606828467557530134,imu_link,0.00209086574614048,0.0006414529634639621,0.12715817987918854,0.9918800592422485,0.0,0.0,0.0,0.0,0.0,0.0,0.0,0.0,0.0,14.610937118530273,0.042441707104444504,0.2469976395368576,0.0,0.0,0.0,0.0,0.0,0.0,0.0,0.0,0.0,0.0015515181003138423,0.014125360175967216,0.3179974853992462,0.0,0.0,0.0,0.0,0.0,0.0,0.0,0.0,0.0
1606828467567244822,2324042,1606828467557595592,imu_link,0.00209086574614048,0.0006414529634639621,0.12715817987918854,0.9918800592422485,0.0,0.0,0.0,0.0,0.0,0.0,0.0,0.0,0.0,14.610937118530273,0.042441707104444504,0.2469976395368576,0.0,0.0,0.0,0.0,0.0,0.0,0.0,0.0,0.0,0.0015515181003138423,0.014125360175967216,0.3179974853992462,0.0,0.0,0.0,0.0,0.0,0.0,0.0,0.0,0.0
1606828467567251899,2324043,1606828467557700306,imu_link,0.002092015463858843,0.0006421749130822718,0.12715767323970795,0.9918801188468933,0.0,0.0,0.0,0.0,0.0,0.0,0.0,0.0,0.0,14.61087703704834,0.04250713810324669,0.2471388280391693,0.0,0.0,0.0,0.0,0.0,0.0,0.0,0.0,0.0,0.010127099230885506,0.016000933945178986,0.32818204164505005,0.0,0.0,0.0,0.0,0.0,0.0,0.0,0.0,0.0
1606828467567262719,2324044,1606828467557774971,imu_link,0.002092015463858843,0.0006421749130822718,0.12715767323970795,0.9918801188468933,0.0,0.0,0.0,0.0,0.0,0.0,0.0,0.0,0.0,14.61087703704834,0.04250713810324669,0.2471388280391693,0.0,0.0,0.0,0.0,0.0,0.0,0.0,0.0,0.0,0.010127099230885506,0.016000933945178986,0.32818204164505005,0.0,0.0,0.0,0.0,0.0,0.0,0.0,0.0,0.0
1606828467567289939,2324045,1606828467557847182,imu_link,0.0020883718971163034,0.0006428581546060741,0.12716133892536163,0.9918797016143799,0.0,0.0,0.0,0.0,0.0,0.0,0.0,0.0,0.0,14.611300468444824,0.04263697564601898,0.24673478305339813,0.0,0.0,0.0,0.0,0.0,0.0,0.0,0.0,0.0,0.012107519432902336,0.005640261806547642,0.3468327522277832,0.0,0.0,0.0,0.0,0.0,0.0,0.0,0.0,0.0
1606828467567303015,2324046,1606828467557921340,imu_link,0.0020883718971163034,0.0006428581546060741,0.12716133892536163,0.9918797016143799,0.0,0.0,0.0,0.0,0.0,0.0,0.0,0.0,0.0,14.611300468444824,0.04263697564601898,0.24673478305339813,0.0,0.0,0.0,0.0,0.0,0.0,0.0,0.0,0.0,0.012107519432902336,0.005640261806547642,0.3468327522277832,0.0,0.0,0.0,0.0,0.0,0.0,0.0,0.0,0.0
1606828467568543324,2324047,1606828467557990540,imu_link,0.0020868838764727116,0.0006432542577385902,0.12716160714626312,0.9918796420097351,0.0,0.0,0.0,0.0,0.0,0.0,0.0,0.0,0.0,14.611332893371582,0.04270360991358757,0.24657143652439117,0.0,0.0,0.0,0.0,0.0,0.0,0.0,0.0,0.0,0.01577051170170307,0.0059809936210513115,0.33829185366630554,0.0,0.0,0.0,0.0,0.0,0.0,0.0,0.0,0.0
1606828467568556584,2324048,1606828467558065152,imu_link,0.0020868838764727116,0.0006432542577385902,0.12716160714626312,0.9918796420097351,0.0,0.0,0.0,0.0,0.0,0.0,0.0,0.0,0.0,14.611332893371582,0.04270360991358757,0.24657143652439117,0.0,0.0,0.0,0.0,0.0,0.0,0.0,0.0,0.0,0.01577051170170307,0.0059809936210513115,0.33829185366630554,0.0,0.0,0.0,0.0,0.0,0.0,0.0,0.0,0.0
1606828467579052383,2324049,1606828467570043239,imu_link,0.002084259409457445,0.0006457638228312135,0.1271512806415558,0.9918810129165649,0.0,0.0,0.0,0.0,0.0,0.0,0.0,0.0,0.0,14.610138893127441,0.04302966222167015,0.24630922079086304,0.0,0.0,0.0,0.0,0.0,0.0,0.0,0.0,0.0,0.002879679435864091,0.003962567541748285,0.3427923917770386,0.0,0.0,0.0,0.0,0.0,0.0,0.0,0.0,0.0
1606828467580284075,2324050,1606828467570172562,imu_link,0.002084259409457445,0.0006457638228312135,0.1271512806415558,0.9918810129165649,0.0,0.0,0.0,0.0,0.0,0.0,0.0,0.0,0.0,14.610138893127441,0.04302966222167015,0.24630922079086304,0.0,0.0,0.0,0.0,0.0,0.0,0.0,0.0,0.0,0.002879679435864091,0.003962567541748285,0.3427923917770386,0.0,0.0,0.0,0.0,0.0,0.0,0.0,0.0,0.0
1606828467580299334,2324051,1606828467570346178,imu_link,0.002084014704450965,0.0006458557909354568,0.12715253233909607,0.9918808341026306,0.0,0.0,0.0,0.0,0.0,0.0,0.0,0.0,0.0,14.610284805297852,0.04304336756467819,0.24628284573554993,0.0,0.0,0.0,0.0,0.0,0.0,0.0,0.0,0.0,-0.016835631802678108,0.006592670455574989,0.34532594680786133,0.0,0.0,0.0,0.0,0.0,0.0,0.0,0.0,0.0
1606828467580318521,2324052,1606828467570445758,imu_link,0.002084014704450965,0.0006458557909354568,0.12715253233909607,0.9918808341026306,0.0,0.0,0.0,0.0,0.0,0.0,0.0,0.0,0.0,14.610284805297852,0.04304336756467819,0.24628284573554993,0.0,0.0,0.0,0.0,0.0,0.0,0.0,0.0,0.0,-0.016835631802678108,0.006592670455574989,0.34532594680786133,0.0,0.0,0.0,0.0,0.0,0.0,0.0,0.0,0.0
1606828467580332114,2324053,1606828467570526494,imu_link,0.0020837606862187386,0.0006407744367606938,0.12714643776416779,0.9918816089630127,0.0,0.0,0.0,0.0,0.0,0.0,0.0,0.0,0.0,14.609579086303711,0.0424710251390934,0.24617967009544373,0.0,0.0,0.0,0.0,0.0,0.0,0.0,0.0,0.0,-0.01780879497528076,-0.0018419219413772225,0.3322141766548157,0.0,0.0,0.0,0.0,0.0,0.0,0.0,0.0,0.0
1606828467580354365,2324054,1606828467570626339,imu_link,0.0020837606862187386,0.0006407744367606938,0.12714643776416779,0.9918816089630127,0.0,0.0,0.0,0.0,0.0,0.0,0.0,0.0,0.0,14.609579086303711,0.0424710251390934,0.24617967009544373,0.0,0.0,0.0,0.0,0.0,0.0,0.0,0.0,0.0,-0.01780879497528076,-0.0018419219413772225,0.3322141766548157,0.0,0.0,0.0,0.0,0.0,0.0,0.0,0.0,0.0
1606828467580372725,2324055,1606828467570708810,imu_link,0.002083995146676898,0.0006414779927581549,0.12714746594429016,0.9918814897537231,0.0,0.0,0.0,0.0,0.0,0.0,0.0,0.0,0.0,14.609697341918945,0.042547326534986496,0.24621659517288208,0.0,0.0,0.0,0.0,0.0,0.0,0.0,0.0,0.0,-0.013383791781961918,-0.003429502248764038,0.3263619840145111,0.0,0.0,0.0,0.0,0.0,0.0,0.0,0.0,0.0
1606828467580411171,2324056,1606828467570786068,imu_link,0.002083995146676898,0.0006414779927581549,0.12714746594429016,0.9918814897537231,0.0,0.0,0.0,0.0,0.0,0.0,0.0,0.0,0.0,14.609697341918945,0.042547326534986496,0.24621659517288208,0.0,0.0,0.0,0.0,0.0,0.0,0.0,0.0,0.0,-0.013383791781961918,-0.003429502248764038,0.3263619840145111,0.0,0.0,0.0,0.0,0.0,0.0,0.0,0.0,0.0
1606828467580428196,2324057,1606828467570891887,imu_link,0.0020856584887951612,0.0006400272832252085,0.12713830173015594,0.9918826818466187,0.0,0.0,0.0,0.0,0.0,0.0,0.0,0.0,0.0,14.608638763427734,0.04236047714948654,0.24638411402702332,0.0,0.0,0.0,0.0,0.0,0.0,0.0,0.0,0.0,0.0025516091845929623,-0.007069271523505449,0.33817222714424133,0.0,0.0,0.0,0.0,0.0,0.0,0.0,0.0,0.0
1606828467583982054,2324058,1606828467570980296,imu_link,0.0020856584887951612,0.0006400272832252085,0.12713830173015594,0.9918826818466187,0.0,0.0,0.0,0.0,0.0,0.0,0.0,0.0,0.0,14.608638763427734,0.04236047714948654,0.24638411402702332,0.0,0.0,0.0,0.0,0.0,0.0,0.0,0.0,0.0,0.0025516091845929623,-0.007069271523505449,0.33817222714424133,0.0,0.0,0.0,0.0,0.0,0.0,0.0,0.0,0.0
1606828467592567233,2324059,1606828467583509479,imu_link,0.0020849229767918587,0.0006400604615919292,0.12713970243930817,0.9918823838233948,0.0,0.0,0.0,0.0,0.0,0.0,0.0,0.0,0.0,14.60880184173584,0.04237460345029831,0.2463010847568512,0.0,0.0,0.0,0.0,0.0,0.0,0.0,0.0,0.0,0.005574393551796675,-0.012546436861157417,0.33229750394821167,0.0,0.0,0.0,0.0,0.0,0.0,0.0,0.0,0.0
1606828467593802512,2324060,1606828467583651557,imu_link,0.0020849229767918587,0.0006400604615919292,0.12713970243930817,0.9918823838233948,0.0,0.0,0.0,0.0,0.0,0.0,0.0,0.0,0.0,14.60880184173584,0.04237460345029831,0.2463010847568512,0.0,0.0,0.0,0.0,0.0,0.0,0.0,0.0,0.0,0.005574393551796675,-0.012546436861157417,0.33229750394821167,0.0,0.0,0.0,0.0,0.0,0.0,0.0,0.0,0.0
1606828467593826515,2324061,1606828467583838103,imu_link,0.002088505309075117,0.0006394324009306729,0.12713342905044556,0.9918832778930664,0.0,0.0,0.0,0.0,0.0,0.0,0.0,0.0,0.0,14.608076095581055,0.04225260019302368,0.24669884145259857,0.0,0.0,0.0,0.0,0.0,0.0,0.0,0.0,0.0,-0.00818463135510683,-0.007456743158400059,0.30130043625831604,0.0,0.0,0.0,0.0,0.0,0.0,0.0,0.0,0.0
1606828467593880497,2324062,1606828467583938289,imu_link,0.002088505309075117,0.0006394324009306729,0.12713342905044556,0.9918832778930664,0.0,0.0,0.0,0.0,0.0,0.0,0.0,0.0,0.0,14.608076095581055,0.04225260019302368,0.24669884145259857,0.0,0.0,0.0,0.0,0.0,0.0,0.0,0.0,0.0,-0.00818463135510683,-0.007456743158400059,0.30130043625831604,0.0,0.0,0.0,0.0,0.0,0.0,0.0,0.0,0.0
1606828467593892181,2324063,1606828467584013197,imu_link,0.0020892375614494085,0.00063596066320315,0.12713173031806946,0.9918835163116455,0.0,0.0,0.0,0.0,0.0,0.0,0.0,0.0,0.0,14.607878684997559,0.04184775426983833,0.24673141539096832,0.0,0.0,0.0,0.0,0.0,0.0,0.0,0.0,0.0,-0.01708061806857586,0.005401511210948229,0.307446151971817,0.0,0.0,0.0,0.0,0.0,0.0,0.0,0.0,0.0
1606828467593914083,2324064,1606828467584098664,imu_link,0.0020892375614494085,0.00063596066320315,0.12713173031806946,0.9918835163116455,0.0,0.0,0.0,0.0,0.0,0.0,0.0,0.0,0.0,14.607878684997559,0.04184775426983833,0.24673141539096832,0.0,0.0,0.0,0.0,0.0,0.0,0.0,0.0,0.0,-0.01708061806857586,0.005401511210948229,0.307446151971817,0.0,0.0,0.0,0.0,0.0,0.0,0.0,0.0,0.0
1606828467593948678,2324065,1606828467584207285,imu_link,0.0020903795957565308,0.000634359719697386,0.127129465341568,0.9918837547302246,0.0,0.0,0.0,0.0,0.0,0.0,0.0,0.0,0.0,14.60761547088623,0.041649702936410904,0.2468378245830536,0.0,0.0,0.0,0.0,0.0,0.0,0.0,0.0,0.0,-0.019360197708010674,0.01036035269498825,0.32857775688171387,0.0,0.0,0.0,0.0,0.0,0.0,0.0,0.0,0.0
1606828467593978191,2324066,1606828467584295243,imu_link,0.0020903795957565308,0.000634359719697386,0.127129465341568,0.9918837547302246,0.0,0.0,0.0,0.0,0.0,0.0,0.0,0.0,0.0,14.60761547088623,0.041649702936410904,0.2468378245830536,0.0,0.0,0.0,0.0,0.0,0.0,0.0,0.0,0.0,-0.019360197708010674,0.01036035269498825,0.32857775688171387,0.0,0.0,0.0,0.0,0.0,0.0,0.0,0.0,0.0
1606828467593996023,2324067,1606828467584373198,imu_link,0.0020894743502140045,0.0006343580316752195,0.1271287202835083,0.9918838143348694,0.0,0.0,0.0,0.0,0.0,0.0,0.0,0.0,0.0,14.607531547546387,0.04166288301348686,0.2467348873615265,0.0,0.0,0.0,0.0,0.0,0.0,0.0,0.0,0.0,-0.012852003797888756,-9.085051715373993e-05,0.34991082549095154,0.0,0.0,0.0,0.0,0.0,0.0,0.0,0.0,0.0
1606828467595206071,2324068,1606828467584455147,imu_link,0.0020894743502140045,0.0006343580316752195,0.1271287202835083,0.9918838143348694,0.0,0.0,0.0,0.0,0.0,0.0,0.0,0.0,0.0,14.607531547546387,0.04166288301348686,0.2467348873615265,0.0,0.0,0.0,0.0,0.0,0.0,0.0,0.0,0.0,-0.012852003797888756,-9.085051715373993e-05,0.34991082549095154,0.0,0.0,0.0,0.0,0.0,0.0,0.0,0.0,0.0
1606828467595221059,2324069,1606828467584536550,imu_link,0.0020907644648104906,0.0006329710595309734,0.12712517380714417,0.9918842911720276,0.0,0.0,0.0,0.0,0.0,0.0,0.0,0.0,0.0,14.607120513916016,0.04148733243346214,0.24686115980148315,0.0,0.0,0.0,0.0,0.0,0.0,0.0,0.0,0.0,0.006804835982620716,0.001754568424075842,0.35495832562446594,0.0,0.0,0.0,0.0,0.0,0.0,0.0,0.0,0.0
1606828467606476780,2324070,1606828467597336203,imu_link,0.0020907644648104906,0.0006329710595309734,0.12712517380714417,0.9918842911720276,0.0,0.0,0.0,0.0,0.0,0.0,0.0,0.0,0.0,14.607120513916016,0.04148733243346214,0.24686115980148315,0.0,0.0,0.0,0.0,0.0,0.0,0.0,0.0,0.0,0.006804835982620716,0.001754568424075842,0.35495832562446594,0.0,0.0,0.0,0.0,0.0,0.0,0.0,0.0,0.0
1606828467607844455,2324071,1606828467597471735,imu_link,0.00209051463752985,0.0006329164607450366,0.127125546336174,0.9918842315673828,0.0,0.0,0.0,0.0,0.0,0.0,0.0,0.0,0.0,14.607163429260254,0.04148467257618904,0.2468319833278656,0.0,0.0,0.0,0.0,0.0,0.0,0.0,0.0,0.0,0.01474224217236042,0.0054593454115092754,0.3468608856201172,0.0,0.0,0.0,0.0,0.0,0.0,0.0,0.0,0.0
1606828467607918090,2324072,1606828467597654046,imu_link,0.00209051463752985,0.0006329164607450366,0.127125546336174,0.9918842315673828,0.0,0.0,0.0,0.0,0.0,0.0,0.0,0.0,0.0,14.607163429260254,0.04148467257618904,0.2468319833278656,0.0,0.0,0.0,0.0,0.0,0.0,0.0,0.0,0.0,0.01474224217236042,0.0054593454115092754,0.3468608856201172,0.0,0.0,0.0,0.0,0.0,0.0,0.0,0.0,0.0
1606828467607935988,2324073,1606828467597769833,imu_link,0.002090183552354574,0.0006356678786687553,0.12713471055030823,0.9918830990791321,0.0,0.0,0.0,0.0,0.0,0.0,0.0,0.0,0.0,14.608222961425781,0.04179994761943817,0.24683482944965363,0.0,0.0,0.0,0.0,0.0,0.0,0.0,0.0,0.0,0.001544515136629343,0.0060848668217659,0.3558953106403351,0.0,0.0,0.0,0.0,0.0,0.0,0.0,0.0,0.0
1606828467607949821,2324074,1606828467597848430,imu_link,0.002090183552354574,0.0006356678786687553,0.12713471055030823,0.9918830990791321,0.0,0.0,0.0,0.0,0.0,0.0,0.0,0.0,0.0,14.608222961425781,0.04179994761943817,0.24683482944965363,0.0,0.0,0.0,0.0,0.0,0.0,0.0,0.0,0.0,0.001544515136629343,0.0060848668217659,0.3558953106403351,0.0,0.0,0.0,0.0,0.0,0.0,0.0,0.0,0.0
1606828467607957997,2324075,1606828467597936704,imu_link,0.0020904543343931437,0.0006345025030896068,0.1271331012248993,0.9918832778930664,0.0,0.0,0.0,0.0,0.0,0.0,0.0,0.0,0.0,14.60803508758545,0.041663940995931625,0.24684856832027435,0.0,0.0,0.0,0.0,0.0,0.0,0.0,0.0,0.0,0.000593175645917654,0.004470279440283775,0.3452918231487274,0.0,0.0,0.0,0.0,0.0,0.0,0.0,0.0,0.0
1606828467608016792,2324076,1606828467598046171,imu_link,0.0020904543343931437,0.0006345025030896068,0.1271331012248993,0.9918832778930664,0.0,0.0,0.0,0.0,0.0,0.0,0.0,0.0,0.0,14.60803508758545,0.041663940995931625,0.24684856832027435,0.0,0.0,0.0,0.0,0.0,0.0,0.0,0.0,0.0,0.000593175645917654,0.004470279440283775,0.3452918231487274,0.0,0.0,0.0,0.0,0.0,0.0,0.0,0.0,0.0
1606828467608152737,2324077,1606828467598122337,imu_link,0.002089822432026267,0.0006346136797219515,0.12713806331157684,0.9918826818466187,0.0,0.0,0.0,0.0,0.0,0.0,0.0,0.0,0.0,14.608609199523926,0.041684553027153015,0.24677856266498566,0.0,0.0,0.0,0.0,0.0,0.0,0.0,0.0,0.0,-0.006910351570695639,0.007725992705672979,0.31742480397224426,0.0,0.0,0.0,0.0,0.0,0.0,0.0,0.0,0.0
1606828467608167126,2324078,1606828467598207699,imu_link,0.002089822432026267,0.0006346136797219515,0.12713806331157684,0.9918826818466187,0.0,0.0,0.0,0.0,0.0,0.0,0.0,0.0,0.0,14.608609199523926,0.041684553027153015,0.24677856266498566,0.0,0.0,0.0,0.0,0.0,0.0,0.0,0.0,0.0,-0.006910351570695639,0.007725992705672979,0.31742480397224426,0.0,0.0,0.0,0.0,0.0,0.0,0.0,0.0,0.0
1606828467608193890,2324079,1606828467598289588,imu_link,0.0020884089171886444,0.000634205702226609,0.12713828682899475,0.9918826818466187,0.0,0.0,0.0,0.0,0.0,0.0,0.0,0.0,0.0,14.608634948730469,0.04165872186422348,0.24661196768283844,0.0,0.0,0.0,0.0,0.0,0.0,0.0,0.0,0.0,-0.004818127024918795,-0.0003976516891270876,0.3069145381450653,0.0,0.0,0.0,0.0,0.0,0.0,0.0,0.0,0.0
1606828467619300937,2324080,1606828467598375151,imu_link,0.0020884089171886444,0.000634205702226609,0.12713828682899475,0.9918826818466187,0.0,0.0,0.0,0.0,0.0,0.0,0.0,0.0,0.0,14.608634948730469,0.04165872186422348,0.24661196768283844,0.0,0.0,0.0,0.0,0.0,0.0,0.0,0.0,0.0,-0.004818127024918795,-0.0003976516891270876,0.3069145381450653,0.0,0.0,0.0,0.0,0.0,0.0,0.0,0.0,0.0
1606828467621381720,2324081,1606828467610855164,imu_link,0.0020886692218482494,0.0006322769913822412,0.12715131044387817,0.9918810129165649,0.0,0.0,0.0,0.0,0.0,0.0,0.0,0.0,0.0,14.610140800476074,0.04143247380852699,0.24661394953727722,0.0,0.0,0.0,0.0,0.0,0.0,0.0,0.0,0.0,0.0041753812693059444,-9.682076051831245e-05,0.3109719753265381,0.0,0.0,0.0,0.0,0.0,0.0,0.0,0.0,0.0
1606828467621452244,2324082,1606828467611004078,imu_link,0.0020886692218482494,0.0006322769913822412,0.12715131044387817,0.9918810129165649,0.0,0.0,0.0,0.0,0.0,0.0,0.0,0.0,0.0,14.610140800476074,0.04143247380852699,0.24661394953727722,0.0,0.0,0.0,0.0,0.0,0.0,0.0,0.0,0.0,0.0041753812693059444,-9.682076051831245e-05,0.3109719753265381,0.0,0.0,0.0,0.0,0.0,0.0,0.0,0.0,0.0
1606828467621537942,2324083,1606828467611157858,imu_link,0.0020875658374279737,0.00063061632681638,0.12715113162994385,0.9918810129165649,0.0,0.0,0.0,0.0,0.0,0.0,0.0,0.0,0.0,14.610116958618164,0.04125984013080597,0.24646437168121338,0.0,0.0,0.0,0.0,0.0,0.0,0.0,0.0,0.0,0.0032842843793332577,0.014782513491809368,0.3210650086402893,0.0,0.0,0.0,0.0,0.0,0.0,0.0,0.0,0.0
1606828467621553159,2324084,1606828467611242929,imu_link,0.0020875658374279737,0.00063061632681638,0.12715113162994385,0.9918810129165649,0.0,0.0,0.0,0.0,0.0,0.0,0.0,0.0,0.0,14.610116958618164,0.04125984013080597,0.24646437168121338,0.0,0.0,0.0,0.0,0.0,0.0,0.0,0.0,0.0,0.0032842843793332577,0.014782513491809368,0.3210650086402893,0.0,0.0,0.0,0.0,0.0,0.0,0.0,0.0,0.0
1606828467621576887,2324085,1606828467611368584,imu_link,0.002084339503198862,0.0006323744310066104,0.1271587461233139,0.9918800592422485,0.0,0.0,0.0,0.0,0.0,0.0,0.0,0.0,0.0,14.610998153686523,0.04150478541851044,0.24612358212471008,0.0,0.0,0.0,0.0,0.0,0.0,0.0,0.0,0.0,-0.00621482077986002,-0.004696959163993597,0.33153799176216125,0.0,0.0,0.0,0.0,0.0,0.0,0.0,0.0,0.0
1606828467621610761,2324086,1606828467611468114,imu_link,0.002084339503198862,0.0006323744310066104,0.1271587461233139,0.9918800592422485,0.0,0.0,0.0,0.0,0.0,0.0,0.0,0.0,0.0,14.610998153686523,0.04150478541851044,0.24612358212471008,0.0,0.0,0.0,0.0,0.0,0.0,0.0,0.0,0.0,-0.00621482077986002,-0.004696959163993597,0.33153799176216125,0.0,0.0,0.0,0.0,0.0,0.0,0.0,0.0,0.0
1606828467621686551,2324087,1606828467611543929,imu_link,0.0020869015716016293,0.0006322097033262253,0.12715966999530792,0.991879940032959,0.0,0.0,0.0,0.0,0.0,0.0,0.0,0.0,0.0,14.611105918884277,0.041448503732681274,0.24641239643096924,0.0,0.0,0.0,0.0,0.0,0.0,0.0,0.0,0.0,-0.013427894562482834,-0.01717224158346653,0.3315988779067993,0.0,0.0,0.0,0.0,0.0,0.0,0.0,0.0,0.0
1606828467621703568,2324088,1606828467611615735,imu_link,0.0020869015716016293,0.0006322097033262253,0.12715966999530792,0.991879940032959,0.0,0.0,0.0,0.0,0.0,0.0,0.0,0.0,0.0,14.611105918884277,0.041448503732681274,0.24641239643096924,0.0,0.0,0.0,0.0,0.0,0.0,0.0,0.0,0.0,-0.013427894562482834,-0.01717224158346653,0.3315988779067993,0.0,0.0,0.0,0.0,0.0,0.0,0.0,0.0,0.0
1606828467623149237,2324089,1606828467611697879,imu_link,0.002090108348056674,0.0006282436661422253,0.1271582990884781,0.9918801188468933,0.0,0.0,0.0,0.0,0.0,0.0,0.0,0.0,0.0,14.610944747924805,0.040951333940029144,0.24671906232833862,0.0,0.0,0.0,0.0,0.0,0.0,0.0,0.0,0.0,-0.014390240423381329,0.005111328326165676,0.34910935163497925,0.0,0.0,0.0,0.0,0.0,0.0,0.0,0.0,0.0
1606828467623169918,2324090,1606828467611785812,imu_link,0.002090108348056674,0.0006282436661422253,0.1271582990884781,0.9918801188468933,0.0,0.0,0.0,0.0,0.0,0.0,0.0,0.0,0.0,14.610944747924805,0.040951333940029144,0.24671906232833862,0.0,0.0,0.0,0.0,0.0,0.0,0.0,0.0,0.0,-0.014390240423381329,0.005111328326165676,0.34910935163497925,0.0,0.0,0.0,0.0,0.0,0.0,0.0,0.0,0.0
1606828467623191007,2324091,1606828467611863918,imu_link,0.0020910303574055433,0.0006276937201619148,0.12715677917003632,0.9918802976608276,0.0,0.0,0.0,0.0,0.0,0.0,0.0,0.0,0.0,14.610769271850586,0.04087577015161514,0.24681581556797028,0.0,0.0,0.0,0.0,0.0,0.0,0.0,0.0,0.0,-0.01809205859899521,0.01878669671714306,0.3261498510837555,0.0,0.0,0.0,0.0,0.0,0.0,0.0,0.0,0.0
1606828467632808916,2324092,1606828467623637226,imu_link,0.0020910303574055433,0.0006276937201619148,0.12715677917003632,0.9918802976608276,0.0,0.0,0.0,0.0,0.0,0.0,0.0,0.0,0.0,14.610769271850586,0.04087577015161514,0.24681581556797028,0.0,0.0,0.0,0.0,0.0,0.0,0.0,0.0,0.0,-0.01809205859899521,0.01878669671714306,0.3261498510837555,0.0,0.0,0.0,0.0,0.0,0.0,0.0,0.0,0.0
1606828467633315208,2324093,1606828467623771341,imu_link,0.0020878466311842203,0.0006233671447262168,0.1271570324897766,0.9918801784515381,0.0,0.0,0.0,0.0,0.0,0.0,0.0,0.0,0.0,14.610798835754395,0.040430326014757156,0.2463909238576889,0.0,0.0,0.0,0.0,0.0,0.0,0.0,0.0,0.0,-0.005159338936209679,0.0009802535641938448,0.2919375002384186,0.0,0.0,0.0,0.0,0.0,0.0,0.0,0.0,0.0
1606828467633341535,2324094,1606828467623914246,imu_link,0.0020878466311842203,0.0006233671447262168,0.1271570324897766,0.9918801784515381,0.0,0.0,0.0,0.0,0.0,0.0,0.0,0.0,0.0,14.610798835754395,0.040430326014757156,0.2463909238576889,0.0,0.0,0.0,0.0,0.0,0.0,0.0,0.0,0.0,-0.005159338936209679,0.0009802535641938448,0.2919375002384186,0.0,0.0,0.0,0.0,0.0,0.0,0.0,0.0,0.0
1606828467633351489,2324095,1606828467623994100,imu_link,0.0020878466311842203,0.0006233671447262168,0.1271570324897766,0.9918801784515381,0.0,0.0,0.0,0.0,0.0,0.0,0.0,0.0,0.0,14.610798835754395,0.040430326014757156,0.2463909238576889,0.0,0.0,0.0,0.0,0.0,0.0,0.0,0.0,0.0,0.004674393683671951,-0.018345436081290245,0.3181365430355072,0.0,0.0,0.0,0.0,0.0,0.0,0.0,0.0,0.0
1606828467633374611,2324096,1606828467624070952,imu_link,0.0020878466311842203,0.0006233671447262168,0.1271570324897766,0.9918801784515381,0.0,0.0,0.0,0.0,0.0,0.0,0.0,0.0,0.0,14.610798835754395,0.040430326014757156,0.2463909238576889,0.0,0.0,0.0,0.0,0.0,0.0,0.0,0.0,0.0,0.004674393683671951,-0.018345436081290245,0.3181365430355072,0.0,0.0,0.0,0.0,0.0,0.0,0.0,0.0,0.0
1606828467633803874,2324097,1606828467624166558,imu_link,0.002089891815558076,0.0006254325853660703,0.1271478235721588,0.9918813705444336,0.0,0.0,0.0,0.0,0.0,0.0,0.0,0.0,0.0,14.609736442565918,0.040637578815221786,0.24665307998657227,0.0,0.0,0.0,0.0,0.0,0.0,0.0,0.0,0.0,0.008655105717480183,-0.019314467906951904,0.33224576711654663,0.0,0.0,0.0,0.0,0.0,0.0,0.0,0.0,0.0
1606828467633845271,2324098,1606828467624252251,imu_link,0.002089891815558076,0.0006254325853660703,0.1271478235721588,0.9918813705444336,0.0,0.0,0.0,0.0,0.0,0.0,0.0,0.0,0.0,14.609736442565918,0.040637578815221786,0.24665307998657227,0.0,0.0,0.0,0.0,0.0,0.0,0.0,0.0,0.0,0.008655105717480183,-0.019314467906951904,0.33224576711654663,0.0,0.0,0.0,0.0,0.0,0.0,0.0,0.0,0.0
1606828467633867183,2324099,1606828467624330035,imu_link,0.0020903104450553656,0.0006258348003029823,0.1271483451128006,0.9918813109397888,0.0,0.0,0.0,0.0,0.0,0.0,0.0,0.0,0.0,14.609794616699219,0.040677063167095184,0.2467065453529358,0.0,0.0,0.0,0.0,0.0,0.0,0.0,0.0,0.0,0.008316349238157272,-0.005163852125406265,0.33970916271209717,0.0,0.0,0.0,0.0,0.0,0.0,0.0,0.0,0.0
1606828467633889109,2324100,1606828467624490731,imu_link,0.0020903104450553656,0.0006258348003029823,0.1271483451128006,0.9918813109397888,0.0,0.0,0.0,0.0,0.0,0.0,0.0,0.0,0.0,14.609794616699219,0.040677063167095184,0.2467065453529358,0.0,0.0,0.0,0.0,0.0,0.0,0.0,0.0,0.0,0.008316349238157272,-0.005163852125406265,0.33970916271209717,0.0,0.0,0.0,0.0,0.0,0.0,0.0,0.0,0.0
