%time,field.header.seq,field.header.stamp,field.header.frame_id,field.orientation.x,field.orientation.y,field.orientation.z,field.orientation.w,field.orientation_covariance0,field.orientation_covariance1,field.orientation_covariance2,field.orientation_covariance3,field.orientation_covariance4,field.orientation_covariance5,field.orientation_covariance6,field.orientation_covariance7,field.orientation_covariance8,field.angular_velocity.x,field.angular_velocity.y,field.angular_velocity.z,field.angular_velocity_covariance0,field.angular_velocity_covariance1,field.angular_velocity_covariance2,field.angular_velocity_covariance3,field.angular_velocity_covariance4,field.angular_velocity_covariance5,field.angular_velocity_covariance6,field.angular_velocity_covariance7,field.angular_velocity_covariance8,field.linear_acceleration.x,field.linear_acceleration.y,field.linear_acceleration.z,field.linear_acceleration_covariance0,field.linear_acceleration_covariance1,field.linear_acceleration_covariance2,field.linear_acceleration_covariance3,field.linear_acceleration_covariance4,field.linear_acceleration_covariance5,field.linear_acceleration_covariance6,field.linear_acceleration_covariance7,field.linear_acceleration_covariance8
1606986664231580971,574433,1606983063501768526,imu_link,0.003611963475123048,0.0091689582914114,0.5281403064727783,0.8490999341011047,0.0,0.0,0.0,0.0,0.0,0.0,0.0,0.0,0.0,63.76856231689453,0.6735547184944153,0.906452476978302,0.0,0.0,0.0,0.0,0.0,0.0,0.0,0.0,0.0,-0.005119608249515295,0.00927779171615839,0.01854398474097252,0.0,0.0,0.0,0.0,0.0,0.0,0.0,0.0,0.0
1606986664231625338,574434,1606983063501908445,imu_link,0.003611963475123048,0.0091689582914114,0.5281403064727783,0.8490999341011047,0.0,0.0,0.0,0.0,0.0,0.0,0.0,0.0,0.0,63.76856231689453,0.6735547184944153,0.906452476978302,0.0,0.0,0.0,0.0,0.0,0.0,0.0,0.0,0.0,-0.005119608249515295,0.00927779171615839,0.01854398474097252,0.0,0.0,0.0,0.0,0.0,0.0,0.0,0.0,0.0
1606986664231656716,574435,1606983063502057249,imu_link,0.00361170363612473,0.009165732190012932,0.5281397104263306,0.8491003513336182,0.0,0.0,0.0,0.0,0.0,0.0,0.0,0.0,0.0,63.76847457885742,0.6732571721076965,0.9062313437461853,0.0,0.0,0.0,0.0,0.0,0.0,0.0,0.0,0.0,-0.01523763407021761,0.006091821938753128,0.01923956908285618,0.0,0.0,0.0,0.0,0.0,0.0,0.0,0.0,0.0
1606986664231672903,574436,1606983063502155988,imu_link,0.00361170363612473,0.009165732190012932,0.5281397104263306,0.8491003513336182,0.0,0.0,0.0,0.0,0.0,0.0,0.0,0.0,0.0,63.76847457885742,0.6732571721076965,0.9062313437461853,0.0,0.0,0.0,0.0,0.0,0.0,0.0,0.0,0.0,-0.01523763407021761,0.006091821938753128,0.01923956908285618,0.0,0.0,0.0,0.0,0.0,0.0,0.0,0.0,0.0
1606986664235567820,574437,1606983063502234525,imu_link,0.0036121944431215525,0.009165548719465733,0.5281391143798828,0.8491007089614868,0.0,0.0,0.0,0.0,0.0,0.0,0.0,0.0,0.0,63.76839828491211,0.6732102036476135,0.9062676429748535,0.0,0.0,0.0,0.0,0.0,0.0,0.0,0.0,0.0,-0.0035807183012366295,-0.004660746082663536,0.024356016889214516,0.0,0.0,0.0,0.0,0.0,0.0,0.0,0.0,0.0
1606986664235593479,574438,1606983063502313608,imu_link,0.0036121944431215525,0.009165548719465733,0.5281391143798828,0.8491007089614868,0.0,0.0,0.0,0.0,0.0,0.0,0.0,0.0,0.0,63.76839828491211,0.6732102036476135,0.9062676429748535,0.0,0.0,0.0,0.0,0.0,0.0,0.0,0.0,0.0,-0.0035807183012366295,-0.004660746082663536,0.024356016889214516,0.0,0.0,0.0,0.0,0.0,0.0,0.0,0.0,0.0
1606986664235604705,574439,1606983063502418871,imu_link,0.003611369291320443,0.00916688609868288,0.5281367301940918,0.8491021990776062,0.0,0.0,0.0,0.0,0.0,0.0,0.0,0.0,0.0,63.7680778503418,0.6733928322792053,0.9062663912773132,0.0,0.0,0.0,0.0,0.0,0.0,0.0,0.0,0.0,0.004348535090684891,-0.005636079702526331,0.037457164376974106,0.0,0.0,0.0,0.0,0.0,0.0,0.0,0.0,0.0
1606986664235640982,574440,1606983063502499874,imu_link,0.003611369291320443,0.00916688609868288,0.5281367301940918,0.8491021990776062,0.0,0.0,0.0,0.0,0.0,0.0,0.0,0.0,0.0,63.7680778503418,0.6733928322792053,0.9062663912773132,0.0,0.0,0.0,0.0,0.0,0.0,0.0,0.0,0.0,0.004348535090684891,-0.005636079702526331,0.037457164376974106,0.0,0.0,0.0,0.0,0.0,0.0,0.0,0.0,0.0
1606986664331453349,574441,1606983063502578756,imu_link,0.003610600484535098,0.009167502634227276,0.528135359287262,0.8491030335426331,0.0,0.0,0.0,0.0,0.0,0.0,0.0,0.0,0.0,63.76789855957031,0.6735008358955383,0.9062278270721436,0.0,0.0,0.0,0.0,0.0,0.0,0.0,0.0,0.0,0.00852004624903202,-0.0022786033805459738,0.030522359535098076,0.0,0.0,0.0,0.0,0.0,0.0,0.0,0.0,0.0
1606986664331474565,574442,1606983063502661518,imu_link,0.003610600484535098,0.009167502634227276,0.528135359287262,0.8491030335426331,0.0,0.0,0.0,0.0,0.0,0.0,0.0,0.0,0.0,63.76789855957031,0.6735008358955383,0.9062278270721436,0.0,0.0,0.0,0.0,0.0,0.0,0.0,0.0,0.0,0.00852004624903202,-0.0022786033805459738,0.030522359535098076,0.0,0.0,0.0,0.0,0.0,0.0,0.0,0.0,0.0
1606986664331483098,574443,1606983063502744139,imu_link,0.003611004212871194,0.009170971810817719,0.5281386971473694,0.8491009473800659,0.0,0.0,0.0,0.0,0.0,0.0,0.0,0.0,0.0,63.768348693847656,0.6738104224205017,0.9064797163009644,0.0,0.0,0.0,0.0,0.0,0.0,0.0,0.0,0.0,0.012457086704671383,0.005683225113898516,0.01191975362598896,0.0,0.0,0.0,0.0,0.0,0.0,0.0,0.0,0.0
1606986664331501178,574444,1606983063515448706,imu_link,0.003611004212871194,0.009170971810817719,0.5281386971473694,0.8491009473800659,0.0,0.0,0.0,0.0,0.0,0.0,0.0,0.0,0.0,63.768348693847656,0.6738104224205017,0.9064797163009644,0.0,0.0,0.0,0.0,0.0,0.0,0.0,0.0,0.0,0.012457086704671383,0.005683225113898516,0.01191975362598896,0.0,0.0,0.0,0.0,0.0,0.0,0.0,0.0,0.0
1606986664331508325,574445,1606983063515585949,imu_link,0.0036115036346018314,0.009169369004666805,0.5281373262405396,0.8491017818450928,0.0,0.0,0.0,0.0,0.0,0.0,0.0,0.0,0.0,63.768157958984375,0.6736257076263428,0.906430184841156,0.0,0.0,0.0,0.0,0.0,0.0,0.0,0.0,0.0,-0.0013192263431847095,0.004421122372150421,0.002570083364844322,0.0,0.0,0.0,0.0,0.0,0.0,0.0,0.0,0.0
1606986664335609600,574446,1606983063515766597,imu_link,0.0036115036346018314,0.009169369004666805,0.5281373262405396,0.8491017818450928,0.0,0.0,0.0,0.0,0.0,0.0,0.0,0.0,0.0,63.768157958984375,0.6736257076263428,0.906430184841156,0.0,0.0,0.0,0.0,0.0,0.0,0.0,0.0,0.0,-0.0013192263431847095,0.004421122372150421,0.002570083364844322,0.0,0.0,0.0,0.0,0.0,0.0,0.0,0.0,0.0
1606986664335623555,574447,1606983063515848201,imu_link,0.003609306877478957,0.009170089848339558,0.5281404852867126,0.84909987449646,0.0,0.0,0.0,0.0,0.0,0.0,0.0,0.0,0.0,63.76858139038086,0.6738253831863403,0.9062626361846924,0.0,0.0,0.0,0.0,0.0,0.0,0.0,0.0,0.0,-0.02200460433959961,-0.021188829094171524,-0.000826002680696547,0.0,0.0,0.0,0.0,0.0,0.0,0.0,0.0,0.0
1606986664335629675,574448,1606983063515932481,imu_link,0.003609306877478957,0.009170089848339558,0.5281404852867126,0.84909987449646,0.0,0.0,0.0,0.0,0.0,0.0,0.0,0.0,0.0,63.76858139038086,0.6738253831863403,0.9062626361846924,0.0,0.0,0.0,0.0,0.0,0.0,0.0,0.0,0.0,-0.02200460433959961,-0.021188829094171524,-0.000826002680696547,0.0,0.0,0.0,0.0,0.0,0.0,0.0,0.0,0.0
1606986664335650360,574449,1606983063516013543,imu_link,0.0036080945283174515,0.009172233752906322,0.5281400084495544,0.8491001725196838,0.0,0.0,0.0,0.0,0.0,0.0,0.0,0.0,0.0,63.76852035522461,0.6741079092025757,0.9062740802764893,0.0,0.0,0.0,0.0,0.0,0.0,0.0,0.0,0.0,-0.018344707787036896,-0.01932757906615734,0.010791221633553505,0.0,0.0,0.0,0.0,0.0,0.0,0.0,0.0,0.0
1606986664371565938,574450,1606983063516123317,imu_link,0.0036080945283174515,0.009172233752906322,0.5281400084495544,0.8491001725196838,0.0,0.0,0.0,0.0,0.0,0.0,0.0,0.0,0.0,63.76852035522461,0.6741079092025757,0.9062740802764893,0.0,0.0,0.0,0.0,0.0,0.0,0.0,0.0,0.0,-0.018344707787036896,-0.01932757906615734,0.010791221633553505,0.0,0.0,0.0,0.0,0.0,0.0,0.0,0.0,0.0
1606986664371591764,574451,1606983063516204786,imu_link,0.003614238230511546,0.009171249344944954,0.5281376242637634,0.8491016030311584,0.0,0.0,0.0,0.0,0.0,0.0,0.0,0.0,0.0,63.7681999206543,0.6736428141593933,0.9068103432655334,0.0,0.0,0.0,0.0,0.0,0.0,0.0,0.0,0.0,0.01418880745768547,-0.011134903877973557,0.006858911365270615,0.0,0.0,0.0,0.0,0.0,0.0,0.0,0.0,0.0
1606986664371603106,574452,1606983063516371066,imu_link,0.003614238230511546,0.009171249344944954,0.5281376242637634,0.8491016030311584,0.0,0.0,0.0,0.0,0.0,0.0,0.0,0.0,0.0,63.7681999206543,0.6736428141593933,0.9068103432655334,0.0,0.0,0.0,0.0,0.0,0.0,0.0,0.0,0.0,0.01418880745768547,-0.011134903877973557,0.006858911365270615,0.0,0.0,0.0,0.0,0.0,0.0,0.0,0.0,0.0
1606986664371638733,574453,1606983063516455496,imu_link,0.003614238230511546,0.009171249344944954,0.5281376242637634,0.8491016030311584,0.0,0.0,0.0,0.0,0.0,0.0,0.0,0.0,0.0,63.7681999206543,0.6736428141593933,0.9068103432655334,0.0,0.0,0.0,0.0,0.0,0.0,0.0,0.0,0.0,0.024287329986691475,-0.0013353361282497644,-0.01617595925927162,0.0,0.0,0.0,0.0,0.0,0.0,0.0,0.0,0.0
1606986664371676441,574454,1606983063516535927,imu_link,0.003614238230511546,0.009171249344944954,0.5281376242637634,0.8491016030311584,0.0,0.0,0.0,0.0,0.0,0.0,0.0,0.0,0.0,63.7681999206543,0.6736428141593933,0.9068103432655334,0.0,0.0,0.0,0.0,0.0,0.0,0.0,0.0,0.0,0.024287329986691475,-0.0013353361282497644,-0.01617595925927162,0.0,0.0,0.0,0.0,0.0,0.0,0.0,0.0,0.0
1606986664378458925,574455,1606983063528958006,imu_link,0.0036098796408623457,0.009173676371574402,0.5281362533569336,0.8491024374961853,0.0,0.0,0.0,0.0,0.0,0.0,0.0,0.0,0.0,63.76802062988281,0.6741441488265991,0.9065321087837219,0.0,0.0,0.0,0.0,0.0,0.0,0.0,0.0,0.0,-0.001065263757482171,0.02457420900464058,-0.014582413248717785,0.0,0.0,0.0,0.0,0.0,0.0,0.0,0.0,0.0
1606986664378488393,574456,1606983063529074896,imu_link,0.0036098796408623457,0.009173676371574402,0.5281362533569336,0.8491024374961853,0.0,0.0,0.0,0.0,0.0,0.0,0.0,0.0,0.0,63.76802062988281,0.6741441488265991,0.9065321087837219,0.0,0.0,0.0,0.0,0.0,0.0,0.0,0.0,0.0,-0.001065263757482171,0.02457420900464058,-0.014582413248717785,0.0,0.0,0.0,0.0,0.0,0.0,0.0,0.0,0.0
1606986664378496646,574457,1606983063529156951,imu_link,0.0036085201427340508,0.009173312224447727,0.5281354188919067,0.8491029739379883,0.0,0.0,0.0,0.0,0.0,0.0,0.0,0.0,0.0,63.767913818359375,0.674191951751709,0.9063770174980164,0.0,0.0,0.0,0.0,0.0,0.0,0.0,0.0,0.0,-0.017378460615873337,0.015377665869891644,0.006564967799931765,0.0,0.0,0.0,0.0,0.0,0.0,0.0,0.0,0.0
1606986664378509553,574458,1606983063529233839,imu_link,0.0036085201427340508,0.009173312224447727,0.5281354188919067,0.8491029739379883,0.0,0.0,0.0,0.0,0.0,0.0,0.0,0.0,0.0,63.767913818359375,0.674191951751709,0.9063770174980164,0.0,0.0,0.0,0.0,0.0,0.0,0.0,0.0,0.0,-0.017378460615873337,0.015377665869891644,0.006564967799931765,0.0,0.0,0.0,0.0,0.0,0.0,0.0,0.0,0.0
1606986664420777901,574459,1606983063529309800,imu_link,0.0036076989490538836,0.009169953875243664,0.5281317234039307,0.8491053581237793,0.0,0.0,0.0,0.0,0.0,0.0,0.0,0.0,0.0,63.767398834228516,0.6739189624786377,0.9060909152030945,0.0,0.0,0.0,0.0,0.0,0.0,0.0,0.0,0.0,-0.017953500151634216,-0.0057682148180902,0.027706969529390335,0.0,0.0,0.0,0.0,0.0,0.0,0.0,0.0,0.0
1606986664420825414,574460,1606983063529402149,imu_link,0.0036076989490538836,0.009169953875243664,0.5281317234039307,0.8491053581237793,0.0,0.0,0.0,0.0,0.0,0.0,0.0,0.0,0.0,63.767398834228516,0.6739189624786377,0.9060909152030945,0.0,0.0,0.0,0.0,0.0,0.0,0.0,0.0,0.0,-0.017953500151634216,-0.0057682148180902,0.027706969529390335,0.0,0.0,0.0,0.0,0.0,0.0,0.0,0.0,0.0
1606986664420833413,574461,1606983063529479969,imu_link,0.003606283338740468,0.009169785305857658,0.5281326174736023,0.8491047620773315,0.0,0.0,0.0,0.0,0.0,0.0,0.0,0.0,0.0,63.76752471923828,0.6739872097969055,0.9059436321258545,0.0,0.0,0.0,0.0,0.0,0.0,0.0,0.0,0.0,-0.022867148742079735,0.0010834906715899706,0.034527793526649475,0.0,0.0,0.0,0.0,0.0,0.0,0.0,0.0,0.0
1606986664420845564,574462,1606983063529555258,imu_link,0.003606283338740468,0.009169785305857658,0.5281326174736023,0.8491047620773315,0.0,0.0,0.0,0.0,0.0,0.0,0.0,0.0,0.0,63.76752471923828,0.6739872097969055,0.9059436321258545,0.0,0.0,0.0,0.0,0.0,0.0,0.0,0.0,0.0,-0.022867148742079735,0.0010834906715899706,0.034527793526649475,0.0,0.0,0.0,0.0,0.0,0.0,0.0,0.0,0.0
1606986664420876705,574463,1606983063529631459,imu_link,0.003609406528994441,0.009165065363049507,0.5281273722648621,0.8491080403327942,0.0,0.0,0.0,0.0,0.0,0.0,0.0,0.0,0.0,63.766807556152344,0.6733444333076477,0.9059577584266663,0.0,0.0,0.0,0.0,0.0,0.0,0.0,0.0,0.0,-0.01784578524529934,0.005988357588648796,0.030970685184001923,0.0,0.0,0.0,0.0,0.0,0.0,0.0,0.0,0.0
1606986664425367259,574464,1606983063529713183,imu_link,0.003609406528994441,0.009165065363049507,0.5281273722648621,0.8491080403327942,0.0,0.0,0.0,0.0,0.0,0.0,0.0,0.0,0.0,63.766807556152344,0.6733444333076477,0.9059577584266663,0.0,0.0,0.0,0.0,0.0,0.0,0.0,0.0,0.0,-0.01784578524529934,0.005988357588648796,0.030970685184001923,0.0,0.0,0.0,0.0,0.0,0.0,0.0,0.0,0.0
1606986664425382943,574465,1606983063529788573,imu_link,0.0036106158513575792,0.009163511916995049,0.5281273722648621,0.849108099937439,0.0,0.0,0.0,0.0,0.0,0.0,0.0,0.0,0.0,63.766807556152344,0.6731202006340027,0.9059812426567078,0.0,0.0,0.0,0.0,0.0,0.0,0.0,0.0,0.0,-0.017095832154154778,0.0017460444942116737,0.04284875839948654,0.0,0.0,0.0,0.0,0.0,0.0,0.0,0.0,0.0
1606986664425400350,574466,1606983063541857690,imu_link,0.0036106158513575792,0.009163511916995049,0.5281273722648621,0.849108099937439,0.0,0.0,0.0,0.0,0.0,0.0,0.0,0.0,0.0,63.766807556152344,0.6731202006340027,0.9059812426567078,0.0,0.0,0.0,0.0,0.0,0.0,0.0,0.0,0.0,-0.017095832154154778,0.0017460444942116737,0.04284875839948654,0.0,0.0,0.0,0.0,0.0,0.0,0.0,0.0,0.0
1606986664425415221,574467,1606983063541948291,imu_link,0.003610429121181369,0.00916153471916914,0.5281324982643127,0.8491048216819763,0.0,0.0,0.0,0.0,0.0,0.0,0.0,0.0,0.0,63.76750183105469,0.6729335784912109,0.9058477282524109,0.0,0.0,0.0,0.0,0.0,0.0,0.0,0.0,0.0,-0.011540848761796951,0.006362436339259148,0.04870443791151047,0.0,0.0,0.0,0.0,0.0,0.0,0.0,0.0,0.0
1606986664433297753,574468,1606983063542058632,imu_link,0.003610429121181369,0.00916153471916914,0.5281324982643127,0.8491048216819763,0.0,0.0,0.0,0.0,0.0,0.0,0.0,0.0,0.0,63.76750183105469,0.6729335784912109,0.9058477282524109,0.0,0.0,0.0,0.0,0.0,0.0,0.0,0.0,0.0,-0.011540848761796951,0.006362436339259148,0.04870443791151047,0.0,0.0,0.0,0.0,0.0,0.0,0.0,0.0,0.0
1606986664433318708,574469,1606983063542115851,imu_link,0.003611965337768197,0.009159205481410027,0.5281318426132202,0.8491052389144897,0.0,0.0,0.0,0.0,0.0,0.0,0.0,0.0,0.0,63.76740646362305,0.6726146340370178,0.9058555960655212,0.0,0.0,0.0,0.0,0.0,0.0,0.0,0.0,0.0,-0.0002737052855081856,0.016066774725914,0.05346027761697769,0.0,0.0,0.0,0.0,0.0,0.0,0.0,0.0,0.0
1606986664433326045,574470,1606983063542169924,imu_link,0.003611965337768197,0.009159205481410027,0.5281318426132202,0.8491052389144897,0.0,0.0,0.0,0.0,0.0,0.0,0.0,0.0,0.0,63.76740646362305,0.6726146340370178,0.9058555960655212,0.0,0.0,0.0,0.0,0.0,0.0,0.0,0.0,0.0,-0.0002737052855081856,0.016066774725914,0.05346027761697769,0.0,0.0,0.0,0.0,0.0,0.0,0.0,0.0,0.0
1606986664433332284,574471,1606983063542253338,imu_link,0.0036106749903410673,0.009157774038612843,0.5281363129615784,0.8491024971008301,0.0,0.0,0.0,0.0,0.0,0.0,0.0,0.0,0.0,63.768009185791016,0.6725486516952515,0.9056469798088074,0.0,0.0,0.0,0.0,0.0,0.0,0.0,0.0,0.0,-0.012557617388665676,-0.0046786535531282425,0.04386986419558525,0.0,0.0,0.0,0.0,0.0,0.0,0.0,0.0,0.0
1606986664433340466,574472,1606983063542320991,imu_link,0.0036106749903410673,0.009157774038612843,0.5281363129615784,0.8491024971008301,0.0,0.0,0.0,0.0,0.0,0.0,0.0,0.0,0.0,63.768009185791016,0.6725486516952515,0.9056469798088074,0.0,0.0,0.0,0.0,0.0,0.0,0.0,0.0,0.0,-0.012557617388665676,-0.0046786535531282425,0.04386986419558525,0.0,0.0,0.0,0.0,0.0,0.0,0.0,0.0,0.0
1606986664437836029,574473,1606983063542390680,imu_link,0.003609788604080677,0.009157311171293259,0.5281368494033813,0.8491023182868958,0.0,0.0,0.0,0.0,0.0,0.0,0.0,0.0,0.0,63.768070220947266,0.6725568771362305,0.9055327773094177,0.0,0.0,0.0,0.0,0.0,0.0,0.0,0.0,0.0,-0.0188605859875679,-0.015655018389225006,0.015088404528796673,0.0,0.0,0.0,0.0,0.0,0.0,0.0,0.0,0.0
1606986664437863209,574474,1606983063542458072,imu_link,0.003609788604080677,0.009157311171293259,0.5281368494033813,0.8491023182868958,0.0,0.0,0.0,0.0,0.0,0.0,0.0,0.0,0.0,63.768070220947266,0.6725568771362305,0.9055327773094177,0.0,0.0,0.0,0.0,0.0,0.0,0.0,0.0,0.0,-0.0188605859875679,-0.015655018389225006,0.015088404528796673,0.0,0.0,0.0,0.0,0.0,0.0,0.0,0.0,0.0
1606986664437872097,574475,1606983063542559347,imu_link,0.003613244043663144,0.009155718609690666,0.5281326174736023,0.8491049408912659,0.0,0.0,0.0,0.0,0.0,0.0,0.0,0.0,0.0,63.76749801635742,0.6721972823143005,0.9057692885398865,0.0,0.0,0.0,0.0,0.0,0.0,0.0,0.0,0.0,-0.006189186591655016,0.0021254895254969597,0.0062025971710681915,0.0,0.0,0.0,0.0,0.0,0.0,0.0,0.0,0.0
1606986664437896759,574476,1606983063555555111,imu_link,0.003613244043663144,0.009155718609690666,0.5281326174736023,0.8491049408912659,0.0,0.0,0.0,0.0,0.0,0.0,0.0,0.0,0.0,63.76749801635742,0.6721972823143005,0.9057692885398865,0.0,0.0,0.0,0.0,0.0,0.0,0.0,0.0,0.0,-0.006189186591655016,0.0021254895254969597,0.0062025971710681915,0.0,0.0,0.0,0.0,0.0,0.0,0.0,0.0,0.0
1606986664494005754,574477,1606983063555658217,imu_link,0.0036138256546109915,0.009155182167887688,0.5281331539154053,0.8491045832633972,0.0,0.0,0.0,0.0,0.0,0.0,0.0,0.0,0.0,63.76757049560547,0.6721093058586121,0.9057939052581787,0.0,0.0,0.0,0.0,0.0,0.0,0.0,0.0,0.0,-0.010893709026277065,-0.0016760134603828192,0.01819084770977497,0.0,0.0,0.0,0.0,0.0,0.0,0.0,0.0,0.0
1606986664494042916,574478,1606983063555765626,imu_link,0.0036138256546109915,0.009155182167887688,0.5281331539154053,0.8491045832633972,0.0,0.0,0.0,0.0,0.0,0.0,0.0,0.0,0.0,63.76757049560547,0.6721093058586121,0.9057939052581787,0.0,0.0,0.0,0.0,0.0,0.0,0.0,0.0,0.0,-0.010893709026277065,-0.0016760134603828192,0.01819084770977497,0.0,0.0,0.0,0.0,0.0,0.0,0.0,0.0,0.0
1606986664494057316,574479,1606983063555836065,imu_link,0.0036139311268925667,0.009155701845884323,0.5281288027763367,0.8491072654724121,0.0,0.0,0.0,0.0,0.0,0.0,0.0,0.0,0.0,63.76698303222656,0.6721580624580383,0.9058322310447693,0.0,0.0,0.0,0.0,0.0,0.0,0.0,0.0,0.0,-0.00968652032315731,-0.0059119947254657745,0.008781078271567822,0.0,0.0,0.0,0.0,0.0,0.0,0.0,0.0,0.0
1606986664494068864,574480,1606983063555912185,imu_link,0.0036139311268925667,0.009155701845884323,0.5281288027763367,0.8491072654724121,0.0,0.0,0.0,0.0,0.0,0.0,0.0,0.0,0.0,63.76698303222656,0.6721580624580383,0.9058322310447693,0.0,0.0,0.0,0.0,0.0,0.0,0.0,0.0,0.0,-0.00968652032315731,-0.0059119947254657745,0.008781078271567822,0.0,0.0,0.0,0.0,0.0,0.0,0.0,0.0,0.0
1606986664494099873,574481,1606983063555976518,imu_link,0.0036156384740024805,0.009154412895441055,0.5281277894973755,0.8491078019142151,0.0,0.0,0.0,0.0,0.0,0.0,0.0,0.0,0.0,63.76685333251953,0.6719303727149963,0.9059197306632996,0.0,0.0,0.0,0.0,0.0,0.0,0.0,0.0,0.0,-0.005702405236661434,0.03077748231589794,0.0018921366427093744,0.0,0.0,0.0,0.0,0.0,0.0,0.0,0.0,0.0
1606986664502783447,574482,1606983063556053023,imu_link,0.0036156384740024805,0.009154412895441055,0.5281277894973755,0.8491078019142151,0.0,0.0,0.0,0.0,0.0,0.0,0.0,0.0,0.0,63.76685333251953,0.6719303727149963,0.9059197306632996,0.0,0.0,0.0,0.0,0.0,0.0,0.0,0.0,0.0,-0.005702405236661434,0.03077748231589794,0.0018921366427093744,0.0,0.0,0.0,0.0,0.0,0.0,0.0,0.0,0.0
1606986664502811944,574483,1606983063556117472,imu_link,0.0036117618437856436,0.009151292964816093,0.5281333327293396,0.8491044640541077,0.0,0.0,0.0,0.0,0.0,0.0,0.0,0.0,0.0,63.76759338378906,0.671855628490448,0.9053577184677124,0.0,0.0,0.0,0.0,0.0,0.0,0.0,0.0,0.0,-0.0010146896820515394,0.03791597858071327,0.030437031760811806,0.0,0.0,0.0,0.0,0.0,0.0,0.0,0.0,0.0
1606986664502824365,574484,1606983063556214513,imu_link,0.0036117618437856436,0.009151292964816093,0.5281333327293396,0.8491044640541077,0.0,0.0,0.0,0.0,0.0,0.0,0.0,0.0,0.0,63.76759338378906,0.671855628490448,0.9053577184677124,0.0,0.0,0.0,0.0,0.0,0.0,0.0,0.0,0.0,-0.0010146896820515394,0.03791597858071327,0.030437031760811806,0.0,0.0,0.0,0.0,0.0,0.0,0.0,0.0,0.0
1606986664502831068,574485,1606983063556282903,imu_link,0.003612389089539647,0.009151448495686054,0.5281326770782471,0.8491048812866211,0.0,0.0,0.0,0.0,0.0,0.0,0.0,0.0,0.0,63.76750183105469,0.6718334555625916,0.905427873134613,0.0,0.0,0.0,0.0,0.0,0.0,0.0,0.0,0.0,0.0100367097184062,0.010077177546918392,0.014485720545053482,0.0,0.0,0.0,0.0,0.0,0.0,0.0,0.0,0.0
1606986664512102973,574486,1606983063556351991,imu_link,0.003612389089539647,0.009151448495686054,0.5281326770782471,0.8491048812866211,0.0,0.0,0.0,0.0,0.0,0.0,0.0,0.0,0.0,63.76750183105469,0.6718334555625916,0.905427873134613,0.0,0.0,0.0,0.0,0.0,0.0,0.0,0.0,0.0,0.0100367097184062,0.010077177546918392,0.014485720545053482,0.0,0.0,0.0,0.0,0.0,0.0,0.0,0.0,0.0
1606986664512133072,574487,1606983063569209276,imu_link,0.0036105115432292223,0.009151858277618885,0.5281388759613037,0.8491010069847107,0.0,0.0,0.0,0.0,0.0,0.0,0.0,0.0,0.0,63.76833724975586,0.6719803810119629,0.9052746891975403,0.0,0.0,0.0,0.0,0.0,0.0,0.0,0.0,0.0,-2.143062010873109e-05,0.0051638404838740826,-0.017932362854480743,0.0,0.0,0.0,0.0,0.0,0.0,0.0,0.0,0.0
1606986664512152016,574488,1606983063569335688,imu_link,0.0036105115432292223,0.009151858277618885,0.5281388759613037,0.8491010069847107,0.0,0.0,0.0,0.0,0.0,0.0,0.0,0.0,0.0,63.76833724975586,0.6719803810119629,0.9052746891975403,0.0,0.0,0.0,0.0,0.0,0.0,0.0,0.0,0.0,-2.143062010873109e-05,0.0051638404838740826,-0.017932362854480743,0.0,0.0,0.0,0.0,0.0,0.0,0.0,0.0,0.0
1606986664512166159,574489,1606983063569500969,imu_link,0.003610969753935933,0.009153855964541435,0.5281407237052917,0.8490998148918152,0.0,0.0,0.0,0.0,0.0,0.0,0.0,0.0,0.0,63.76859664916992,0.6721449494361877,0.9054418206214905,0.0,0.0,0.0,0.0,0.0,0.0,0.0,0.0,0.0,-0.01714233122766018,0.00024305321858264506,-0.018320664763450623,0.0,0.0,0.0,0.0,0.0,0.0,0.0,0.0,0.0
1606986664512184857,574490,1606983063569593806,imu_link,0.003610969753935933,0.009153855964541435,0.5281407237052917,0.8490998148918152,0.0,0.0,0.0,0.0,0.0,0.0,0.0,0.0,0.0,63.76859664916992,0.6721449494361877,0.9054418206214905,0.0,0.0,0.0,0.0,0.0,0.0,0.0,0.0,0.0,-0.01714233122766018,0.00024305321858264506,-0.018320664763450623,0.0,0.0,0.0,0.0,0.0,0.0,0.0,0.0,0.0
1606986664518595075,574491,1606983063569704404,imu_link,0.003610554849728942,0.009152201935648918,0.5281358957290649,0.8491029143333435,0.0,0.0,0.0,0.0,0.0,0.0,0.0,0.0,0.0,63.7679328918457,0.6720144152641296,0.9052973389625549,0.0,0.0,0.0,0.0,0.0,0.0,0.0,0.0,0.0,-0.0228948462754488,-0.014396663755178452,0.004962860606610775,0.0,0.0,0.0,0.0,0.0,0.0,0.0,0.0,0.0
1606986664518624832,574492,1606983063569784006,imu_link,0.003610554849728942,0.009152201935648918,0.5281358957290649,0.8491029143333435,0.0,0.0,0.0,0.0,0.0,0.0,0.0,0.0,0.0,63.7679328918457,0.6720144152641296,0.9052973389625549,0.0,0.0,0.0,0.0,0.0,0.0,0.0,0.0,0.0,-0.0228948462754488,-0.014396663755178452,0.004962860606610775,0.0,0.0,0.0,0.0,0.0,0.0,0.0,0.0,0.0
1606986664518638959,574493,1606983063569868584,imu_link,0.0036112505476921797,0.009152790531516075,0.5281365513801575,0.8491024971008301,0.0,0.0,0.0,0.0,0.0,0.0,0.0,0.0,0.0,63.76802062988281,0.6720288395881653,0.9054014086723328,0.0,0.0,0.0,0.0,0.0,0.0,0.0,0.0,0.0,-0.019410399720072746,-0.024875910952687263,0.02171214483678341,0.0,0.0,0.0,0.0,0.0,0.0,0.0,0.0,0.0
1606986664518685753,574494,1606983063569940653,imu_link,0.0036112505476921797,0.009152790531516075,0.5281365513801575,0.8491024971008301,0.0,0.0,0.0,0.0,0.0,0.0,0.0,0.0,0.0,63.76802062988281,0.6720288395881653,0.9054014086723328,0.0,0.0,0.0,0.0,0.0,0.0,0.0,0.0,0.0,-0.019410399720072746,-0.024875910952687263,0.02171214483678341,0.0,0.0,0.0,0.0,0.0,0.0,0.0,0.0,0.0
1606986664633742146,574495,1606983063570074434,imu_link,0.0036153411492705345,0.00915484968572855,0.5281327962875366,0.8491048216819763,0.0,0.0,0.0,0.0,0.0,0.0,0.0,0.0,0.0,63.76752471923828,0.6719856262207031,0.9059210419654846,0.0,0.0,0.0,0.0,0.0,0.0,0.0,0.0,0.0,-0.013557033613324165,-0.021458398550748825,0.008446428924798965,0.0,0.0,0.0,0.0,0.0,0.0,0.0,0.0,0.0
1606986664633757030,574496,1606983063570151902,imu_link,0.0036153411492705345,0.00915484968572855,0.5281327962875366,0.8491048216819763,0.0,0.0,0.0,0.0,0.0,0.0,0.0,0.0,0.0,63.76752471923828,0.6719856262207031,0.9059210419654846,0.0,0.0,0.0,0.0,0.0,0.0,0.0,0.0,0.0,-0.013557033613324165,-0.021458398550748825,0.008446428924798965,0.0,0.0,0.0,0.0,0.0,0.0,0.0,0.0,0.0
1606986664633771180,574497,1606983063570219534,imu_link,0.0036141332238912582,0.00915414746850729,0.5281338691711426,0.8491040468215942,0.0,0.0,0.0,0.0,0.0,0.0,0.0,0.0,0.0,63.76767349243164,0.6719892024993896,0.9057618975639343,0.0,0.0,0.0,0.0,0.0,0.0,0.0,0.0,0.0,-0.002329134149476886,-0.01102964486926794,0.019282421097159386,0.0,0.0,0.0,0.0,0.0,0.0,0.0,0.0,0.0
1606986664633782764,574498,1606983063583094168,imu_link,0.0036141332238912582,0.00915414746850729,0.5281338691711426,0.8491040468215942,0.0,0.0,0.0,0.0,0.0,0.0,0.0,0.0,0.0,63.76767349243164,0.6719892024993896,0.9057618975639343,0.0,0.0,0.0,0.0,0.0,0.0,0.0,0.0,0.0,-0.002329134149476886,-0.01102964486926794,0.019282421097159386,0.0,0.0,0.0,0.0,0.0,0.0,0.0,0.0,0.0
1606986664633788792,574499,1606983063583223084,imu_link,0.0036159746814519167,0.00915485993027687,0.5281404256820679,0.8491000533103943,0.0,0.0,0.0,0.0,0.0,0.0,0.0,0.0,0.0,63.7685546875,0.6719401478767395,0.9059891104698181,0.0,0.0,0.0,0.0,0.0,0.0,0.0,0.0,0.0,0.016051867976784706,-0.005215645767748356,0.03820669651031494,0.0,0.0,0.0,0.0,0.0,0.0,0.0,0.0,0.0
1606986664636943762,574500,1606983063583360005,imu_link,0.0036159746814519167,0.00915485993027687,0.5281404256820679,0.8491000533103943,0.0,0.0,0.0,0.0,0.0,0.0,0.0,0.0,0.0,63.7685546875,0.6719401478767395,0.9059891104698181,0.0,0.0,0.0,0.0,0.0,0.0,0.0,0.0,0.0,0.016051867976784706,-0.005215645767748356,0.03820669651031494,0.0,0.0,0.0,0.0,0.0,0.0,0.0,0.0,0.0
1606986664636982611,574501,1606983063583443469,imu_link,0.003615339519456029,0.009152675047516823,0.5281403064727783,0.8491000533103943,0.0,0.0,0.0,0.0,0.0,0.0,0.0,0.0,0.0,63.76853561401367,0.6717659831047058,0.9057952165603638,0.0,0.0,0.0,0.0,0.0,0.0,0.0,0.0,0.0,0.021352238953113556,-0.019755173474550247,0.024850839748978615,0.0,0.0,0.0,0.0,0.0,0.0,0.0,0.0,0.0
1606986664637020078,574502,1606983063583514233,imu_link,0.003615339519456029,0.009152675047516823,0.5281403064727783,0.8491000533103943,0.0,0.0,0.0,0.0,0.0,0.0,0.0,0.0,0.0,63.76853561401367,0.6717659831047058,0.9057952165603638,0.0,0.0,0.0,0.0,0.0,0.0,0.0,0.0,0.0,0.021352238953113556,-0.019755173474550247,0.024850839748978615,0.0,0.0,0.0,0.0,0.0,0.0,0.0,0.0,0.0
1606986664637031191,574503,1606983063583605756,imu_link,0.0036145560443401337,0.009156676940619946,0.5281457304954529,0.8490967750549316,0.0,0.0,0.0,0.0,0.0,0.0,0.0,0.0,0.0,63.769264221191406,0.672197163105011,0.9059654474258423,0.0,0.0,0.0,0.0,0.0,0.0,0.0,0.0,0.0,0.006416571792215109,-0.017533259466290474,0.010421491228044033,0.0,0.0,0.0,0.0,0.0,0.0,0.0,0.0,0.0
1606986664645815897,574504,1606983063583681718,imu_link,0.0036145560443401337,0.009156676940619946,0.5281457304954529,0.8490967750549316,0.0,0.0,0.0,0.0,0.0,0.0,0.0,0.0,0.0,63.769264221191406,0.672197163105011,0.9059654474258423,0.0,0.0,0.0,0.0,0.0,0.0,0.0,0.0,0.0,0.006416571792215109,-0.017533259466290474,0.010421491228044033,0.0,0.0,0.0,0.0,0.0,0.0,0.0,0.0,0.0
1606986664645840773,574505,1606983063583753720,imu_link,0.0036135660484433174,0.009158915840089321,0.528143584728241,0.8490980863571167,0.0,0.0,0.0,0.0,0.0,0.0,0.0,0.0,0.0,63.768985748291016,0.6724771857261658,0.9060028791427612,0.0,0.0,0.0,0.0,0.0,0.0,0.0,0.0,0.0,-0.004254018422216177,-0.011472885496914387,-0.013127150014042854,0.0,0.0,0.0,0.0,0.0,0.0,0.0,0.0,0.0
1606986664645852341,574506,1606983063583827736,imu_link,0.0036135660484433174,0.009158915840089321,0.528143584728241,0.8490980863571167,0.0,0.0,0.0,0.0,0.0,0.0,0.0,0.0,0.0,63.768985748291016,0.6724771857261658,0.9060028791427612,0.0,0.0,0.0,0.0,0.0,0.0,0.0,0.0,0.0,-0.004254018422216177,-0.011472885496914387,-0.013127150014042854,0.0,0.0,0.0,0.0,0.0,0.0,0.0,0.0,0.0
1606986664645865519,574507,1606983063583899833,imu_link,0.003616783767938614,0.009159102104604244,0.5281404852867126,0.8490999937057495,0.0,0.0,0.0,0.0,0.0,0.0,0.0,0.0,0.0,63.76856994628906,0.6723037958145142,0.9063248634338379,0.0,0.0,0.0,0.0,0.0,0.0,0.0,0.0,0.0,-0.0016549420543015003,-0.00893127266317606,-0.018093032762408257,0.0,0.0,0.0,0.0,0.0,0.0,0.0,0.0,0.0
1606986664648810559,574508,1606983063583971384,imu_link,0.003616783767938614,0.009159102104604244,0.5281404852867126,0.8490999937057495,0.0,0.0,0.0,0.0,0.0,0.0,0.0,0.0,0.0,63.76856994628906,0.6723037958145142,0.9063248634338379,0.0,0.0,0.0,0.0,0.0,0.0,0.0,0.0,0.0,-0.0016549420543015003,-0.00893127266317606,-0.018093032762408257,0.0,0.0,0.0,0.0,0.0,0.0,0.0,0.0,0.0
1606986664648846869,574509,1606983063595739553,imu_link,0.003615244757384062,0.009157457388937473,0.528140127658844,0.8491001129150391,0.0,0.0,0.0,0.0,0.0,0.0,0.0,0.0,0.0,63.76852035522461,0.6722372770309448,0.9060753583908081,0.0,0.0,0.0,0.0,0.0,0.0,0.0,0.0,0.0,-0.0049367863684892654,-0.0007855314761400223,0.022538060322403908,0.0,0.0,0.0,0.0,0.0,0.0,0.0,0.0,0.0
1606986664648856943,574510,1606983063595843763,imu_link,0.003615244757384062,0.009157457388937473,0.528140127658844,0.8491001129150391,0.0,0.0,0.0,0.0,0.0,0.0,0.0,0.0,0.0,63.76852035522461,0.6722372770309448,0.9060753583908081,0.0,0.0,0.0,0.0,0.0,0.0,0.0,0.0,0.0,-0.0049367863684892654,-0.0007855314761400223,0.022538060322403908,0.0,0.0,0.0,0.0,0.0,0.0,0.0,0.0,0.0
1606986664648874273,574511,1606983063595919034,imu_link,0.0036153162363916636,0.009155658073723316,0.5281357765197754,0.8491029739379883,0.0,0.0,0.0,0.0,0.0,0.0,0.0,0.0,0.0,63.767921447753906,0.6720626354217529,0.9059697985649109,0.0,0.0,0.0,0.0,0.0,0.0,0.0,0.0,0.0,-0.004598138853907585,-0.004122018348425627,0.042482778429985046,0.0,0.0,0.0,0.0,0.0,0.0,0.0,0.0,0.0
1606986664648928087,574512,1606983063595997581,imu_link,0.0036153162363916636,0.009155658073723316,0.5281357765197754,0.8491029739379883,0.0,0.0,0.0,0.0,0.0,0.0,0.0,0.0,0.0,63.767921447753906,0.6720626354217529,0.9059697985649109,0.0,0.0,0.0,0.0,0.0,0.0,0.0,0.0,0.0,-0.004598138853907585,-0.004122018348425627,0.042482778429985046,0.0,0.0,0.0,0.0,0.0,0.0,0.0,0.0,0.0
1606986664789324876,574513,1606983063596072746,imu_link,0.0036135483533143997,0.00915632676333189,0.5281352400779724,0.8491032719612122,0.0,0.0,0.0,0.0,0.0,0.0,0.0,0.0,0.0,63.767852783203125,0.6722352504730225,0.905837893486023,0.0,0.0,0.0,0.0,0.0,0.0,0.0,0.0,0.0,0.0006764469435438514,-0.000270103249931708,0.02623189240694046,0.0,0.0,0.0,0.0,0.0,0.0,0.0,0.0,0.0
1606986664789353667,574514,1606983063596164060,imu_link,0.0036135483533143997,0.00915632676333189,0.5281352400779724,0.8491032719612122,0.0,0.0,0.0,0.0,0.0,0.0,0.0,0.0,0.0,63.767852783203125,0.6722352504730225,0.905837893486023,0.0,0.0,0.0,0.0,0.0,0.0,0.0,0.0,0.0,0.0006764469435438514,-0.000270103249931708,0.02623189240694046,0.0,0.0,0.0,0.0,0.0,0.0,0.0,0.0,0.0
1606986664789377538,574515,1606983063596235697,imu_link,0.0036128992214798927,0.00915587693452835,0.5281268954277039,0.8491084575653076,0.0,0.0,0.0,0.0,0.0,0.0,0.0,0.0,0.0,63.7667236328125,0.6722396016120911,0.9057408571243286,0.0,0.0,0.0,0.0,0.0,0.0,0.0,0.0,0.0,-0.00021989898232277483,-0.0112861143425107,0.006547626573592424,0.0,0.0,0.0,0.0,0.0,0.0,0.0,0.0,0.0
1606986664789398284,574516,1606983063596385404,imu_link,0.0036128992214798927,0.00915587693452835,0.5281268954277039,0.8491084575653076,0.0,0.0,0.0,0.0,0.0,0.0,0.0,0.0,0.0,63.7667236328125,0.6722396016120911,0.9057408571243286,0.0,0.0,0.0,0.0,0.0,0.0,0.0,0.0,0.0,-0.00021989898232277483,-0.0112861143425107,0.006547626573592424,0.0,0.0,0.0,0.0,0.0,0.0,0.0,0.0,0.0
1606986664793237274,574517,1606983063596459525,imu_link,0.0036135693080723286,0.00915570743381977,0.5281268358230591,0.8491085171699524,0.0,0.0,0.0,0.0,0.0,0.0,0.0,0.0,0.0,63.76671600341797,0.6721826791763306,0.9057957530021667,0.0,0.0,0.0,0.0,0.0,0.0,0.0,0.0,0.0,-0.012129741720855236,-0.007944011129438877,0.0010716236429288983,0.0,0.0,0.0,0.0,0.0,0.0,0.0,0.0,0.0
1606986664793256520,574518,1606983063596527924,imu_link,0.0036135693080723286,0.00915570743381977,0.5281268358230591,0.8491085171699524,0.0,0.0,0.0,0.0,0.0,0.0,0.0,0.0,0.0,63.76671600341797,0.6721826791763306,0.9057957530021667,0.0,0.0,0.0,0.0,0.0,0.0,0.0,0.0,0.0,-0.012129741720855236,-0.007944011129438877,0.0010716236429288983,0.0,0.0,0.0,0.0,0.0,0.0,0.0,0.0,0.0
1606986664793265065,574519,1606983063609411068,imu_link,0.0036127418279647827,0.009151601232588291,0.528120219707489,0.8491126894950867,0.0,0.0,0.0,0.0,0.0,0.0,0.0,0.0,0.0,63.76581573486328,0.6718403697013855,0.9054614901542664,0.0,0.0,0.0,0.0,0.0,0.0,0.0,0.0,0.0,-0.014331922866404057,0.004206300713121891,0.01847061514854431,0.0,0.0,0.0,0.0,0.0,0.0,0.0,0.0,0.0
1606986664793283069,574520,1606983063609558189,imu_link,0.0036127418279647827,0.009151601232588291,0.528120219707489,0.8491126894950867,0.0,0.0,0.0,0.0,0.0,0.0,0.0,0.0,0.0,63.76581573486328,0.6718403697013855,0.9054614901542664,0.0,0.0,0.0,0.0,0.0,0.0,0.0,0.0,0.0,-0.014331922866404057,0.004206300713121891,0.01847061514854431,0.0,0.0,0.0,0.0,0.0,0.0,0.0,0.0,0.0
1606986664793295721,574521,1606983063609708597,imu_link,0.0036132836248725653,0.00915138702839613,0.5281203389167786,0.8491125702857971,0.0,0.0,0.0,0.0,0.0,0.0,0.0,0.0,0.0,63.76583480834961,0.6717865467071533,0.9055013656616211,0.0,0.0,0.0,0.0,0.0,0.0,0.0,0.0,0.0,-0.008873817510902882,0.017088497057557106,0.023728910833597183,0.0,0.0,0.0,0.0,0.0,0.0,0.0,0.0,0.0
1606986664802633873,574522,1606983063609811099,imu_link,0.0036132836248725653,0.00915138702839613,0.5281203389167786,0.8491125702857971,0.0,0.0,0.0,0.0,0.0,0.0,0.0,0.0,0.0,63.76583480834961,0.6717865467071533,0.9055013656616211,0.0,0.0,0.0,0.0,0.0,0.0,0.0,0.0,0.0,-0.008873817510902882,0.017088497057557106,0.023728910833597183,0.0,0.0,0.0,0.0,0.0,0.0,0.0,0.0,0.0
1606986664802654749,574523,1606983063609888939,imu_link,0.003611963940784335,0.009150980971753597,0.5281196236610413,0.8491130471229553,0.0,0.0,0.0,0.0,0.0,0.0,0.0,0.0,0.0,63.7657356262207,0.6718277335166931,0.9053475856781006,0.0,0.0,0.0,0.0,0.0,0.0,0.0,0.0,0.0,-0.009463651105761528,0.023023908957839012,0.012839141301810741,0.0,0.0,0.0,0.0,0.0,0.0,0.0,0.0,0.0
1606986664802667092,574524,1606983063609969666,imu_link,0.003611963940784335,0.009150980971753597,0.5281196236610413,0.8491130471229553,0.0,0.0,0.0,0.0,0.0,0.0,0.0,0.0,0.0,63.7657356262207,0.6718277335166931,0.9053475856781006,0.0,0.0,0.0,0.0,0.0,0.0,0.0,0.0,0.0,-0.009463651105761528,0.023023908957839012,0.012839141301810741,0.0,0.0,0.0,0.0,0.0,0.0,0.0,0.0,0.0
1606986664802674598,574525,1606983063610081901,imu_link,0.00361119257286191,0.009151794947683811,0.5281182527542114,0.8491138815879822,0.0,0.0,0.0,0.0,0.0,0.0,0.0,0.0,0.0,63.76554870605469,0.6719549894332886,0.9053207039833069,0.0,0.0,0.0,0.0,0.0,0.0,0.0,0.0,0.0,-0.009581247344613075,0.011236882768571377,-0.009487062692642212,0.0,0.0,0.0,0.0,0.0,0.0,0.0,0.0,0.0
1606986664812619894,574526,1606983063610165534,imu_link,0.00361119257286191,0.009151794947683811,0.5281182527542114,0.8491138815879822,0.0,0.0,0.0,0.0,0.0,0.0,0.0,0.0,0.0,63.76554870605469,0.6719549894332886,0.9053207039833069,0.0,0.0,0.0,0.0,0.0,0.0,0.0,0.0,0.0,-0.009581247344613075,0.011236882768571377,-0.009487062692642212,0.0,0.0,0.0,0.0,0.0,0.0,0.0,0.0,0.0
1606986664812646721,574527,1606983063610334992,imu_link,0.003610430285334587,0.009149717167019844,0.5281186699867249,0.8491136431694031,0.0,0.0,0.0,0.0,0.0,0.0,0.0,0.0,0.0,63.76560592651367,0.6717984676361084,0.9051211476325989,0.0,0.0,0.0,0.0,0.0,0.0,0.0,0.0,0.0,-0.004982331767678261,0.017099052667617798,-0.0064437598921358585,0.0,0.0,0.0,0.0,0.0,0.0,0.0,0.0,0.0
1606986664812662901,574528,1606983063610424995,imu_link,0.003610430285334587,0.009149717167019844,0.5281186699867249,0.8491136431694031,0.0,0.0,0.0,0.0,0.0,0.0,0.0,0.0,0.0,63.76560592651367,0.6717984676361084,0.9051211476325989,0.0,0.0,0.0,0.0,0.0,0.0,0.0,0.0,0.0,-0.004982331767678261,0.017099052667617798,-0.0064437598921358585,0.0,0.0,0.0,0.0,0.0,0.0,0.0,0.0,0.0
1606986664812691730,574529,1606983063610583853,imu_link,0.0036103446036577225,0.009148616343736649,0.5281190276145935,0.849113404750824,0.0,0.0,0.0,0.0,0.0,0.0,0.0,0.0,0.0,63.76565933227539,0.6716961860656738,0.9050466418266296,0.0,0.0,0.0,0.0,0.0,0.0,0.0,0.0,0.0,0.007063090801239014,0.011916215531527996,-0.0007864829967729747,0.0,0.0,0.0,0.0,0.0,0.0,0.0,0.0,0.0
1606986664812719198,574530,1606983063623084804,imu_link,0.0036103446036577225,0.009148616343736649,0.5281190276145935,0.849113404750824,0.0,0.0,0.0,0.0,0.0,0.0,0.0,0.0,0.0,63.76565933227539,0.6716961860656738,0.9050466418266296,0.0,0.0,0.0,0.0,0.0,0.0,0.0,0.0,0.0,0.007063090801239014,0.011916215531527996,-0.0007864829967729747,0.0,0.0,0.0,0.0,0.0,0.0,0.0,0.0,0.0
1606986664917104981,574531,1606983063623222768,imu_link,0.0036079816054552794,0.009148526936769485,0.5281175971031189,0.8491142988204956,0.0,0.0,0.0,0.0,0.0,0.0,0.0,0.0,0.0,63.76546859741211,0.6718320250511169,0.9048100709915161,0.0,0.0,0.0,0.0,0.0,0.0,0.0,0.0,0.0,0.0014873893233016133,0.0025666493456810713,-0.009442447684705257,0.0,0.0,0.0,0.0,0.0,0.0,0.0,0.0,0.0
1606986664917133944,574532,1606983063623379375,imu_link,0.0036079816054552794,0.009148526936769485,0.5281175971031189,0.8491142988204956,0.0,0.0,0.0,0.0,0.0,0.0,0.0,0.0,0.0,63.76546859741211,0.6718320250511169,0.9048100709915161,0.0,0.0,0.0,0.0,0.0,0.0,0.0,0.0,0.0,0.0014873893233016133,0.0025666493456810713,-0.009442447684705257,0.0,0.0,0.0,0.0,0.0,0.0,0.0,0.0,0.0
1606986664917141267,574533,1606983063623476936,imu_link,0.0036105362232774496,0.009147955104708672,0.5281190872192383,0.849113404750824,0.0,0.0,0.0,0.0,0.0,0.0,0.0,0.0,0.0,63.76565933227539,0.6716201901435852,0.9050251841545105,0.0,0.0,0.0,0.0,0.0,0.0,0.0,0.0,0.0,-0.00029729935340583324,0.009734980762004852,0.024106040596961975,0.0,0.0,0.0,0.0,0.0,0.0,0.0,0.0,0.0
1606986664917170230,574534,1606983063623557487,imu_link,0.0036105362232774496,0.009147955104708672,0.5281190872192383,0.849113404750824,0.0,0.0,0.0,0.0,0.0,0.0,0.0,0.0,0.0,63.76565933227539,0.6716201901435852,0.9050251841545105,0.0,0.0,0.0,0.0,0.0,0.0,0.0,0.0,0.0,-0.00029729935340583324,0.009734980762004852,0.024106040596961975,0.0,0.0,0.0,0.0,0.0,0.0,0.0,0.0,0.0
1606986664921848894,574535,1606983063623641106,imu_link,0.0036100076977163553,0.00914612878113985,0.5281195044517517,0.8491131663322449,0.0,0.0,0.0,0.0,0.0,0.0,0.0,0.0,0.0,63.76571273803711,0.671474039554596,0.9048635363578796,0.0,0.0,0.0,0.0,0.0,0.0,0.0,0.0,0.0,0.01309469249099493,0.0043418798595666885,0.05011671409010887,0.0,0.0,0.0,0.0,0.0,0.0,0.0,0.0,0.0
1606986664921916743,574536,1606983063623746615,imu_link,0.0036100076977163553,0.00914612878113985,0.5281195044517517,0.8491131663322449,0.0,0.0,0.0,0.0,0.0,0.0,0.0,0.0,0.0,63.76571273803711,0.671474039554596,0.9048635363578796,0.0,0.0,0.0,0.0,0.0,0.0,0.0,0.0,0.0,0.01309469249099493,0.0043418798595666885,0.05011671409010887,0.0,0.0,0.0,0.0,0.0,0.0,0.0,0.0,0.0
1606986664921934406,574537,1606983063623830128,imu_link,0.003610714105889201,0.009145275689661503,0.528118371963501,0.8491138815879822,0.0,0.0,0.0,0.0,0.0,0.0,0.0,0.0,0.0,63.76555633544922,0.6713495850563049,0.904879629611969,0.0,0.0,0.0,0.0,0.0,0.0,0.0,0.0,0.0,0.018576880916953087,0.009049487300217152,0.014328287914395332,0.0,0.0,0.0,0.0,0.0,0.0,0.0,0.0,0.0
1606986664921958545,574538,1606983063623911822,imu_link,0.003610714105889201,0.009145275689661503,0.528118371963501,0.8491138815879822,0.0,0.0,0.0,0.0,0.0,0.0,0.0,0.0,0.0,63.76555633544922,0.6713495850563049,0.904879629611969,0.0,0.0,0.0,0.0,0.0,0.0,0.0,0.0,0.0,0.018576880916953087,0.009049487300217152,0.014328287914395332,0.0,0.0,0.0,0.0,0.0,0.0,0.0,0.0,0.0
1606986664921976545,574539,1606983063623993151,imu_link,0.0036087646149098873,0.009147298522293568,0.5281209349632263,0.8491122722625732,0.0,0.0,0.0,0.0,0.0,0.0,0.0,0.0,0.0,63.76590347290039,0.6716616153717041,0.9048144221305847,0.0,0.0,0.0,0.0,0.0,0.0,0.0,0.0,0.0,0.007254472002387047,0.0025086149107664824,-0.0006613722071051598,0.0,0.0,0.0,0.0,0.0,0.0,0.0,0.0,0.0
1606986664928977129,574540,1606983063624075526,imu_link,0.0036087646149098873,0.009147298522293568,0.5281209349632263,0.8491122722625732,0.0,0.0,0.0,0.0,0.0,0.0,0.0,0.0,0.0,63.76590347290039,0.6716616153717041,0.9048144221305847,0.0,0.0,0.0,0.0,0.0,0.0,0.0,0.0,0.0,0.007254472002387047,0.0025086149107664824,-0.0006613722071051598,0.0,0.0,0.0,0.0,0.0,0.0,0.0,0.0,0.0
1606986664929018453,574541,1606983063636573891,imu_link,0.0036112768575549126,0.009148183278739452,0.5281211137771606,0.8491120934486389,0.0,0.0,0.0,0.0,0.0,0.0,0.0,0.0,0.0,63.765933990478516,0.6715953350067139,0.905112624168396,0.0,0.0,0.0,0.0,0.0,0.0,0.0,0.0,0.0,0.000653862371109426,-0.005571953486651182,-0.005110467318445444,0.0,0.0,0.0,0.0,0.0,0.0,0.0,0.0,0.0
1606986664929034846,574542,1606983063636715108,imu_link,0.0036112768575549126,0.009148183278739452,0.5281211137771606,0.8491120934486389,0.0,0.0,0.0,0.0,0.0,0.0,0.0,0.0,0.0,63.765933990478516,0.6715953350067139,0.905112624168396,0.0,0.0,0.0,0.0,0.0,0.0,0.0,0.0,0.0,0.000653862371109426,-0.005571953486651182,-0.005110467318445444,0.0,0.0,0.0,0.0,0.0,0.0,0.0,0.0,0.0
1606986664929049063,574543,1606983063636853995,imu_link,0.0036111853551119566,0.009147841483354568,0.528124213218689,0.8491101264953613,0.0,0.0,0.0,0.0,0.0,0.0,0.0,0.0,0.0,63.766357421875,0.6715643405914307,0.9050856232643127,0.0,0.0,0.0,0.0,0.0,0.0,0.0,0.0,0.0,0.02430415153503418,0.0022807272616773844,-0.017809569835662842,0.0,0.0,0.0,0.0,0.0,0.0,0.0,0.0,0.0
1606986664972942876,574544,1606983063636949370,imu_link,0.0036111853551119566,0.009147841483354568,0.528124213218689,0.8491101264953613,0.0,0.0,0.0,0.0,0.0,0.0,0.0,0.0,0.0,63.766357421875,0.6715643405914307,0.9050856232643127,0.0,0.0,0.0,0.0,0.0,0.0,0.0,0.0,0.0,0.02430415153503418,0.0022807272616773844,-0.017809569835662842,0.0,0.0,0.0,0.0,0.0,0.0,0.0,0.0,0.0
1606986664972969192,574545,1606983063637032438,imu_link,0.003612424712628126,0.009147553704679012,0.5281240344047546,0.8491103649139404,0.0,0.0,0.0,0.0,0.0,0.0,0.0,0.0,0.0,63.766326904296875,0.6714616417884827,0.9051885008811951,0.0,0.0,0.0,0.0,0.0,0.0,0.0,0.0,0.0,0.04147563874721527,-0.003852511290460825,-0.010735229589045048,0.0,0.0,0.0,0.0,0.0,0.0,0.0,0.0,0.0
1606986664972984765,574546,1606983063637113545,imu_link,0.003612424712628126,0.009147553704679012,0.5281240344047546,0.8491103649139404,0.0,0.0,0.0,0.0,0.0,0.0,0.0,0.0,0.0,63.766326904296875,0.6714616417884827,0.9051885008811951,0.0,0.0,0.0,0.0,0.0,0.0,0.0,0.0,0.0,0.04147563874721527,-0.003852511290460825,-0.010735229589045048,0.0,0.0,0.0,0.0,0.0,0.0,0.0,0.0,0.0
1606986664973000537,574547,1606983063637210620,imu_link,0.003609607694670558,0.009153102524578571,0.5281211733818054,0.8491120934486389,0.0,0.0,0.0,0.0,0.0,0.0,0.0,0.0,0.0,63.76594543457031,0.6721750497817993,0.9052480459213257,0.0,0.0,0.0,0.0,0.0,0.0,0.0,0.0,0.0,0.02005542255938053,-0.00276722339913249,0.021022623404860497,0.0,0.0,0.0,0.0,0.0,0.0,0.0,0.0,0.0
1606986664973016546,574548,1606983063637294745,imu_link,0.003609607694670558,0.009153102524578571,0.5281211733818054,0.8491120934486389,0.0,0.0,0.0,0.0,0.0,0.0,0.0,0.0,0.0,63.76594543457031,0.6721750497817993,0.9052480459213257,0.0,0.0,0.0,0.0,0.0,0.0,0.0,0.0,0.0,0.02005542255938053,-0.00276722339913249,0.021022623404860497,0.0,0.0,0.0,0.0,0.0,0.0,0.0,0.0,0.0
1606986665082664983,574549,1606983063637456619,imu_link,0.003609610488638282,0.00915493443608284,0.5281204581260681,0.8491125106811523,0.0,0.0,0.0,0.0,0.0,0.0,0.0,0.0,0.0,63.7658576965332,0.6723538637161255,0.905358612537384,0.0,0.0,0.0,0.0,0.0,0.0,0.0,0.0,0.0,0.00462443009018898,-5.17664011567831e-06,0.05166672170162201,0.0,0.0,0.0,0.0,0.0,0.0,0.0,0.0,0.0
1606986665082689711,574550,1606983063637539451,imu_link,0.003609610488638282,0.00915493443608284,0.5281204581260681,0.8491125106811523,0.0,0.0,0.0,0.0,0.0,0.0,0.0,0.0,0.0,63.7658576965332,0.6723538637161255,0.905358612537384,0.0,0.0,0.0,0.0,0.0,0.0,0.0,0.0,0.0,0.00462443009018898,-5.17664011567831e-06,0.05166672170162201,0.0,0.0,0.0,0.0,0.0,0.0,0.0,0.0,0.0
1606986665082700122,574551,1606983063637622929,imu_link,0.0036089832428842783,0.009154610335826874,0.5281164050102234,0.8491150140762329,0.0,0.0,0.0,0.0,0.0,0.0,0.0,0.0,0.0,63.76531219482422,0.6723645925521851,0.9052748084068298,0.0,0.0,0.0,0.0,0.0,0.0,0.0,0.0,0.0,-0.009466857649385929,0.0035480638034641743,0.0334954671561718,0.0,0.0,0.0,0.0,0.0,0.0,0.0,0.0,0.0
1606986665082706684,574552,1606983063650506571,imu_link,0.0036089832428842783,0.009154610335826874,0.5281164050102234,0.8491150140762329,0.0,0.0,0.0,0.0,0.0,0.0,0.0,0.0,0.0,63.76531219482422,0.6723645925521851,0.9052748084068298,0.0,0.0,0.0,0.0,0.0,0.0,0.0,0.0,0.0,-0.009466857649385929,0.0035480638034641743,0.0334954671561718,0.0,0.0,0.0,0.0,0.0,0.0,0.0,0.0,0.0
1606986665086864046,574553,1606983063650646946,imu_link,0.003609130159020424,0.00915329996496439,0.5281151533126831,0.849115788936615,0.0,0.0,0.0,0.0,0.0,0.0,0.0,0.0,0.0,63.765140533447266,0.672229528427124,0.9052087664604187,0.0,0.0,0.0,0.0,0.0,0.0,0.0,0.0,0.0,-0.02396532893180847,-0.0006468704086728394,0.020672880113124847,0.0,0.0,0.0,0.0,0.0,0.0,0.0,0.0,0.0
1606986665086899032,574554,1606983063650799729,imu_link,0.003609130159020424,0.00915329996496439,0.5281151533126831,0.849115788936615,0.0,0.0,0.0,0.0,0.0,0.0,0.0,0.0,0.0,63.765140533447266,0.672229528427124,0.9052087664604187,0.0,0.0,0.0,0.0,0.0,0.0,0.0,0.0,0.0,-0.02396532893180847,-0.0006468704086728394,0.020672880113124847,0.0,0.0,0.0,0.0,0.0,0.0,0.0,0.0,0.0
1606986665086914432,574555,1606983063650897931,imu_link,0.003612326690927148,0.009150526486337185,0.5281193852424622,0.8491132259368896,0.0,0.0,0.0,0.0,0.0,0.0,0.0,0.0,0.0,63.76570129394531,0.671761691570282,0.9053552746772766,0.0,0.0,0.0,0.0,0.0,0.0,0.0,0.0,0.0,-0.011337723582983017,-0.007414630614221096,0.022211043164134026,0.0,0.0,0.0,0.0,0.0,0.0,0.0,0.0,0.0
1606986665086934654,574556,1606983063651021137,imu_link,0.003612326690927148,0.009150526486337185,0.5281193852424622,0.8491132259368896,0.0,0.0,0.0,0.0,0.0,0.0,0.0,0.0,0.0,63.76570129394531,0.671761691570282,0.9053552746772766,0.0,0.0,0.0,0.0,0.0,0.0,0.0,0.0,0.0,-0.011337723582983017,-0.007414630614221096,0.022211043164134026,0.0,0.0,0.0,0.0,0.0,0.0,0.0,0.0,0.0
1606986665086955362,574557,1606983063651128585,imu_link,0.0036135087721049786,0.009150626137852669,0.5281201601028442,0.8491126894950867,0.0,0.0,0.0,0.0,0.0,0.0,0.0,0.0,0.0,63.76580810546875,0.6716989874839783,0.9054770469665527,0.0,0.0,0.0,0.0,0.0,0.0,0.0,0.0,0.0,0.0070340195670723915,-0.010899437591433525,0.0008976416429504752,0.0,0.0,0.0,0.0,0.0,0.0,0.0,0.0,0.0
1606986665093792165,574558,1606983063651212284,imu_link,0.0036135087721049786,0.009150626137852669,0.5281201601028442,0.8491126894950867,0.0,0.0,0.0,0.0,0.0,0.0,0.0,0.0,0.0,63.76580810546875,0.6716989874839783,0.9054770469665527,0.0,0.0,0.0,0.0,0.0,0.0,0.0,0.0,0.0,0.0070340195670723915,-0.010899437591433525,0.0008976416429504752,0.0,0.0,0.0,0.0,0.0,0.0,0.0,0.0,0.0
1606986665093828096,574559,1606983063651294254,imu_link,0.0036132032983005047,0.009152359329164028,0.5281230211257935,0.8491108417510986,0.0,0.0,0.0,0.0,0.0,0.0,0.0,0.0,0.0,63.766204833984375,0.6718831062316895,0.9055545330047607,0.0,0.0,0.0,0.0,0.0,0.0,0.0,0.0,0.0,0.007801317609846592,-0.007046223152428865,0.010466394945979118,0.0,0.0,0.0,0.0,0.0,0.0,0.0,0.0,0.0
1606986665093844995,574560,1606983063651377732,imu_link,0.0036132032983005047,0.009152359329164028,0.5281230211257935,0.8491108417510986,0.0,0.0,0.0,0.0,0.0,0.0,0.0,0.0,0.0,63.766204833984375,0.6718831062316895,0.9055545330047607,0.0,0.0,0.0,0.0,0.0,0.0,0.0,0.0,0.0,0.007801317609846592,-0.007046223152428865,0.010466394945979118,0.0,0.0,0.0,0.0,0.0,0.0,0.0,0.0,0.0
1606986665093901493,574561,1606983063651467104,imu_link,0.003612592350691557,0.009151116944849491,0.5281236171722412,0.8491105437278748,0.0,0.0,0.0,0.0,0.0,0.0,0.0,0.0,0.0,63.766273498535156,0.6717985272407532,0.9054203629493713,0.0,0.0,0.0,0.0,0.0,0.0,0.0,0.0,0.0,0.0016693640500307083,-0.0049546086229383945,0.04066549986600876,0.0,0.0,0.0,0.0,0.0,0.0,0.0,0.0,0.0
1606986665106219739,574562,1606983063651555233,imu_link,0.003612592350691557,0.009151116944849491,0.5281236171722412,0.8491105437278748,0.0,0.0,0.0,0.0,0.0,0.0,0.0,0.0,0.0,63.766273498535156,0.6717985272407532,0.9054203629493713,0.0,0.0,0.0,0.0,0.0,0.0,0.0,0.0,0.0,0.0016693640500307083,-0.0049546086229383945,0.04066549986600876,0.0,0.0,0.0,0.0,0.0,0.0,0.0,0.0,0.0
1606986665106251519,574563,1606983063663356469,imu_link,0.003612256608903408,0.009152823127806187,0.5281183123588562,0.8491138219833374,0.0,0.0,0.0,0.0,0.0,0.0,0.0,0.0,0.0,63.76556396484375,0.6719905734062195,0.9054867625236511,0.0,0.0,0.0,0.0,0.0,0.0,0.0,0.0,0.0,0.005871923640370369,-0.002322119427844882,0.031327296048402786,0.0,0.0,0.0,0.0,0.0,0.0,0.0,0.0,0.0
1606986665106263065,574564,1606983063663498227,imu_link,0.003612256608903408,0.009152823127806187,0.5281183123588562,0.8491138219833374,0.0,0.0,0.0,0.0,0.0,0.0,0.0,0.0,0.0,63.76556396484375,0.6719905734062195,0.9054867625236511,0.0,0.0,0.0,0.0,0.0,0.0,0.0,0.0,0.0,0.005871923640370369,-0.002322119427844882,0.031327296048402786,0.0,0.0,0.0,0.0,0.0,0.0,0.0,0.0,0.0
1606986665106276402,574565,1606983063663635515,imu_link,0.0036132782697677612,0.009151906706392765,0.5281193852424622,0.8491131663322449,0.0,0.0,0.0,0.0,0.0,0.0,0.0,0.0,0.0,63.76570510864258,0.6718384623527527,0.9055314660072327,0.0,0.0,0.0,0.0,0.0,0.0,0.0,0.0,0.0,0.014250907115638256,0.01310014259070158,0.019895726814866066,0.0,0.0,0.0,0.0,0.0,0.0,0.0,0.0,0.0
1606986665106323134,574566,1606983063663788173,imu_link,0.0036132782697677612,0.009151906706392765,0.5281193852424622,0.8491131663322449,0.0,0.0,0.0,0.0,0.0,0.0,0.0,0.0,0.0,63.76570510864258,0.6718384623527527,0.9055314660072327,0.0,0.0,0.0,0.0,0.0,0.0,0.0,0.0,0.0,0.014250907115638256,0.01310014259070158,0.019895726814866066,0.0,0.0,0.0,0.0,0.0,0.0,0.0,0.0,0.0
1606986665166910892,574567,1606983063663912115,imu_link,0.003613121574744582,0.009152127429842949,0.5281139612197876,0.8491165637969971,0.0,0.0,0.0,0.0,0.0,0.0,0.0,0.0,0.0,63.764976501464844,0.6718752384185791,0.9055252075195312,0.0,0.0,0.0,0.0,0.0,0.0,0.0,0.0,0.0,0.011376621201634407,0.013820244930684566,-0.011449286714196205,0.0,0.0,0.0,0.0,0.0,0.0,0.0,0.0,0.0
1606986665166933637,574568,1606983063664017860,imu_link,0.003613121574744582,0.009152127429842949,0.5281139612197876,0.8491165637969971,0.0,0.0,0.0,0.0,0.0,0.0,0.0,0.0,0.0,63.764976501464844,0.6718752384185791,0.9055252075195312,0.0,0.0,0.0,0.0,0.0,0.0,0.0,0.0,0.0,0.011376621201634407,0.013820244930684566,-0.011449286714196205,0.0,0.0,0.0,0.0,0.0,0.0,0.0,0.0,0.0
1606986665166941390,574569,1606983063664113416,imu_link,0.003613629611209035,0.009152943268418312,0.5281128883361816,0.8491172194480896,0.0,0.0,0.0,0.0,0.0,0.0,0.0,0.0,0.0,63.76482391357422,0.6719250082969666,0.9056231379508972,0.0,0.0,0.0,0.0,0.0,0.0,0.0,0.0,0.0,0.0011595144169405103,0.0027377023361623287,-0.008326342329382896,0.0,0.0,0.0,0.0,0.0,0.0,0.0,0.0,0.0
1606986665166955776,574570,1606983063664200668,imu_link,0.003613629611209035,0.009152943268418312,0.5281128883361816,0.8491172194480896,0.0,0.0,0.0,0.0,0.0,0.0,0.0,0.0,0.0,63.76482391357422,0.6719250082969666,0.9056231379508972,0.0,0.0,0.0,0.0,0.0,0.0,0.0,0.0,0.0,0.0011595144169405103,0.0027377023361623287,-0.008326342329382896,0.0,0.0,0.0,0.0,0.0,0.0,0.0,0.0,0.0
1606986665170520322,574571,1606983063664287805,imu_link,0.0036121162120252848,0.009153002873063087,0.5281145572662354,0.8491161465644836,0.0,0.0,0.0,0.0,0.0,0.0,0.0,0.0,0.0,63.76505661010742,0.6720204949378967,0.9054809808731079,0.0,0.0,0.0,0.0,0.0,0.0,0.0,0.0,0.0,-0.007769285701215267,0.00032200658461079,0.014335657469928265,0.0,0.0,0.0,0.0,0.0,0.0,0.0,0.0,0.0
1606986665170547726,574572,1606983063664367665,imu_link,0.0036121162120252848,0.009153002873063087,0.5281145572662354,0.8491161465644836,0.0,0.0,0.0,0.0,0.0,0.0,0.0,0.0,0.0,63.76505661010742,0.6720204949378967,0.9054809808731079,0.0,0.0,0.0,0.0,0.0,0.0,0.0,0.0,0.0,-0.007769285701215267,0.00032200658461079,0.014335657469928265,0.0,0.0,0.0,0.0,0.0,0.0,0.0,0.0,0.0
1606986665170556521,574573,1606983063676792850,imu_link,0.003611278720200062,0.009153121151030064,0.5281145572662354,0.8491161465644836,0.0,0.0,0.0,0.0,0.0,0.0,0.0,0.0,0.0,63.76505661010742,0.6720827221870422,0.9054067134857178,0.0,0.0,0.0,0.0,0.0,0.0,0.0,0.0,0.0,-0.008806166239082813,0.012164493091404438,0.005571629386395216,0.0,0.0,0.0,0.0,0.0,0.0,0.0,0.0,0.0
1606986665170565833,574574,1606983063676933746,imu_link,0.003611278720200062,0.009153121151030064,0.5281145572662354,0.8491161465644836,0.0,0.0,0.0,0.0,0.0,0.0,0.0,0.0,0.0,63.76505661010742,0.6720827221870422,0.9054067134857178,0.0,0.0,0.0,0.0,0.0,0.0,0.0,0.0,0.0,-0.008806166239082813,0.012164493091404438,0.005571629386395216,0.0,0.0,0.0,0.0,0.0,0.0,0.0,0.0,0.0
1606986665170582707,574575,1606983063677084139,imu_link,0.003610402112826705,0.009151220321655273,0.5281152129173279,0.8491157293319702,0.0,0.0,0.0,0.0,0.0,0.0,0.0,0.0,0.0,63.7651481628418,0.6719501614570618,0.9052067399024963,0.0,0.0,0.0,0.0,0.0,0.0,0.0,0.0,0.0,0.0033902430441230536,0.020151156932115555,0.008813558146357536,0.0,0.0,0.0,0.0,0.0,0.0,0.0,0.0,0.0
1606986665176783917,574576,1606983063677187338,imu_link,0.003610402112826705,0.009151220321655273,0.5281152129173279,0.8491157293319702,0.0,0.0,0.0,0.0,0.0,0.0,0.0,0.0,0.0,63.7651481628418,0.6719501614570618,0.9052067399024963,0.0,0.0,0.0,0.0,0.0,0.0,0.0,0.0,0.0,0.0033902430441230536,0.020151156932115555,0.008813558146357536,0.0,0.0,0.0,0.0,0.0,0.0,0.0,0.0,0.0
1606986665176809241,574577,1606983063677265594,imu_link,0.0036092842929065228,0.009151878766715527,0.5281165838241577,0.8491149544715881,0.0,0.0,0.0,0.0,0.0,0.0,0.0,0.0,0.0,63.765323638916016,0.6720804572105408,0.9051388502120972,0.0,0.0,0.0,0.0,0.0,0.0,0.0,0.0,0.0,0.006724459584802389,0.006756003480404615,0.01698041521012783,0.0,0.0,0.0,0.0,0.0,0.0,0.0,0.0,0.0
1606986665176825085,574578,1606983063677344041,imu_link,0.0036092842929065228,0.009151878766715527,0.5281165838241577,0.8491149544715881,0.0,0.0,0.0,0.0,0.0,0.0,0.0,0.0,0.0,63.765323638916016,0.6720804572105408,0.9051388502120972,0.0,0.0,0.0,0.0,0.0,0.0,0.0,0.0,0.0,0.006724459584802389,0.006756003480404615,0.01698041521012783,0.0,0.0,0.0,0.0,0.0,0.0,0.0,0.0,0.0
1606986665176847837,574579,1606983063677446137,imu_link,0.0036055115051567554,0.009151351638138294,0.528118371963501,0.8491138219833374,0.0,0.0,0.0,0.0,0.0,0.0,0.0,0.0,0.0,63.76556396484375,0.6722555756568909,0.9047412276268005,0.0,0.0,0.0,0.0,0.0,0.0,0.0,0.0,0.0,0.003938029520213604,0.0030539827421307564,0.01498501654714346,0.0,0.0,0.0,0.0,0.0,0.0,0.0,0.0,0.0
1606986665179905420,574580,1606983063677528823,imu_link,0.0036055115051567554,0.009151351638138294,0.528118371963501,0.8491138219833374,0.0,0.0,0.0,0.0,0.0,0.0,0.0,0.0,0.0,63.76556396484375,0.6722555756568909,0.9047412276268005,0.0,0.0,0.0,0.0,0.0,0.0,0.0,0.0,0.0,0.003938029520213604,0.0030539827421307564,0.01498501654714346,0.0,0.0,0.0,0.0,0.0,0.0,0.0,0.0,0.0
1606986665179955125,574581,1606983063677609756,imu_link,0.003607396734878421,0.009152469225227833,0.5281192660331726,0.8491132259368896,0.0,0.0,0.0,0.0,0.0,0.0,0.0,0.0,0.0,63.76568603515625,0.6722491979598999,0.9049931764602661,0.0,0.0,0.0,0.0,0.0,0.0,0.0,0.0,0.0,-0.0018964624032378197,0.005279576405882835,0.010273286141455173,0.0,0.0,0.0,0.0,0.0,0.0,0.0,0.0,0.0
1606986665179975750,574582,1606983063677689681,imu_link,0.003607396734878421,0.009152469225227833,0.5281192660331726,0.8491132259368896,0.0,0.0,0.0,0.0,0.0,0.0,0.0,0.0,0.0,63.76568603515625,0.6722491979598999,0.9049931764602661,0.0,0.0,0.0,0.0,0.0,0.0,0.0,0.0,0.0,-0.0018964624032378197,0.005279576405882835,0.010273286141455173,0.0,0.0,0.0,0.0,0.0,0.0,0.0,0.0,0.0
1606986665179987554,574583,1606983063677771796,imu_link,0.0036072891671210527,0.009150909259915352,0.5281217694282532,0.8491116762161255,0.0,0.0,0.0,0.0,0.0,0.0,0.0,0.0,0.0,63.766029357910156,0.6721013188362122,0.9048902988433838,0.0,0.0,0.0,0.0,0.0,0.0,0.0,0.0,0.0,-0.0025382512249052525,0.005109268706291914,0.002766359830275178,0.0,0.0,0.0,0.0,0.0,0.0,0.0,0.0,0.0
1606986665278942896,574584,1606983063690567514,imu_link,0.0036072891671210527,0.009150909259915352,0.5281217694282532,0.8491116762161255,0.0,0.0,0.0,0.0,0.0,0.0,0.0,0.0,0.0,63.766029357910156,0.6721013188362122,0.9048902988433838,0.0,0.0,0.0,0.0,0.0,0.0,0.0,0.0,0.0,-0.0025382512249052525,0.005109268706291914,0.002766359830275178,0.0,0.0,0.0,0.0,0.0,0.0,0.0,0.0,0.0
1606986665278967880,574585,1606983063690684109,imu_link,0.0036076505202800035,0.009150668978691101,0.5281222462654114,0.8491114377975464,0.0,0.0,0.0,0.0,0.0,0.0,0.0,0.0,0.0,63.766090393066406,0.6720556020736694,0.9049111008644104,0.0,0.0,0.0,0.0,0.0,0.0,0.0,0.0,0.0,0.003091135760769248,0.007673975545912981,-0.01246412843465805,0.0,0.0,0.0,0.0,0.0,0.0,0.0,0.0,0.0
1606986665278984192,574586,1606983063690768218,imu_link,0.0036076505202800035,0.009150668978691101,0.5281222462654114,0.8491114377975464,0.0,0.0,0.0,0.0,0.0,0.0,0.0,0.0,0.0,63.766090393066406,0.6720556020736694,0.9049111008644104,0.0,0.0,0.0,0.0,0.0,0.0,0.0,0.0,0.0,0.003091135760769248,0.007673975545912981,-0.01246412843465805,0.0,0.0,0.0,0.0,0.0,0.0,0.0,0.0,0.0
1606986665279016251,574587,1606983063690853150,imu_link,0.0036057059187442064,0.009149575605988503,0.5281240344047546,0.8491103649139404,0.0,0.0,0.0,0.0,0.0,0.0,0.0,0.0,0.0,63.766326904296875,0.672065019607544,0.904657244682312,0.0,0.0,0.0,0.0,0.0,0.0,0.0,0.0,0.0,-0.007622288540005684,0.004797694273293018,0.0071575939655303955,0.0,0.0,0.0,0.0,0.0,0.0,0.0,0.0,0.0
1606986665279026253,574588,1606983063690996231,imu_link,0.0036057059187442064,0.009149575605988503,0.5281240344047546,0.8491103649139404,0.0,0.0,0.0,0.0,0.0,0.0,0.0,0.0,0.0,63.766326904296875,0.672065019607544,0.904657244682312,0.0,0.0,0.0,0.0,0.0,0.0,0.0,0.0,0.0,-0.007622288540005684,0.004797694273293018,0.0071575939655303955,0.0,0.0,0.0,0.0,0.0,0.0,0.0,0.0,0.0
1606986665284975130,574589,1606983063691089677,imu_link,0.0036079054698348045,0.009148354642093182,0.5281234979629517,0.8491106629371643,0.0,0.0,0.0,0.0,0.0,0.0,0.0,0.0,0.0,63.76625442504883,0.6718136072158813,0.904796838760376,0.0,0.0,0.0,0.0,0.0,0.0,0.0,0.0,0.0,0.0020040408708155155,0.005219693295657635,0.026742594316601753,0.0,0.0,0.0,0.0,0.0,0.0,0.0,0.0,0.0
1606986665284992146,574590,1606983063691201867,imu_link,0.0036079054698348045,0.009148354642093182,0.5281234979629517,0.8491106629371643,0.0,0.0,0.0,0.0,0.0,0.0,0.0,0.0,0.0,63.76625442504883,0.6718136072158813,0.904796838760376,0.0,0.0,0.0,0.0,0.0,0.0,0.0,0.0,0.0,0.0020040408708155155,0.005219693295657635,0.026742594316601753,0.0,0.0,0.0,0.0,0.0,0.0,0.0,0.0,0.0
1606986665285009695,574591,1606983063691292361,imu_link,0.0036054933443665504,0.009147131815552711,0.5281236171722412,0.8491106033325195,0.0,0.0,0.0,0.0,0.0,0.0,0.0,0.0,0.0,63.766265869140625,0.6718405485153198,0.9044882655143738,0.0,0.0,0.0,0.0,0.0,0.0,0.0,0.0,0.0,0.014402945525944233,-0.0031783508602529764,-0.005801662337034941,0.0,0.0,0.0,0.0,0.0,0.0,0.0,0.0,0.0
1606986665285016083,574592,1606983063691384424,imu_link,0.0036054933443665504,0.009147131815552711,0.5281236171722412,0.8491106033325195,0.0,0.0,0.0,0.0,0.0,0.0,0.0,0.0,0.0,63.766265869140625,0.6718405485153198,0.9044882655143738,0.0,0.0,0.0,0.0,0.0,0.0,0.0,0.0,0.0,0.014402945525944233,-0.0031783508602529764,-0.005801662337034941,0.0,0.0,0.0,0.0,0.0,0.0,0.0,0.0,0.0
1606986665288955026,574593,1606983063691465141,imu_link,0.003604261437430978,0.009149453602731228,0.5281228423118591,0.849111020565033,0.0,0.0,0.0,0.0,0.0,0.0,0.0,0.0,0.0,63.766170501708984,0.6721417307853699,0.9045084714889526,0.0,0.0,0.0,0.0,0.0,0.0,0.0,0.0,0.0,0.009159335866570473,-0.005931898485869169,-0.011062044650316238,0.0,0.0,0.0,0.0,0.0,0.0,0.0,0.0,0.0
1606986665288978326,574594,1606983063691541167,imu_link,0.003604261437430978,0.009149453602731228,0.5281228423118591,0.849111020565033,0.0,0.0,0.0,0.0,0.0,0.0,0.0,0.0,0.0,63.766170501708984,0.6721417307853699,0.9045084714889526,0.0,0.0,0.0,0.0,0.0,0.0,0.0,0.0,0.0,0.009159335866570473,-0.005931898485869169,-0.011062044650316238,0.0,0.0,0.0,0.0,0.0,0.0,0.0,0.0,0.0
1606986665289046181,574595,1606983063703974111,imu_link,0.003603472141548991,0.009150825440883636,0.5281227231025696,0.8491111397743225,0.0,0.0,0.0,0.0,0.0,0.0,0.0,0.0,0.0,63.766151428222656,0.6723231673240662,0.9045144319534302,0.0,0.0,0.0,0.0,0.0,0.0,0.0,0.0,0.0,0.007157678250223398,0.00707158213481307,0.006253518629819155,0.0,0.0,0.0,0.0,0.0,0.0,0.0,0.0,0.0
1606986665289054350,574596,1606983063704089002,imu_link,0.003603472141548991,0.009150825440883636,0.5281227231025696,0.8491111397743225,0.0,0.0,0.0,0.0,0.0,0.0,0.0,0.0,0.0,63.766151428222656,0.6723231673240662,0.9045144319534302,0.0,0.0,0.0,0.0,0.0,0.0,0.0,0.0,0.0,0.007157678250223398,0.00707158213481307,0.006253518629819155,0.0,0.0,0.0,0.0,0.0,0.0,0.0,0.0,0.0
1606986665289065022,574597,1606983063704174655,imu_link,0.0036027561873197556,0.009154167957603931,0.5281221270561218,0.8491114974021912,0.0,0.0,0.0,0.0,0.0,0.0,0.0,0.0,0.0,63.766075134277344,0.6726924180984497,0.9046467542648315,0.0,0.0,0.0,0.0,0.0,0.0,0.0,0.0,0.0,-0.006407804787158966,0.008158312179148197,0.010544969700276852,0.0,0.0,0.0,0.0,0.0,0.0,0.0,0.0,0.0
1606986665298331774,574598,1606983063704261496,imu_link,0.0036027561873197556,0.009154167957603931,0.5281221270561218,0.8491114974021912,0.0,0.0,0.0,0.0,0.0,0.0,0.0,0.0,0.0,63.766075134277344,0.6726924180984497,0.9046467542648315,0.0,0.0,0.0,0.0,0.0,0.0,0.0,0.0,0.0,-0.006407804787158966,0.008158312179148197,0.010544969700276852,0.0,0.0,0.0,0.0,0.0,0.0,0.0,0.0,0.0
1606986665298356374,574599,1606983063704342203,imu_link,0.003602929413318634,0.009153580293059349,0.5281229019165039,0.849111020565033,0.0,0.0,0.0,0.0,0.0,0.0,0.0,0.0,0.0,63.766178131103516,0.6726239919662476,0.9046286344528198,0.0,0.0,0.0,0.0,0.0,0.0,0.0,0.0,0.0,-0.01951565220952034,-0.0019306294852867723,0.0120307682082057,0.0,0.0,0.0,0.0,0.0,0.0,0.0,0.0,0.0
1606986665298364340,574600,1606983063704444449,imu_link,0.003602929413318634,0.009153580293059349,0.5281229019165039,0.849111020565033,0.0,0.0,0.0,0.0,0.0,0.0,0.0,0.0,0.0,63.766178131103516,0.6726239919662476,0.9046286344528198,0.0,0.0,0.0,0.0,0.0,0.0,0.0,0.0,0.0,-0.01951565220952034,-0.0019306294852867723,0.0120307682082057,0.0,0.0,0.0,0.0,0.0,0.0,0.0,0.0,0.0
1606986665298375156,574601,1606983063704526374,imu_link,0.00360121694393456,0.009154596365988255,0.5281225442886353,0.8491112589836121,0.0,0.0,0.0,0.0,0.0,0.0,0.0,0.0,0.0,63.76612854003906,0.6728268265724182,0.9045230746269226,0.0,0.0,0.0,0.0,0.0,0.0,0.0,0.0,0.0,-0.020701993256807327,-0.009280615486204624,-0.011652624234557152,0.0,0.0,0.0,0.0,0.0,0.0,0.0,0.0,0.0
1606986665344657459,574602,1606983063704634354,imu_link,0.00360121694393456,0.009154596365988255,0.5281225442886353,0.8491112589836121,0.0,0.0,0.0,0.0,0.0,0.0,0.0,0.0,0.0,63.76612854003906,0.6728268265724182,0.9045230746269226,0.0,0.0,0.0,0.0,0.0,0.0,0.0,0.0,0.0,-0.020701993256807327,-0.009280615486204624,-0.011652624234557152,0.0,0.0,0.0,0.0,0.0,0.0,0.0,0.0,0.0
1606986665344679450,574603,1606983063704765161,imu_link,0.0036045170854777098,0.009154127910733223,0.5281148552894592,0.8491159677505493,0.0,0.0,0.0,0.0,0.0,0.0,0.0,0.0,0.0,63.765098571777344,0.6725895404815674,0.904809832572937,0.0,0.0,0.0,0.0,0.0,0.0,0.0,0.0,0.0,-0.0237868744879961,-6.321506225503981e-05,-0.02038753405213356,0.0,0.0,0.0,0.0,0.0,0.0,0.0,0.0,0.0
1606986665344692596,574604,1606983063704854543,imu_link,0.0036045170854777098,0.009154127910733223,0.5281148552894592,0.8491159677505493,0.0,0.0,0.0,0.0,0.0,0.0,0.0,0.0,0.0,63.765098571777344,0.6725895404815674,0.904809832572937,0.0,0.0,0.0,0.0,0.0,0.0,0.0,0.0,0.0,-0.0237868744879961,-6.321506225503981e-05,-0.02038753405213356,0.0,0.0,0.0,0.0,0.0,0.0,0.0,0.0,0.0
1606986665344708042,574605,1606983063704936142,imu_link,0.0036042011342942715,0.009152722544968128,0.5281148552894592,0.8491159081459045,0.0,0.0,0.0,0.0,0.0,0.0,0.0,0.0,0.0,63.765098571777344,0.6724719405174255,0.904694139957428,0.0,0.0,0.0,0.0,0.0,0.0,0.0,0.0,0.0,-0.01805817149579525,-0.0037809587083756924,-0.020480915904045105,0.0,0.0,0.0,0.0,0.0,0.0,0.0,0.0,0.0
1606986665344723981,574606,1606983063716932901,imu_link,0.0036042011342942715,0.009152722544968128,0.5281148552894592,0.8491159081459045,0.0,0.0,0.0,0.0,0.0,0.0,0.0,0.0,0.0,63.765098571777344,0.6724719405174255,0.904694139957428,0.0,0.0,0.0,0.0,0.0,0.0,0.0,0.0,0.0,-0.01805817149579525,-0.0037809587083756924,-0.020480915904045105,0.0,0.0,0.0,0.0,0.0,0.0,0.0,0.0,0.0
1606986665349730215,574607,1606983063717075366,imu_link,0.003606559941545129,0.009150664322078228,0.5281053781509399,0.8491218686103821,0.0,0.0,0.0,0.0,0.0,0.0,0.0,0.0,0.0,63.76381301879883,0.6721391081809998,0.9047913551330566,0.0,0.0,0.0,0.0,0.0,0.0,0.0,0.0,0.0,-0.011277423240244389,-0.006279932335019112,-0.023390281945466995,0.0,0.0,0.0,0.0,0.0,0.0,0.0,0.0,0.0
1606986665349749700,574608,1606983063717172566,imu_link,0.003606559941545129,0.009150664322078228,0.5281053781509399,0.8491218686103821,0.0,0.0,0.0,0.0,0.0,0.0,0.0,0.0,0.0,63.76381301879883,0.6721391081809998,0.9047913551330566,0.0,0.0,0.0,0.0,0.0,0.0,0.0,0.0,0.0,-0.011277423240244389,-0.006279932335019112,-0.023390281945466995,0.0,0.0,0.0,0.0,0.0,0.0,0.0,0.0,0.0
1606986665349760037,574609,1606983063717252080,imu_link,0.003605429083108902,0.009152346290647984,0.5281063914299011,0.8491212725639343,0.0,0.0,0.0,0.0,0.0,0.0,0.0,0.0,0.0,63.76395034790039,0.6723701357841492,0.9047839045524597,0.0,0.0,0.0,0.0,0.0,0.0,0.0,0.0,0.0,-0.016756674274802208,0.019574381411075592,-0.00408277940005064,0.0,0.0,0.0,0.0,0.0,0.0,0.0,0.0,0.0
1606986665349799740,574610,1606983063717349531,imu_link,0.003605429083108902,0.009152346290647984,0.5281063914299011,0.8491212725639343,0.0,0.0,0.0,0.0,0.0,0.0,0.0,0.0,0.0,63.76395034790039,0.6723701357841492,0.9047839045524597,0.0,0.0,0.0,0.0,0.0,0.0,0.0,0.0,0.0,-0.016756674274802208,0.019574381411075592,-0.00408277940005064,0.0,0.0,0.0,0.0,0.0,0.0,0.0,0.0,0.0
1606986665353415575,574611,1606983063717675224,imu_link,0.0036043731961399317,0.009149654768407345,0.5281068086624146,0.8491210341453552,0.0,0.0,0.0,0.0,0.0,0.0,0.0,0.0,0.0,63.764007568359375,0.6721717119216919,0.9045186042785645,0.0,0.0,0.0,0.0,0.0,0.0,0.0,0.0,0.0,0.0019608442671597004,0.00461012776941061,0.01973707042634487,0.0,0.0,0.0,0.0,0.0,0.0,0.0,0.0,0.0
1606986665353440385,574612,1606983063717758783,imu_link,0.0036043731961399317,0.009149654768407345,0.5281068086624146,0.8491210341453552,0.0,0.0,0.0,0.0,0.0,0.0,0.0,0.0,0.0,63.764007568359375,0.6721717119216919,0.9045186042785645,0.0,0.0,0.0,0.0,0.0,0.0,0.0,0.0,0.0,0.0019608442671597004,0.00461012776941061,0.01973707042634487,0.0,0.0,0.0,0.0,0.0,0.0,0.0,0.0,0.0
1606986665353456419,574613,1606983063717839996,imu_link,0.0036036730743944645,0.009152029640972614,0.5281062722206116,0.8491213917732239,0.0,0.0,0.0,0.0,0.0,0.0,0.0,0.0,0.0,63.763938903808594,0.6724457740783691,0.904593825340271,0.0,0.0,0.0,0.0,0.0,0.0,0.0,0.0,0.0,0.014063042588531971,-0.010611495934426785,0.022245630621910095,0.0,0.0,0.0,0.0,0.0,0.0,0.0,0.0,0.0
1606986665353478516,574614,1606983063717918172,imu_link,0.0036036730743944645,0.009152029640972614,0.5281062722206116,0.8491213917732239,0.0,0.0,0.0,0.0,0.0,0.0,0.0,0.0,0.0,63.763938903808594,0.6724457740783691,0.904593825340271,0.0,0.0,0.0,0.0,0.0,0.0,0.0,0.0,0.0,0.014063042588531971,-0.010611495934426785,0.022245630621910095,0.0,0.0,0.0,0.0,0.0,0.0,0.0,0.0,0.0
1606986665353490133,574615,1606983063718050593,imu_link,0.0036040476989001036,0.009156068786978722,0.5281080007553101,0.8491202592849731,0.0,0.0,0.0,0.0,0.0,0.0,0.0,0.0,0.0,63.7641716003418,0.6728142499923706,0.9048763513565063,0.0,0.0,0.0,0.0,0.0,0.0,0.0,0.0,0.0,0.01178737822920084,0.003535548225045204,0.007363405544310808,0.0,0.0,0.0,0.0,0.0,0.0,0.0,0.0,0.0
1606986665356477955,574616,1606983063730850839,imu_link,0.0036040476989001036,0.009156068786978722,0.5281080007553101,0.8491202592849731,0.0,0.0,0.0,0.0,0.0,0.0,0.0,0.0,0.0,63.7641716003418,0.6728142499923706,0.9048763513565063,0.0,0.0,0.0,0.0,0.0,0.0,0.0,0.0,0.0,0.01178737822920084,0.003535548225045204,0.007363405544310808,0.0,0.0,0.0,0.0,0.0,0.0,0.0,0.0,0.0
1606986665356496930,574617,1606983063731031064,imu_link,0.003604714060202241,0.009155454114079475,0.5281081795692444,0.8491201400756836,0.0,0.0,0.0,0.0,0.0,0.0,0.0,0.0,0.0,63.764198303222656,0.6727139353752136,0.9049040675163269,0.0,0.0,0.0,0.0,0.0,0.0,0.0,0.0,0.0,0.005635972134768963,-0.0023186553735285997,0.008885941468179226,0.0,0.0,0.0,0.0,0.0,0.0,0.0,0.0,0.0
1606986665356505998,574618,1606983063731126147,imu_link,0.003604714060202241,0.009155454114079475,0.5281081795692444,0.8491201400756836,0.0,0.0,0.0,0.0,0.0,0.0,0.0,0.0,0.0,63.764198303222656,0.6727139353752136,0.9049040675163269,0.0,0.0,0.0,0.0,0.0,0.0,0.0,0.0,0.0,0.005635972134768963,-0.0023186553735285997,0.008885941468179226,0.0,0.0,0.0,0.0,0.0,0.0,0.0,0.0,0.0
1606986665356513918,574619,1606983063731208435,imu_link,0.0036047480534762144,0.00915551744401455,0.5281062722206116,0.8491212725639343,0.0,0.0,0.0,0.0,0.0,0.0,0.0,0.0,0.0,63.763946533203125,0.6727199554443359,0.9049097299575806,0.0,0.0,0.0,0.0,0.0,0.0,0.0,0.0,0.0,0.0025242671836167574,-0.005521442275494337,0.016133099794387817,0.0,0.0,0.0,0.0,0.0,0.0,0.0,0.0,0.0
1606986665456223746,574620,1606983063731279083,imu_link,0.0036047480534762144,0.00915551744401455,0.5281062722206116,0.8491212725639343,0.0,0.0,0.0,0.0,0.0,0.0,0.0,0.0,0.0,63.763946533203125,0.6727199554443359,0.9049097299575806,0.0,0.0,0.0,0.0,0.0,0.0,0.0,0.0,0.0,0.0025242671836167574,-0.005521442275494337,0.016133099794387817,0.0,0.0,0.0,0.0,0.0,0.0,0.0,0.0,0.0
1606986665456245959,574621,1606983063731359420,imu_link,0.003604966215789318,0.009157213382422924,0.5281074047088623,0.849120557308197,0.0,0.0,0.0,0.0,0.0,0.0,0.0,0.0,0.0,63.764102935791016,0.6728706359863281,0.905034601688385,0.0,0.0,0.0,0.0,0.0,0.0,0.0,0.0,0.0,0.0008982678991742432,0.0013929393608123064,0.0071405814960598946,0.0,0.0,0.0,0.0,0.0,0.0,0.0,0.0,0.0
1606986665456257874,574622,1606983063731448044,imu_link,0.003604966215789318,0.009157213382422924,0.5281074047088623,0.849120557308197,0.0,0.0,0.0,0.0,0.0,0.0,0.0,0.0,0.0,63.764102935791016,0.6728706359863281,0.905034601688385,0.0,0.0,0.0,0.0,0.0,0.0,0.0,0.0,0.0,0.0008982678991742432,0.0013929393608123064,0.0071405814960598946,0.0,0.0,0.0,0.0,0.0,0.0,0.0,0.0,0.0
1606986665456272298,574623,1606983063731522313,imu_link,0.0036050514318048954,0.009154514409601688,0.5281070470809937,0.8491208553314209,0.0,0.0,0.0,0.0,0.0,0.0,0.0,0.0,0.0,63.76404571533203,0.6726032495498657,0.9048789739608765,0.0,0.0,0.0,0.0,0.0,0.0,0.0,0.0,0.0,-0.016952820122241974,0.003026685444638133,-0.0027306992560625076,0.0,0.0,0.0,0.0,0.0,0.0,0.0,0.0,0.0
1606986665456288734,574624,1606983063731594809,imu_link,0.0036050514318048954,0.009154514409601688,0.5281070470809937,0.8491208553314209,0.0,0.0,0.0,0.0,0.0,0.0,0.0,0.0,0.0,63.76404571533203,0.6726032495498657,0.9048789739608765,0.0,0.0,0.0,0.0,0.0,0.0,0.0,0.0,0.0,-0.016952820122241974,0.003026685444638133,-0.0027306992560625076,0.0,0.0,0.0,0.0,0.0,0.0,0.0,0.0,0.0
1606986665459490527,574625,1606983063731667159,imu_link,0.003603812772780657,0.009154724888503551,0.5281060338020325,0.8491215109825134,0.0,0.0,0.0,0.0,0.0,0.0,0.0,0.0,0.0,63.7639045715332,0.6726998090744019,0.9047703742980957,0.0,0.0,0.0,0.0,0.0,0.0,0.0,0.0,0.0,-0.01639675348997116,0.0017578607657924294,0.0004712424997705966,0.0,0.0,0.0,0.0,0.0,0.0,0.0,0.0,0.0
1606986665459592807,574626,1606983063731744720,imu_link,0.003603812772780657,0.009154724888503551,0.5281060338020325,0.8491215109825134,0.0,0.0,0.0,0.0,0.0,0.0,0.0,0.0,0.0,63.7639045715332,0.6726998090744019,0.9047703742980957,0.0,0.0,0.0,0.0,0.0,0.0,0.0,0.0,0.0,-0.01639675348997116,0.0017578607657924294,0.0004712424997705966,0.0,0.0,0.0,0.0,0.0,0.0,0.0,0.0,0.0
1606986665459615161,574627,1606983063744233779,imu_link,0.0036043182481080294,0.009150625206530094,0.5281074643135071,0.849120557308197,0.0,0.0,0.0,0.0,0.0,0.0,0.0,0.0,0.0,63.764102935791016,0.6722686886787415,0.9045727252960205,0.0,0.0,0.0,0.0,0.0,0.0,0.0,0.0,0.0,0.010393471457064152,0.007165182381868362,0.018022462725639343,0.0,0.0,0.0,0.0,0.0,0.0,0.0,0.0,0.0
1606986665459626957,574628,1606983063744374254,imu_link,0.0036043182481080294,0.009150625206530094,0.5281074643135071,0.849120557308197,0.0,0.0,0.0,0.0,0.0,0.0,0.0,0.0,0.0,63.764102935791016,0.6722686886787415,0.9045727252960205,0.0,0.0,0.0,0.0,0.0,0.0,0.0,0.0,0.0,0.010393471457064152,0.007165182381868362,0.018022462725639343,0.0,0.0,0.0,0.0,0.0,0.0,0.0,0.0,0.0
1606986665466193112,574629,1606983063744473393,imu_link,0.003603594843298197,0.00915084034204483,0.5281083583831787,0.8491200804710388,0.0,0.0,0.0,0.0,0.0,0.0,0.0,0.0,0.0,63.76420974731445,0.6723324656486511,0.9045159220695496,0.0,0.0,0.0,0.0,0.0,0.0,0.0,0.0,0.0,0.01208544336259365,0.004833944141864777,0.005322237499058247,0.0,0.0,0.0,0.0,0.0,0.0,0.0,0.0,0.0
1606986665466238492,574630,1606983063744563612,imu_link,0.003603594843298197,0.00915084034204483,0.5281083583831787,0.8491200804710388,0.0,0.0,0.0,0.0,0.0,0.0,0.0,0.0,0.0,63.76420974731445,0.6723324656486511,0.9045159220695496,0.0,0.0,0.0,0.0,0.0,0.0,0.0,0.0,0.0,0.01208544336259365,0.004833944141864777,0.005322237499058247,0.0,0.0,0.0,0.0,0.0,0.0,0.0,0.0,0.0
1606986665466264926,574631,1606983063744658156,imu_link,0.0036006965674459934,0.00915163941681385,0.528111457824707,0.8491181135177612,0.0,0.0,0.0,0.0,0.0,0.0,0.0,0.0,0.0,63.76463317871094,0.6725822687149048,0.904284656047821,0.0,0.0,0.0,0.0,0.0,0.0,0.0,0.0,0.0,-0.016122356057167053,-0.020259946584701538,0.00956034380942583,0.0,0.0,0.0,0.0,0.0,0.0,0.0,0.0,0.0
1606986665466288717,574632,1606983063744752028,imu_link,0.0036006965674459934,0.00915163941681385,0.528111457824707,0.8491181135177612,0.0,0.0,0.0,0.0,0.0,0.0,0.0,0.0,0.0,63.76463317871094,0.6725822687149048,0.904284656047821,0.0,0.0,0.0,0.0,0.0,0.0,0.0,0.0,0.0,-0.016122356057167053,-0.020259946584701538,0.00956034380942583,0.0,0.0,0.0,0.0,0.0,0.0,0.0,0.0,0.0
1606986665466329035,574633,1606983063744869635,imu_link,0.0036030898336321115,0.009153896011412144,0.5281123518943787,0.8491175770759583,0.0,0.0,0.0,0.0,0.0,0.0,0.0,0.0,0.0,63.7647590637207,0.6726561784744263,0.904654860496521,0.0,0.0,0.0,0.0,0.0,0.0,0.0,0.0,0.0,-0.02496863715350628,-0.024287018924951553,0.013365177437663078,0.0,0.0,0.0,0.0,0.0,0.0,0.0,0.0,0.0
1606986665472234442,574634,1606983063744956161,imu_link,0.0036030898336321115,0.009153896011412144,0.5281123518943787,0.8491175770759583,0.0,0.0,0.0,0.0,0.0,0.0,0.0,0.0,0.0,63.7647590637207,0.6726561784744263,0.904654860496521,0.0,0.0,0.0,0.0,0.0,0.0,0.0,0.0,0.0,-0.02496863715350628,-0.024287018924951553,0.013365177437663078,0.0,0.0,0.0,0.0,0.0,0.0,0.0,0.0,0.0
1606986665472256854,574635,1606983063745041077,imu_link,0.00361025077290833,0.009152964688837528,0.5281156301498413,0.8491154909133911,0.0,0.0,0.0,0.0,0.0,0.0,0.0,0.0,0.0,63.76520919799805,0.6721286177635193,0.9052979946136475,0.0,0.0,0.0,0.0,0.0,0.0,0.0,0.0,0.0,-0.0061658346094191074,-0.012977659702301025,0.0018143802881240845,0.0,0.0,0.0,0.0,0.0,0.0,0.0,0.0,0.0
1606986665472268661,574636,1606983063745121057,imu_link,0.00361025077290833,0.009152964688837528,0.5281156301498413,0.8491154909133911,0.0,0.0,0.0,0.0,0.0,0.0,0.0,0.0,0.0,63.76520919799805,0.6721286177635193,0.9052979946136475,0.0,0.0,0.0,0.0,0.0,0.0,0.0,0.0,0.0,-0.0061658346094191074,-0.012977659702301025,0.0018143802881240845,0.0,0.0,0.0,0.0,0.0,0.0,0.0,0.0,0.0
1606986665472277210,574637,1606983063745209717,imu_link,0.0036100747529417276,0.009150628000497818,0.5281151533126831,0.8491158485412598,0.0,0.0,0.0,0.0,0.0,0.0,0.0,0.0,0.0,63.7651252746582,0.671912431716919,0.9051389694213867,0.0,0.0,0.0,0.0,0.0,0.0,0.0,0.0,0.0,0.006555350497364998,-0.014345342293381691,0.006506475154310465,0.0,0.0,0.0,0.0,0.0,0.0,0.0,0.0,0.0
1606986665578420859,574638,1606983063758088007,imu_link,0.0036100747529417276,0.009150628000497818,0.5281151533126831,0.8491158485412598,0.0,0.0,0.0,0.0,0.0,0.0,0.0,0.0,0.0,63.7651252746582,0.671912431716919,0.9051389694213867,0.0,0.0,0.0,0.0,0.0,0.0,0.0,0.0,0.0,0.006555350497364998,-0.014345342293381691,0.006506475154310465,0.0,0.0,0.0,0.0,0.0,0.0,0.0,0.0,0.0
1606986665578445017,574639,1606983063758228943,imu_link,0.0036116610281169415,0.009152933023869991,0.5281197428703308,0.8491129875183105,0.0,0.0,0.0,0.0,0.0,0.0,0.0,0.0,0.0,63.76575469970703,0.672035813331604,0.9054365158081055,0.0,0.0,0.0,0.0,0.0,0.0,0.0,0.0,0.0,-0.0038081423845142126,-0.005863081198185682,-0.0016632365295663476,0.0,0.0,0.0,0.0,0.0,0.0,0.0,0.0,0.0
1606986665578458365,574640,1606983063758380052,imu_link,0.0036116610281169415,0.009152933023869991,0.5281197428703308,0.8491129875183105,0.0,0.0,0.0,0.0,0.0,0.0,0.0,0.0,0.0,63.76575469970703,0.672035813331604,0.9054365158081055,0.0,0.0,0.0,0.0,0.0,0.0,0.0,0.0,0.0,-0.0038081423845142126,-0.005863081198185682,-0.0016632365295663476,0.0,0.0,0.0,0.0,0.0,0.0,0.0,0.0,0.0
1606986665578470998,574641,1606983063758468472,imu_link,0.00361236953176558,0.009152278304100037,0.5281205177307129,0.8491123914718628,0.0,0.0,0.0,0.0,0.0,0.0,0.0,0.0,0.0,63.765865325927734,0.6719282865524292,0.905466616153717,0.0,0.0,0.0,0.0,0.0,0.0,0.0,0.0,0.0,-0.00871550478041172,0.0008770294371061027,0.0021512340754270554,0.0,0.0,0.0,0.0,0.0,0.0,0.0,0.0,0.0
1606986665578479447,574642,1606983063758558566,imu_link,0.00361236953176558,0.009152278304100037,0.5281205177307129,0.8491123914718628,0.0,0.0,0.0,0.0,0.0,0.0,0.0,0.0,0.0,63.765865325927734,0.6719282865524292,0.905466616153717,0.0,0.0,0.0,0.0,0.0,0.0,0.0,0.0,0.0,-0.00871550478041172,0.0008770294371061027,0.0021512340754270554,0.0,0.0,0.0,0.0,0.0,0.0,0.0,0.0,0.0
1606986665582331473,574643,1606983063758637624,imu_link,0.0036131981760263443,0.009150655940175056,0.5281215310096741,0.849111795425415,0.0,0.0,0.0,0.0,0.0,0.0,0.0,0.0,0.0,63.76599884033203,0.6717191934585571,0.9054497480392456,0.0,0.0,0.0,0.0,0.0,0.0,0.0,0.0,0.0,0.001043718890286982,0.0029767563100904226,-0.004084892570972443,0.0,0.0,0.0,0.0,0.0,0.0,0.0,0.0,0.0
1606986665582353321,574644,1606983063758745879,imu_link,0.0036131981760263443,0.009150655940175056,0.5281215310096741,0.849111795425415,0.0,0.0,0.0,0.0,0.0,0.0,0.0,0.0,0.0,63.76599884033203,0.6717191934585571,0.9054497480392456,0.0,0.0,0.0,0.0,0.0,0.0,0.0,0.0,0.0,0.001043718890286982,0.0029767563100904226,-0.004084892570972443,0.0,0.0,0.0,0.0,0.0,0.0,0.0,0.0,0.0
1606986665582380584,574645,1606983063758826441,imu_link,0.003614922519773245,0.009153679013252258,0.5281214714050293,0.8491118550300598,0.0,0.0,0.0,0.0,0.0,0.0,0.0,0.0,0.0,63.765987396240234,0.6719091534614563,0.9058003425598145,0.0,0.0,0.0,0.0,0.0,0.0,0.0,0.0,0.0,-0.0007531836163252592,0.011262072250247002,0.014791557565331459,0.0,0.0,0.0,0.0,0.0,0.0,0.0,0.0,0.0
1606986665582398892,574646,1606983063758906691,imu_link,0.003614922519773245,0.009153679013252258,0.5281214714050293,0.8491118550300598,0.0,0.0,0.0,0.0,0.0,0.0,0.0,0.0,0.0,63.765987396240234,0.6719091534614563,0.9058003425598145,0.0,0.0,0.0,0.0,0.0,0.0,0.0,0.0,0.0,-0.0007531836163252592,0.011262072250247002,0.014791557565331459,0.0,0.0,0.0,0.0,0.0,0.0,0.0,0.0,0.0
1606986665588803798,574647,1606983063759015964,imu_link,0.003613936249166727,0.009150629863142967,0.5281235575675964,0.8491105437278748,0.0,0.0,0.0,0.0,0.0,0.0,0.0,0.0,0.0,63.766273498535156,0.6716698408126831,0.9055214524269104,0.0,0.0,0.0,0.0,0.0,0.0,0.0,0.0,0.0,0.002798931673169136,0.03026285208761692,0.018979830667376518,0.0,0.0,0.0,0.0,0.0,0.0,0.0,0.0,0.0
1606986665588826379,574648,1606983063759101532,imu_link,0.003613936249166727,0.009150629863142967,0.5281235575675964,0.8491105437278748,0.0,0.0,0.0,0.0,0.0,0.0,0.0,0.0,0.0,63.766273498535156,0.6716698408126831,0.9055214524269104,0.0,0.0,0.0,0.0,0.0,0.0,0.0,0.0,0.0,0.002798931673169136,0.03026285208761692,0.018979830667376518,0.0,0.0,0.0,0.0,0.0,0.0,0.0,0.0,0.0
1606986665588835646,574649,1606983063771536280,imu_link,0.003614462446421385,0.009150415658950806,0.528122067451477,0.8491114974021912,0.0,0.0,0.0,0.0,0.0,0.0,0.0,0.0,0.0,63.76606750488281,0.6716187596321106,0.9055584669113159,0.0,0.0,0.0,0.0,0.0,0.0,0.0,0.0,0.0,0.010785338468849659,0.03234592080116272,0.012967297807335854,0.0,0.0,0.0,0.0,0.0,0.0,0.0,0.0,0.0
1606986665588852305,574650,1606983063771675031,imu_link,0.003614462446421385,0.009150415658950806,0.528122067451477,0.8491114974021912,0.0,0.0,0.0,0.0,0.0,0.0,0.0,0.0,0.0,63.76606750488281,0.6716187596321106,0.9055584669113159,0.0,0.0,0.0,0.0,0.0,0.0,0.0,0.0,0.0,0.010785338468849659,0.03234592080116272,0.012967297807335854,0.0,0.0,0.0,0.0,0.0,0.0,0.0,0.0,0.0
1606986665592052590,574651,1606983063771777107,imu_link,0.0036096605472266674,0.009148698300123215,0.5281240344047546,0.8491103649139404,0.0,0.0,0.0,0.0,0.0,0.0,0.0,0.0,0.0,63.766326904296875,0.6717402935028076,0.9049889445304871,0.0,0.0,0.0,0.0,0.0,0.0,0.0,0.0,0.0,0.015588034875690937,-0.0008830262813717127,0.00742126302793622,0.0,0.0,0.0,0.0,0.0,0.0,0.0,0.0,0.0
1606986665592080021,574652,1606983063771867672,imu_link,0.0036096605472266674,0.009148698300123215,0.5281240344047546,0.8491103649139404,0.0,0.0,0.0,0.0,0.0,0.0,0.0,0.0,0.0,63.766326904296875,0.6717402935028076,0.9049889445304871,0.0,0.0,0.0,0.0,0.0,0.0,0.0,0.0,0.0,0.015588034875690937,-0.0008830262813717127,0.00742126302793622,0.0,0.0,0.0,0.0,0.0,0.0,0.0,0.0,0.0
1606986665592090281,574653,1606983063771963113,imu_link,0.0036077997647225857,0.009149284102022648,0.5281252264976501,0.8491095900535583,0.0,0.0,0.0,0.0,0.0,0.0,0.0,0.0,0.0,63.7664909362793,0.6719086766242981,0.9048442244529724,0.0,0.0,0.0,0.0,0.0,0.0,0.0,0.0,0.0,0.0069268313236534595,-0.024927334859967232,-0.002712853718549013,0.0,0.0,0.0,0.0,0.0,0.0,0.0,0.0,0.0
1606986665592101284,574654,1606983063772078114,imu_link,0.0036077997647225857,0.009149284102022648,0.5281252264976501,0.8491095900535583,0.0,0.0,0.0,0.0,0.0,0.0,0.0,0.0,0.0,63.7664909362793,0.6719086766242981,0.9048442244529724,0.0,0.0,0.0,0.0,0.0,0.0,0.0,0.0,0.0,0.0069268313236534595,-0.024927334859967232,-0.002712853718549013,0.0,0.0,0.0,0.0,0.0,0.0,0.0,0.0,0.0
1606986665592109811,574655,1606983063772162299,imu_link,0.0036117376293987036,0.009152304381132126,0.528128981590271,0.8491072058677673,0.0,0.0,0.0,0.0,0.0,0.0,0.0,0.0,0.0,63.767005920410156,0.671960175037384,0.9054132699966431,0.0,0.0,0.0,0.0,0.0,0.0,0.0,0.0,0.0,0.0079202214255929,-0.027987763285636902,0.0018544024787843227,0.0,0.0,0.0,0.0,0.0,0.0,0.0,0.0,0.0
1606986665667547415,574656,1606983063772243381,imu_link,0.0036117376293987036,0.009152304381132126,0.528128981590271,0.8491072058677673,0.0,0.0,0.0,0.0,0.0,0.0,0.0,0.0,0.0,63.767005920410156,0.671960175037384,0.9054132699966431,0.0,0.0,0.0,0.0,0.0,0.0,0.0,0.0,0.0,0.0079202214255929,-0.027987763285636902,0.0018544024787843227,0.0,0.0,0.0,0.0,0.0,0.0,0.0,0.0,0.0
1606986665667567560,574657,1606983063772322860,imu_link,0.003612795379012823,0.009153115563094616,0.5281291007995605,0.8491071462631226,0.0,0.0,0.0,0.0,0.0,0.0,0.0,0.0,0.0,63.76701736450195,0.6719749569892883,0.9055652022361755,0.0,0.0,0.0,0.0,0.0,0.0,0.0,0.0,0.0,0.02791985683143139,-0.01302218809723854,-0.01070312224328518,0.0,0.0,0.0,0.0,0.0,0.0,0.0,0.0,0.0
1606986665667625050,574658,1606983063772655906,imu_link,0.003612795379012823,0.009153115563094616,0.5281291007995605,0.8491071462631226,0.0,0.0,0.0,0.0,0.0,0.0,0.0,0.0,0.0,63.76701736450195,0.6719749569892883,0.9055652022361755,0.0,0.0,0.0,0.0,0.0,0.0,0.0,0.0,0.0,0.02791985683143139,-0.01302218809723854,-0.01070312224328518,0.0,0.0,0.0,0.0,0.0,0.0,0.0,0.0,0.0
1606986665667631941,574659,1606983063772752394,imu_link,0.0036111734807491302,0.009158444590866566,0.528136134147644,0.8491027355194092,0.0,0.0,0.0,0.0,0.0,0.0,0.0,0.0,0.0,63.767974853515625,0.672584056854248,0.9057357311248779,0.0,0.0,0.0,0.0,0.0,0.0,0.0,0.0,0.0,0.022111723199486732,-0.010260582901537418,-0.0037045723292976618,0.0,0.0,0.0,0.0,0.0,0.0,0.0,0.0,0.0
1606986665671433191,574660,1606983063784438773,imu_link,0.0036111734807491302,0.009158444590866566,0.528136134147644,0.8491027355194092,0.0,0.0,0.0,0.0,0.0,0.0,0.0,0.0,0.0,63.767974853515625,0.672584056854248,0.9057357311248779,0.0,0.0,0.0,0.0,0.0,0.0,0.0,0.0,0.0,0.022111723199486732,-0.010260582901537418,-0.0037045723292976618,0.0,0.0,0.0,0.0,0.0,0.0,0.0,0.0,0.0
1606986665671453961,574661,1606983063784564156,imu_link,0.0036114356480538845,0.009159388020634651,0.528134822845459,0.8491033911705017,0.0,0.0,0.0,0.0,0.0,0.0,0.0,0.0,0.0,63.76780319213867,0.672661304473877,0.9058173894882202,0.0,0.0,0.0,0.0,0.0,0.0,0.0,0.0,0.0,-0.007924633100628853,-0.018980439752340317,0.014481546357274055,0.0,0.0,0.0,0.0,0.0,0.0,0.0,0.0,0.0
1606986665671462957,574662,1606983063784654941,imu_link,0.0036114356480538845,0.009159388020634651,0.528134822845459,0.8491033911705017,0.0,0.0,0.0,0.0,0.0,0.0,0.0,0.0,0.0,63.76780319213867,0.672661304473877,0.9058173894882202,0.0,0.0,0.0,0.0,0.0,0.0,0.0,0.0,0.0,-0.007924633100628853,-0.018980439752340317,0.014481546357274055,0.0,0.0,0.0,0.0,0.0,0.0,0.0,0.0,0.0
1606986665671469602,574663,1606983063784735063,imu_link,0.0036151171661913395,0.009161238558590412,0.528144121170044,0.8490976691246033,0.0,0.0,0.0,0.0,0.0,0.0,0.0,0.0,0.0,63.76906204223633,0.6726086735725403,0.9062950015068054,0.0,0.0,0.0,0.0,0.0,0.0,0.0,0.0,0.0,-0.019529538229107857,-0.012873070314526558,0.0018086116760969162,0.0,0.0,0.0,0.0,0.0,0.0,0.0,0.0,0.0
1606986665671473940,574664,1606983063784818536,imu_link,0.0036151171661913395,0.009161238558590412,0.528144121170044,0.8490976691246033,0.0,0.0,0.0,0.0,0.0,0.0,0.0,0.0,0.0,63.76906204223633,0.6726086735725403,0.9062950015068054,0.0,0.0,0.0,0.0,0.0,0.0,0.0,0.0,0.0,-0.019529538229107857,-0.012873070314526558,0.0018086116760969162,0.0,0.0,0.0,0.0,0.0,0.0,0.0,0.0,0.0
1606986665677915986,574665,1606983063784913761,imu_link,0.003612998640164733,0.009157284162938595,0.5281437635421753,0.8490979671478271,0.0,0.0,0.0,0.0,0.0,0.0,0.0,0.0,0.0,63.769004821777344,0.6723525524139404,0.9058490991592407,0.0,0.0,0.0,0.0,0.0,0.0,0.0,0.0,0.0,-0.0033398051746189594,0.004319639876484871,0.0059790778905153275,0.0,0.0,0.0,0.0,0.0,0.0,0.0,0.0,0.0
1606986665677936204,574666,1606983063784989078,imu_link,0.003612998640164733,0.009157284162938595,0.5281437635421753,0.8490979671478271,0.0,0.0,0.0,0.0,0.0,0.0,0.0,0.0,0.0,63.769004821777344,0.6723525524139404,0.9058490991592407,0.0,0.0,0.0,0.0,0.0,0.0,0.0,0.0,0.0,-0.0033398051746189594,0.004319639876484871,0.0059790778905153275,0.0,0.0,0.0,0.0,0.0,0.0,0.0,0.0,0.0
1606986665677969294,574667,1606983063785062149,imu_link,0.003612248692661524,0.009155917912721634,0.5281439423561096,0.8490979075431824,0.0,0.0,0.0,0.0,0.0,0.0,0.0,0.0,0.0,63.76902770996094,0.6722648739814758,0.9056934714317322,0.0,0.0,0.0,0.0,0.0,0.0,0.0,0.0,0.0,0.005412626080214977,0.015566900372505188,0.024934450164437294,0.0,0.0,0.0,0.0,0.0,0.0,0.0,0.0,0.0
1606986665677978531,574668,1606983063785132570,imu_link,0.003612248692661524,0.009155917912721634,0.5281439423561096,0.8490979075431824,0.0,0.0,0.0,0.0,0.0,0.0,0.0,0.0,0.0,63.76902770996094,0.6722648739814758,0.9056934714317322,0.0,0.0,0.0,0.0,0.0,0.0,0.0,0.0,0.0,0.005412626080214977,0.015566900372505188,0.024934450164437294,0.0,0.0,0.0,0.0,0.0,0.0,0.0,0.0,0.0
1606986665681493685,574669,1606983063785202853,imu_link,0.0036151977255940437,0.009154850617051125,0.5281442403793335,0.8490975499153137,0.0,0.0,0.0,0.0,0.0,0.0,0.0,0.0,0.0,63.769073486328125,0.6719820499420166,0.9059164524078369,0.0,0.0,0.0,0.0,0.0,0.0,0.0,0.0,0.0,-0.004004277288913727,0.009502863511443138,0.020591165870428085,0.0,0.0,0.0,0.0,0.0,0.0,0.0,0.0,0.0
1606986665681504307,574670,1606983063798226923,imu_link,0.0036151977255940437,0.009154850617051125,0.5281442403793335,0.8490975499153137,0.0,0.0,0.0,0.0,0.0,0.0,0.0,0.0,0.0,63.769073486328125,0.6719820499420166,0.9059164524078369,0.0,0.0,0.0,0.0,0.0,0.0,0.0,0.0,0.0,-0.004004277288913727,0.009502863511443138,0.020591165870428085,0.0,0.0,0.0,0.0,0.0,0.0,0.0,0.0,0.0
1606986665681513652,574671,1606983063798353990,imu_link,0.003613477572798729,0.009152175858616829,0.5281462669372559,0.8490964770317078,0.0,0.0,0.0,0.0,0.0,0.0,0.0,0.0,0.0,63.76933288574219,0.6718238592147827,0.9055883884429932,0.0,0.0,0.0,0.0,0.0,0.0,0.0,0.0,0.0,-0.011836293153464794,-0.00476127490401268,0.025200363248586655,0.0,0.0,0.0,0.0,0.0,0.0,0.0,0.0,0.0
1606986665681522155,574672,1606983063798444449,imu_link,0.003613477572798729,0.009152175858616829,0.5281462669372559,0.8490964770317078,0.0,0.0,0.0,0.0,0.0,0.0,0.0,0.0,0.0,63.76933288574219,0.6718238592147827,0.9055883884429932,0.0,0.0,0.0,0.0,0.0,0.0,0.0,0.0,0.0,-0.011836293153464794,-0.00476127490401268,0.025200363248586655,0.0,0.0,0.0,0.0,0.0,0.0,0.0,0.0,0.0
1606986665681550842,574673,1606983063798532430,imu_link,0.003614925779402256,0.009152797982096672,0.528145968914032,0.8490966558456421,0.0,0.0,0.0,0.0,0.0,0.0,0.0,0.0,0.0,63.769290924072266,0.6717970967292786,0.9057666063308716,0.0,0.0,0.0,0.0,0.0,0.0,0.0,0.0,0.0,0.008559450507164001,-0.017039712518453598,0.025269316509366035,0.0,0.0,0.0,0.0,0.0,0.0,0.0,0.0,0.0
1606986665817796458,574674,1606983063798621223,imu_link,0.003614925779402256,0.009152797982096672,0.528145968914032,0.8490966558456421,0.0,0.0,0.0,0.0,0.0,0.0,0.0,0.0,0.0,63.769290924072266,0.6717970967292786,0.9057666063308716,0.0,0.0,0.0,0.0,0.0,0.0,0.0,0.0,0.0,0.008559450507164001,-0.017039712518453598,0.025269316509366035,0.0,0.0,0.0,0.0,0.0,0.0,0.0,0.0,0.0
1606986665817829176,574675,1606983063798699853,imu_link,0.0036160966847091913,0.009156918153166771,0.52813321352005,0.8491045236587524,0.0,0.0,0.0,0.0,0.0,0.0,0.0,0.0,0.0,63.76758575439453,0.6721406579017639,0.9061200618743896,0.0,0.0,0.0,0.0,0.0,0.0,0.0,0.0,0.0,0.019876820966601372,-0.01356804370880127,0.01828116551041603,0.0,0.0,0.0,0.0,0.0,0.0,0.0,0.0,0.0
1606986665817844405,574676,1606983063798797821,imu_link,0.0036160966847091913,0.009156918153166771,0.52813321352005,0.8491045236587524,0.0,0.0,0.0,0.0,0.0,0.0,0.0,0.0,0.0,63.76758575439453,0.6721406579017639,0.9061200618743896,0.0,0.0,0.0,0.0,0.0,0.0,0.0,0.0,0.0,0.019876820966601372,-0.01356804370880127,0.01828116551041603,0.0,0.0,0.0,0.0,0.0,0.0,0.0,0.0,0.0
1606986665817854280,574677,1606983063798869250,imu_link,0.003613713663071394,0.00915670394897461,0.52813321352005,0.8491045236587524,0.0,0.0,0.0,0.0,0.0,0.0,0.0,0.0,0.0,63.76758575439453,0.6722640991210938,0.9058752655982971,0.0,0.0,0.0,0.0,0.0,0.0,0.0,0.0,0.0,0.011773333884775639,-0.0019417806761339307,-0.005498966202139854,0.0,0.0,0.0,0.0,0.0,0.0,0.0,0.0,0.0
1606986665823149739,574678,1606983063798975919,imu_link,0.003613713663071394,0.00915670394897461,0.52813321352005,0.8491045236587524,0.0,0.0,0.0,0.0,0.0,0.0,0.0,0.0,0.0,63.76758575439453,0.6722640991210938,0.9058752655982971,0.0,0.0,0.0,0.0,0.0,0.0,0.0,0.0,0.0,0.011773333884775639,-0.0019417806761339307,-0.005498966202139854,0.0,0.0,0.0,0.0,0.0,0.0,0.0,0.0,0.0
1606986665823183508,574679,1606983063799050277,imu_link,0.0036143006291240454,0.009159409441053867,0.5281213521957397,0.8491119146347046,0.0,0.0,0.0,0.0,0.0,0.0,0.0,0.0,0.0,63.765987396240234,0.6725044250488281,0.9060866832733154,0.0,0.0,0.0,0.0,0.0,0.0,0.0,0.0,0.0,0.010537402704358101,0.003255939343944192,-0.02422354556620121,0.0,0.0,0.0,0.0,0.0,0.0,0.0,0.0,0.0
1606986665823227664,574680,1606983063799158728,imu_link,0.0036143006291240454,0.009159409441053867,0.5281213521957397,0.8491119146347046,0.0,0.0,0.0,0.0,0.0,0.0,0.0,0.0,0.0,63.765987396240234,0.6725044250488281,0.9060866832733154,0.0,0.0,0.0,0.0,0.0,0.0,0.0,0.0,0.0,0.010537402704358101,0.003255939343944192,-0.02422354556620121,0.0,0.0,0.0,0.0,0.0,0.0,0.0,0.0,0.0
1606986665823243423,574681,1606983063811749345,imu_link,0.0036141066811978817,0.00916038267314434,0.5281219482421875,0.8491113781929016,0.0,0.0,0.0,0.0,0.0,0.0,0.0,0.0,0.0,63.766075134277344,0.6726101040840149,0.9061274528503418,0.0,0.0,0.0,0.0,0.0,0.0,0.0,0.0,0.0,-0.0034829790238291025,-0.002925300970673561,-0.03132985532283783,0.0,0.0,0.0,0.0,0.0,0.0,0.0,0.0,0.0
1606986665823264683,574682,1606983063811890081,imu_link,0.0036141066811978817,0.00916038267314434,0.5281219482421875,0.8491113781929016,0.0,0.0,0.0,0.0,0.0,0.0,0.0,0.0,0.0,63.766075134277344,0.6726101040840149,0.9061274528503418,0.0,0.0,0.0,0.0,0.0,0.0,0.0,0.0,0.0,-0.0034829790238291025,-0.002925300970673561,-0.03132985532283783,0.0,0.0,0.0,0.0,0.0,0.0,0.0,0.0,0.0
1606986665826943774,574683,1606983063811988308,imu_link,0.0036131988745182753,0.009160682559013367,0.5281177163124084,0.8491141200065613,0.0,0.0,0.0,0.0,0.0,0.0,0.0,0.0,0.0,63.76549530029297,0.6726989150047302,0.9060536623001099,0.0,0.0,0.0,0.0,0.0,0.0,0.0,0.0,0.0,-0.010492370463907719,0.004012084566056728,-0.025802554562687874,0.0,0.0,0.0,0.0,0.0,0.0,0.0,0.0,0.0
1606986665826974958,574684,1606983063812078572,imu_link,0.0036131988745182753,0.009160682559013367,0.5281177163124084,0.8491141200065613,0.0,0.0,0.0,0.0,0.0,0.0,0.0,0.0,0.0,63.76549530029297,0.6726989150047302,0.9060536623001099,0.0,0.0,0.0,0.0,0.0,0.0,0.0,0.0,0.0,-0.010492370463907719,0.004012084566056728,-0.025802554562687874,0.0,0.0,0.0,0.0,0.0,0.0,0.0,0.0,0.0
1606986665826997202,574685,1606983063812171297,imu_link,0.003612253349274397,0.009159752167761326,0.5281184911727905,0.8491136431694031,0.0,0.0,0.0,0.0,0.0,0.0,0.0,0.0,0.0,63.76559829711914,0.6726647615432739,0.9059059619903564,0.0,0.0,0.0,0.0,0.0,0.0,0.0,0.0,0.0,-0.008442699909210205,0.008671495132148266,0.00829506479203701,0.0,0.0,0.0,0.0,0.0,0.0,0.0,0.0,0.0
1606986665827025416,574686,1606983063812260253,imu_link,0.003612253349274397,0.009159752167761326,0.5281184911727905,0.8491136431694031,0.0,0.0,0.0,0.0,0.0,0.0,0.0,0.0,0.0,63.76559829711914,0.6726647615432739,0.9059059619903564,0.0,0.0,0.0,0.0,0.0,0.0,0.0,0.0,0.0,-0.008442699909210205,0.008671495132148266,0.00829506479203701,0.0,0.0,0.0,0.0,0.0,0.0,0.0,0.0,0.0
1606986665837377709,574687,1606983063812378842,imu_link,0.0036116347182542086,0.009157435968518257,0.5281148552894592,0.8491159677505493,0.0,0.0,0.0,0.0,0.0,0.0,0.0,0.0,0.0,63.765098571777344,0.6724807620048523,0.9057026505470276,0.0,0.0,0.0,0.0,0.0,0.0,0.0,0.0,0.0,-0.02446364238858223,-0.00317969243042171,0.0032408591359853745,0.0,0.0,0.0,0.0,0.0,0.0,0.0,0.0,0.0
1606986665837425232,574688,1606983063812470680,imu_link,0.0036116347182542086,0.009157435968518257,0.5281148552894592,0.8491159677505493,0.0,0.0,0.0,0.0,0.0,0.0,0.0,0.0,0.0,63.765098571777344,0.6724807620048523,0.9057026505470276,0.0,0.0,0.0,0.0,0.0,0.0,0.0,0.0,0.0,-0.02446364238858223,-0.00317969243042171,0.0032408591359853745,0.0,0.0,0.0,0.0,0.0,0.0,0.0,0.0,0.0
1606986665837466798,574689,1606983063812554649,imu_link,0.0036121259909123182,0.009155909530818462,0.5281144976615906,0.8491160869598389,0.0,0.0,0.0,0.0,0.0,0.0,0.0,0.0,0.0,63.76505661010742,0.6723026633262634,0.9056578278541565,0.0,0.0,0.0,0.0,0.0,0.0,0.0,0.0,0.0,-0.01629362627863884,-0.010049151256680489,0.005383648443967104,0.0,0.0,0.0,0.0,0.0,0.0,0.0,0.0,0.0
1606986665837496490,574690,1606983063812633632,imu_link,0.0036121259909123182,0.009155909530818462,0.5281144976615906,0.8491160869598389,0.0,0.0,0.0,0.0,0.0,0.0,0.0,0.0,0.0,63.76505661010742,0.6723026633262634,0.9056578278541565,0.0,0.0,0.0,0.0,0.0,0.0,0.0,0.0,0.0,-0.01629362627863884,-0.010049151256680489,0.005383648443967104,0.0,0.0,0.0,0.0,0.0,0.0,0.0,0.0,0.0
1606986665837516436,574691,1606983063812722187,imu_link,0.003618251997977495,0.009154108352959156,0.5281181335449219,0.849113941192627,0.0,0.0,0.0,0.0,0.0,0.0,0.0,0.0,0.0,63.765541076660156,0.6717529892921448,0.9061477184295654,0.0,0.0,0.0,0.0,0.0,0.0,0.0,0.0,0.0,0.0040404656901955605,0.0018691906007006764,0.016758045181632042,0.0,0.0,0.0,0.0,0.0,0.0,0.0,0.0,0.0
1606986665875626660,574692,1606983063825460690,imu_link,0.003618251997977495,0.009154108352959156,0.5281181335449219,0.849113941192627,0.0,0.0,0.0,0.0,0.0,0.0,0.0,0.0,0.0,63.765541076660156,0.6717529892921448,0.9061477184295654,0.0,0.0,0.0,0.0,0.0,0.0,0.0,0.0,0.0,0.0040404656901955605,0.0018691906007006764,0.016758045181632042,0.0,0.0,0.0,0.0,0.0,0.0,0.0,0.0,0.0
1606986665875638542,574693,1606983063825566601,imu_link,0.0036171837709844112,0.009153064340353012,0.5281182527542114,0.8491137623786926,0.0,0.0,0.0,0.0,0.0,0.0,0.0,0.0,0.0,63.76556396484375,0.6717157959938049,0.9059807658195496,0.0,0.0,0.0,0.0,0.0,0.0,0.0,0.0,0.0,0.0025973261799663305,0.004579541739076376,-0.003545488230884075,0.0,0.0,0.0,0.0,0.0,0.0,0.0,0.0,0.0
1606986665875653081,574694,1606983063825643266,imu_link,0.0036171837709844112,0.009153064340353012,0.5281182527542114,0.8491137623786926,0.0,0.0,0.0,0.0,0.0,0.0,0.0,0.0,0.0,63.76556396484375,0.6717157959938049,0.9059807658195496,0.0,0.0,0.0,0.0,0.0,0.0,0.0,0.0,0.0,0.0025973261799663305,0.004579541739076376,-0.003545488230884075,0.0,0.0,0.0,0.0,0.0,0.0,0.0,0.0,0.0
1606986665875657811,574695,1606983063825717995,imu_link,0.0036160319577902555,0.009152987040579319,0.5281209349632263,0.8491120934486389,0.0,0.0,0.0,0.0,0.0,0.0,0.0,0.0,0.0,63.76591873168945,0.6717751026153564,0.9058661460876465,0.0,0.0,0.0,0.0,0.0,0.0,0.0,0.0,0.0,1.9784272808465175e-05,-0.008001281879842281,-0.0001937510387506336,0.0,0.0,0.0,0.0,0.0,0.0,0.0,0.0,0.0
1606986665881648992,574696,1606983063825790231,imu_link,0.0036160319577902555,0.009152987040579319,0.5281209349632263,0.8491120934486389,0.0,0.0,0.0,0.0,0.0,0.0,0.0,0.0,0.0,63.76591873168945,0.6717751026153564,0.9058661460876465,0.0,0.0,0.0,0.0,0.0,0.0,0.0,0.0,0.0,1.9784272808465175e-05,-0.008001281879842281,-0.0001937510387506336,0.0,0.0,0.0,0.0,0.0,0.0,0.0,0.0,0.0
1606986665881673968,574697,1606983063825852619,imu_link,0.0036180135793983936,0.009155340492725372,0.5281215906143188,0.8491116762161255,0.0,0.0,0.0,0.0,0.0,0.0,0.0,0.0,0.0,63.766014099121094,0.6718834638595581,0.9062018990516663,0.0,0.0,0.0,0.0,0.0,0.0,0.0,0.0,0.0,-0.003946592099964619,-0.0032895300537347794,0.015290383249521255,0.0,0.0,0.0,0.0,0.0,0.0,0.0,0.0,0.0
1606986665881685973,574698,1606983063825935006,imu_link,0.0036180135793983936,0.009155340492725372,0.5281215906143188,0.8491116762161255,0.0,0.0,0.0,0.0,0.0,0.0,0.0,0.0,0.0,63.766014099121094,0.6718834638595581,0.9062018990516663,0.0,0.0,0.0,0.0,0.0,0.0,0.0,0.0,0.0,-0.003946592099964619,-0.0032895300537347794,0.015290383249521255,0.0,0.0,0.0,0.0,0.0,0.0,0.0,0.0,0.0
1606986665881701125,574699,1606983063825994194,imu_link,0.0036185751669108868,0.009153565391898155,0.5281260013580322,0.8491089344024658,0.0,0.0,0.0,0.0,0.0,0.0,0.0,0.0,0.0,63.76660919189453,0.671671986579895,0.906152606010437,0.0,0.0,0.0,0.0,0.0,0.0,0.0,0.0,0.0,-0.008319330401718616,0.005810623988509178,0.028248906135559082,0.0,0.0,0.0,0.0,0.0,0.0,0.0,0.0,0.0
1606986665881717262,574700,1606983063826060009,imu_link,0.0036185751669108868,0.009153565391898155,0.5281260013580322,0.8491089344024658,0.0,0.0,0.0,0.0,0.0,0.0,0.0,0.0,0.0,63.76660919189453,0.671671986579895,0.906152606010437,0.0,0.0,0.0,0.0,0.0,0.0,0.0,0.0,0.0,-0.008319330401718616,0.005810623988509178,0.028248906135559082,0.0,0.0,0.0,0.0,0.0,0.0,0.0,0.0,0.0
1606986665888683007,574701,1606983063826121058,imu_link,0.0036179448943585157,0.009153999388217926,0.5281267166137695,0.8491085171699524,0.0,0.0,0.0,0.0,0.0,0.0,0.0,0.0,0.0,63.76670455932617,0.6717516779899597,0.9061180353164673,0.0,0.0,0.0,0.0,0.0,0.0,0.0,0.0,0.0,-0.021305225789546967,0.000783380470238626,0.024419838562607765,0.0,0.0,0.0,0.0,0.0,0.0,0.0,0.0,0.0
1606986665888702317,574702,1606983063826187445,imu_link,0.0036179448943585157,0.009153999388217926,0.5281267166137695,0.8491085171699524,0.0,0.0,0.0,0.0,0.0,0.0,0.0,0.0,0.0,63.76670455932617,0.6717516779899597,0.9061180353164673,0.0,0.0,0.0,0.0,0.0,0.0,0.0,0.0,0.0,-0.021305225789546967,0.000783380470238626,0.024419838562607765,0.0,0.0,0.0,0.0,0.0,0.0,0.0,0.0,0.0
1606986665888710608,574703,1606983063839063160,imu_link,0.003620120231062174,0.009150383062660694,0.5281311869621277,0.8491057753562927,0.0,0.0,0.0,0.0,0.0,0.0,0.0,0.0,0.0,63.76729965209961,0.6712634563446045,0.9061142802238464,0.0,0.0,0.0,0.0,0.0,0.0,0.0,0.0,0.0,-0.012755688279867172,-0.00876446533948183,0.012990250252187252,0.0,0.0,0.0,0.0,0.0,0.0,0.0,0.0,0.0
1606986665888721621,574704,1606983063839191394,imu_link,0.003620120231062174,0.009150383062660694,0.5281311869621277,0.8491057753562927,0.0,0.0,0.0,0.0,0.0,0.0,0.0,0.0,0.0,63.76729965209961,0.6712634563446045,0.9061142802238464,0.0,0.0,0.0,0.0,0.0,0.0,0.0,0.0,0.0,-0.012755688279867172,-0.00876446533948183,0.012990250252187252,0.0,0.0,0.0,0.0,0.0,0.0,0.0,0.0,0.0
1606986665894454192,574705,1606983063839281497,imu_link,0.0036217852029949427,0.009150242432951927,0.5281317234039307,0.8491054177284241,0.0,0.0,0.0,0.0,0.0,0.0,0.0,0.0,0.0,63.76737976074219,0.6711483597755432,0.906268298625946,0.0,0.0,0.0,0.0,0.0,0.0,0.0,0.0,0.0,0.010116488672792912,-0.004367311950773001,0.00029253188404254615,0.0,0.0,0.0,0.0,0.0,0.0,0.0,0.0,0.0
1606986665894481652,574706,1606983063839360993,imu_link,0.0036217852029949427,0.009150242432951927,0.5281317234039307,0.8491054177284241,0.0,0.0,0.0,0.0,0.0,0.0,0.0,0.0,0.0,63.76737976074219,0.6711483597755432,0.906268298625946,0.0,0.0,0.0,0.0,0.0,0.0,0.0,0.0,0.0,0.010116488672792912,-0.004367311950773001,0.00029253188404254615,0.0,0.0,0.0,0.0,0.0,0.0,0.0,0.0,0.0
1606986665894507184,574707,1606983063839439395,imu_link,0.0036226576194167137,0.009153309278190136,0.5281264781951904,0.8491086959838867,0.0,0.0,0.0,0.0,0.0,0.0,0.0,0.0,0.0,63.76667022705078,0.6713995933532715,0.9065346717834473,0.0,0.0,0.0,0.0,0.0,0.0,0.0,0.0,0.0,0.010155647061765194,0.0007138759247027338,-0.0005342176300473511,0.0,0.0,0.0,0.0,0.0,0.0,0.0,0.0,0.0
1606986665894521786,574708,1606983063839527973,imu_link,0.0036226576194167137,0.009153309278190136,0.5281264781951904,0.8491086959838867,0.0,0.0,0.0,0.0,0.0,0.0,0.0,0.0,0.0,63.76667022705078,0.6713995933532715,0.9065346717834473,0.0,0.0,0.0,0.0,0.0,0.0,0.0,0.0,0.0,0.010155647061765194,0.0007138759247027338,-0.0005342176300473511,0.0,0.0,0.0,0.0,0.0,0.0,0.0,0.0,0.0
1606986665894535699,574709,1606983063839603968,imu_link,0.0036240173503756523,0.009151225909590721,0.5281243324279785,0.8491100668907166,0.0,0.0,0.0,0.0,0.0,0.0,0.0,0.0,0.0,63.76637649536133,0.6711169481277466,0.9065390229225159,0.0,0.0,0.0,0.0,0.0,0.0,0.0,0.0,0.0,0.0011790890712291002,-0.0025164522230625153,0.0031908750534057617,0.0,0.0,0.0,0.0,0.0,0.0,0.0,0.0,0.0
1606986665945904629,574710,1606983063839675213,imu_link,0.0036240173503756523,0.009151225909590721,0.5281243324279785,0.8491100668907166,0.0,0.0,0.0,0.0,0.0,0.0,0.0,0.0,0.0,63.76637649536133,0.6711169481277466,0.9065390229225159,0.0,0.0,0.0,0.0,0.0,0.0,0.0,0.0,0.0,0.0011790890712291002,-0.0025164522230625153,0.0031908750534057617,0.0,0.0,0.0,0.0,0.0,0.0,0.0,0.0,0.0
1606986665945924782,574711,1606983063839751967,imu_link,0.0036262094508856535,0.009148633107542992,0.5281215906143188,0.849111795425415,0.0,0.0,0.0,0.0,0.0,0.0,0.0,0.0,0.0,63.76599884033203,0.6707348823547363,0.906593382358551,0.0,0.0,0.0,0.0,0.0,0.0,0.0,0.0,0.0,0.00011681150499498472,-0.0037637529894709587,0.010266265831887722,0.0,0.0,0.0,0.0,0.0,0.0,0.0,0.0,0.0
1606986665945950222,574712,1606983063839832849,imu_link,0.0036262094508856535,0.009148633107542992,0.5281215906143188,0.849111795425415,0.0,0.0,0.0,0.0,0.0,0.0,0.0,0.0,0.0,63.76599884033203,0.6707348823547363,0.906593382358551,0.0,0.0,0.0,0.0,0.0,0.0,0.0,0.0,0.0,0.00011681150499498472,-0.0037637529894709587,0.010266265831887722,0.0,0.0,0.0,0.0,0.0,0.0,0.0,0.0,0.0
1606986665945963605,574713,1606983063839909327,imu_link,0.0036266681272536516,0.009148412384092808,0.5281225442886353,0.8491110801696777,0.0,0.0,0.0,0.0,0.0,0.0,0.0,0.0,0.0,63.766136169433594,0.6706844568252563,0.906625509262085,0.0,0.0,0.0,0.0,0.0,0.0,0.0,0.0,0.0,-0.0022149302531033754,-0.0012725507840514183,0.034941691905260086,0.0,0.0,0.0,0.0,0.0,0.0,0.0,0.0,0.0
1606986665951207130,574714,1606983063851904886,imu_link,0.0036266681272536516,0.009148412384092808,0.5281225442886353,0.8491110801696777,0.0,0.0,0.0,0.0,0.0,0.0,0.0,0.0,0.0,63.766136169433594,0.6706844568252563,0.906625509262085,0.0,0.0,0.0,0.0,0.0,0.0,0.0,0.0,0.0,-0.0022149302531033754,-0.0012725507840514183,0.034941691905260086,0.0,0.0,0.0,0.0,0.0,0.0,0.0,0.0,0.0
1606986665951229209,574715,1606983063852023297,imu_link,0.003626848803833127,0.009146621450781822,0.528123676776886,0.8491104245185852,0.0,0.0,0.0,0.0,0.0,0.0,0.0,0.0,0.0,63.76628875732422,0.6704981923103333,0.9065354466438293,0.0,0.0,0.0,0.0,0.0,0.0,0.0,0.0,0.0,-0.01859823428094387,0.004569634795188904,0.045888230204582214,0.0,0.0,0.0,0.0,0.0,0.0,0.0,0.0,0.0
1606986665951258676,574716,1606983063852112735,imu_link,0.003626848803833127,0.009146621450781822,0.528123676776886,0.8491104245185852,0.0,0.0,0.0,0.0,0.0,0.0,0.0,0.0,0.0,63.76628875732422,0.6704981923103333,0.9065354466438293,0.0,0.0,0.0,0.0,0.0,0.0,0.0,0.0,0.0,-0.01859823428094387,0.004569634795188904,0.045888230204582214,0.0,0.0,0.0,0.0,0.0,0.0,0.0,0.0,0.0
1606986665951267979,574717,1606983063852183984,imu_link,0.0036259631160646677,0.009146355092525482,0.5281230807304382,0.8491109013557434,0.0,0.0,0.0,0.0,0.0,0.0,0.0,0.0,0.0,63.766197204589844,0.6705265641212463,0.9064324498176575,0.0,0.0,0.0,0.0,0.0,0.0,0.0,0.0,0.0,-0.003908539656549692,0.0006683668470941484,0.03212306648492813,0.0,0.0,0.0,0.0,0.0,0.0,0.0,0.0,0.0
1606986665951278559,574718,1606983063852264767,imu_link,0.0036259631160646677,0.009146355092525482,0.5281230807304382,0.8491109013557434,0.0,0.0,0.0,0.0,0.0,0.0,0.0,0.0,0.0,63.766197204589844,0.6705265641212463,0.9064324498176575,0.0,0.0,0.0,0.0,0.0,0.0,0.0,0.0,0.0,-0.003908539656549692,0.0006683668470941484,0.03212306648492813,0.0,0.0,0.0,0.0,0.0,0.0,0.0,0.0,0.0
1606986665958759641,574719,1606983063852351350,imu_link,0.003627378260716796,0.009147589094936848,0.5281246900558472,0.8491098880767822,0.0,0.0,0.0,0.0,0.0,0.0,0.0,0.0,0.0,63.76641845703125,0.670559287071228,0.906646192073822,0.0,0.0,0.0,0.0,0.0,0.0,0.0,0.0,0.0,0.006464263889938593,-0.006770945619791746,0.018356697633862495,0.0,0.0,0.0,0.0,0.0,0.0,0.0,0.0,0.0
1606986665958784537,574720,1606983063852429040,imu_link,0.003627378260716796,0.009147589094936848,0.5281246900558472,0.8491098880767822,0.0,0.0,0.0,0.0,0.0,0.0,0.0,0.0,0.0,63.76641845703125,0.670559287071228,0.906646192073822,0.0,0.0,0.0,0.0,0.0,0.0,0.0,0.0,0.0,0.006464263889938593,-0.006770945619791746,0.018356697633862495,0.0,0.0,0.0,0.0,0.0,0.0,0.0,0.0,0.0
1606986665958804679,574721,1606983063852499770,imu_link,0.0036284581292420626,0.00914619117975235,0.5281243920326233,0.849109947681427,0.0,0.0,0.0,0.0,0.0,0.0,0.0,0.0,0.0,63.76638412475586,0.6703581213951111,0.9066666960716248,0.0,0.0,0.0,0.0,0.0,0.0,0.0,0.0,0.0,0.0012550110695883632,-0.004231983795762062,0.011326702311635017,0.0,0.0,0.0,0.0,0.0,0.0,0.0,0.0,0.0
1606986665958815703,574722,1606983063852570038,imu_link,0.0036284581292420626,0.00914619117975235,0.5281243920326233,0.849109947681427,0.0,0.0,0.0,0.0,0.0,0.0,0.0,0.0,0.0,63.76638412475586,0.6703581213951111,0.9066666960716248,0.0,0.0,0.0,0.0,0.0,0.0,0.0,0.0,0.0,0.0012550110695883632,-0.004231983795762062,0.011326702311635017,0.0,0.0,0.0,0.0,0.0,0.0,0.0,0.0,0.0
1606986665991563785,574723,1606983063852641595,imu_link,0.003627966158092022,0.009145677089691162,0.5281269550323486,0.8491084575653076,0.0,0.0,0.0,0.0,0.0,0.0,0.0,0.0,0.0,63.7667236328125,0.6703352332115173,0.9065895080566406,0.0,0.0,0.0,0.0,0.0,0.0,0.0,0.0,0.0,0.0005978802219033241,-0.008054589852690697,0.006680789403617382,0.0,0.0,0.0,0.0,0.0,0.0,0.0,0.0,0.0
1606986665991591613,574724,1606983063865693899,imu_link,0.003627966158092022,0.009145677089691162,0.5281269550323486,0.8491084575653076,0.0,0.0,0.0,0.0,0.0,0.0,0.0,0.0,0.0,63.7667236328125,0.6703352332115173,0.9065895080566406,0.0,0.0,0.0,0.0,0.0,0.0,0.0,0.0,0.0,0.0005978802219033241,-0.008054589852690697,0.006680789403617382,0.0,0.0,0.0,0.0,0.0,0.0,0.0,0.0,0.0
1606986665991606261,574725,1606983063865834109,imu_link,0.0036271309945732355,0.009147466160356998,0.5281258821487427,0.8491091132164001,0.0,0.0,0.0,0.0,0.0,0.0,0.0,0.0,0.0,63.76658248901367,0.6705610156059265,0.9066157937049866,0.0,0.0,0.0,0.0,0.0,0.0,0.0,0.0,0.0,-0.0033281983342021704,0.0010312744416296482,0.008470314554870129,0.0,0.0,0.0,0.0,0.0,0.0,0.0,0.0,0.0
1606986665991629799,574726,1606983063865936636,imu_link,0.0036271309945732355,0.009147466160356998,0.5281258821487427,0.8491091132164001,0.0,0.0,0.0,0.0,0.0,0.0,0.0,0.0,0.0,63.76658248901367,0.6705610156059265,0.9066157937049866,0.0,0.0,0.0,0.0,0.0,0.0,0.0,0.0,0.0,-0.0033281983342021704,0.0010312744416296482,0.008470314554870129,0.0,0.0,0.0,0.0,0.0,0.0,0.0,0.0,0.0
1606986666099471717,574727,1606983063866025627,imu_link,0.0036285286769270897,0.009146398864686489,0.528127133846283,0.8491083383560181,0.0,0.0,0.0,0.0,0.0,0.0,0.0,0.0,0.0,63.766746520996094,0.6703712344169617,0.9066881537437439,0.0,0.0,0.0,0.0,0.0,0.0,0.0,0.0,0.0,0.005165162030607462,0.011543343774974346,0.021661991253495216,0.0,0.0,0.0,0.0,0.0,0.0,0.0,0.0,0.0
1606986666099489400,574728,1606983063866122095,imu_link,0.0036285286769270897,0.009146398864686489,0.528127133846283,0.8491083383560181,0.0,0.0,0.0,0.0,0.0,0.0,0.0,0.0,0.0,63.766746520996094,0.6703712344169617,0.9066881537437439,0.0,0.0,0.0,0.0,0.0,0.0,0.0,0.0,0.0,0.005165162030607462,0.011543343774974346,0.021661991253495216,0.0,0.0,0.0,0.0,0.0,0.0,0.0,0.0,0.0
1606986666099496826,574729,1606983063866207523,imu_link,0.0036282746586948633,0.009144960902631283,0.5281283855438232,0.849107563495636,0.0,0.0,0.0,0.0,0.0,0.0,0.0,0.0,0.0,63.76691436767578,0.6702452898025513,0.9065772294998169,0.0,0.0,0.0,0.0,0.0,0.0,0.0,0.0,0.0,-0.00457365857437253,-0.0075024995021522045,0.020734379068017006,0.0,0.0,0.0,0.0,0.0,0.0,0.0,0.0,0.0
1606986666099505429,574730,1606983063866318495,imu_link,0.0036282746586948633,0.009144960902631283,0.5281283855438232,0.849107563495636,0.0,0.0,0.0,0.0,0.0,0.0,0.0,0.0,0.0,63.76691436767578,0.6702452898025513,0.9065772294998169,0.0,0.0,0.0,0.0,0.0,0.0,0.0,0.0,0.0,-0.00457365857437253,-0.0075024995021522045,0.020734379068017006,0.0,0.0,0.0,0.0,0.0,0.0,0.0,0.0,0.0
1606986666099515701,574731,1606983063866408969,imu_link,0.003630888881161809,0.00914573110640049,0.5281248092651367,0.8491097688674927,0.0,0.0,0.0,0.0,0.0,0.0,0.0,0.0,0.0,63.76643753051758,0.6701657772064209,0.9068754315376282,0.0,0.0,0.0,0.0,0.0,0.0,0.0,0.0,0.0,-0.004410936031490564,-0.023802688345313072,0.01759670488536358,0.0,0.0,0.0,0.0,0.0,0.0,0.0,0.0,0.0
1606986666102864525,574732,1606983063866496887,imu_link,0.003630888881161809,0.00914573110640049,0.5281248092651367,0.8491097688674927,0.0,0.0,0.0,0.0,0.0,0.0,0.0,0.0,0.0,63.76643753051758,0.6701657772064209,0.9068754315376282,0.0,0.0,0.0,0.0,0.0,0.0,0.0,0.0,0.0,-0.004410936031490564,-0.023802688345313072,0.01759670488536358,0.0,0.0,0.0,0.0,0.0,0.0,0.0,0.0,0.0
1606986666102877883,574733,1606983063866575900,imu_link,0.0036301028449088335,0.009146497584879398,0.5281239748001099,0.8491103053092957,0.0,0.0,0.0,0.0,0.0,0.0,0.0,0.0,0.0,63.76632308959961,0.6702889800071716,0.9068446755409241,0.0,0.0,0.0,0.0,0.0,0.0,0.0,0.0,0.0,0.009551655501127243,-0.02106800116598606,0.029087724164128304,0.0,0.0,0.0,0.0,0.0,0.0,0.0,0.0,0.0
1606986666102888027,574734,1606983063866672785,imu_link,0.0036301028449088335,0.009146497584879398,0.5281239748001099,0.8491103053092957,0.0,0.0,0.0,0.0,0.0,0.0,0.0,0.0,0.0,63.76632308959961,0.6702889800071716,0.9068446755409241,0.0,0.0,0.0,0.0,0.0,0.0,0.0,0.0,0.0,0.009551655501127243,-0.02106800116598606,0.029087724164128304,0.0,0.0,0.0,0.0,0.0,0.0,0.0,0.0,0.0
1606986666102899206,574735,1606983063879234831,imu_link,0.003631928935647011,0.009151623584330082,0.5281208753585815,0.8491121530532837,0.0,0.0,0.0,0.0,0.0,0.0,0.0,0.0,0.0,63.76591873168945,0.6706804037094116,0.9073302745819092,0.0,0.0,0.0,0.0,0.0,0.0,0.0,0.0,0.0,0.01796708069741726,-0.02105400338768959,0.03870197758078575,0.0,0.0,0.0,0.0,0.0,0.0,0.0,0.0,0.0
1606986666112154855,574736,1606983063879359235,imu_link,0.003631928935647011,0.009151623584330082,0.5281208753585815,0.8491121530532837,0.0,0.0,0.0,0.0,0.0,0.0,0.0,0.0,0.0,63.76591873168945,0.6706804037094116,0.9073302745819092,0.0,0.0,0.0,0.0,0.0,0.0,0.0,0.0,0.0,0.01796708069741726,-0.02105400338768959,0.03870197758078575,0.0,0.0,0.0,0.0,0.0,0.0,0.0,0.0,0.0
1606986666112176400,574737,1606983063879452356,imu_link,0.0036329072900116444,0.009152926504611969,0.5281228423118591,0.8491109013557434,0.0,0.0,0.0,0.0,0.0,0.0,0.0,0.0,0.0,63.766178131103516,0.670745849609375,0.9075060486793518,0.0,0.0,0.0,0.0,0.0,0.0,0.0,0.0,0.0,0.01722073182463646,-0.0008545147138647735,0.032468970865011215,0.0,0.0,0.0,0.0,0.0,0.0,0.0,0.0,0.0
1606986666112186370,574738,1606983063879530849,imu_link,0.0036329072900116444,0.009152926504611969,0.5281228423118591,0.8491109013557434,0.0,0.0,0.0,0.0,0.0,0.0,0.0,0.0,0.0,63.766178131103516,0.670745849609375,0.9075060486793518,0.0,0.0,0.0,0.0,0.0,0.0,0.0,0.0,0.0,0.01722073182463646,-0.0008545147138647735,0.032468970865011215,0.0,0.0,0.0,0.0,0.0,0.0,0.0,0.0,0.0
1606986666112198976,574739,1606983063879616019,imu_link,0.003631423693150282,0.00915607064962387,0.5281304717063904,0.8491061329841614,0.0,0.0,0.0,0.0,0.0,0.0,0.0,0.0,0.0,63.767215728759766,0.6711334586143494,0.907558023929596,0.0,0.0,0.0,0.0,0.0,0.0,0.0,0.0,0.0,0.01581052877008915,0.020908452570438385,0.011611285619437695,0.0,0.0,0.0,0.0,0.0,0.0,0.0,0.0,0.0
1606986666112231729,574740,1606983063879690116,imu_link,0.003631423693150282,0.00915607064962387,0.5281304717063904,0.8491061329841614,0.0,0.0,0.0,0.0,0.0,0.0,0.0,0.0,0.0,63.767215728759766,0.6711334586143494,0.907558023929596,0.0,0.0,0.0,0.0,0.0,0.0,0.0,0.0,0.0,0.01581052877008915,0.020908452570438385,0.011611285619437695,0.0,0.0,0.0,0.0,0.0,0.0,0.0,0.0,0.0
1606986666120479738,574741,1606983063879794058,imu_link,0.003631054423749447,0.009154832921922207,0.5281306505203247,0.8491060733795166,0.0,0.0,0.0,0.0,0.0,0.0,0.0,0.0,0.0,63.76723861694336,0.6710351705551147,0.9074472784996033,0.0,0.0,0.0,0.0,0.0,0.0,0.0,0.0,0.0,0.006064055021852255,0.0020959742832928896,0.01208030991256237,0.0,0.0,0.0,0.0,0.0,0.0,0.0,0.0,0.0
1606986666120501147,574742,1606983063879865909,imu_link,0.003631054423749447,0.009154832921922207,0.5281306505203247,0.8491060733795166,0.0,0.0,0.0,0.0,0.0,0.0,0.0,0.0,0.0,63.76723861694336,0.6710351705551147,0.9074472784996033,0.0,0.0,0.0,0.0,0.0,0.0,0.0,0.0,0.0,0.006064055021852255,0.0020959742832928896,0.01208030991256237,0.0,0.0,0.0,0.0,0.0,0.0,0.0,0.0,0.0
1606986666120515528,574743,1606983063879947008,imu_link,0.0036295775789767504,0.009156756103038788,0.5281381011009216,0.8491013050079346,0.0,0.0,0.0,0.0,0.0,0.0,0.0,0.0,0.0,63.768253326416016,0.6713036298751831,0.9074259996414185,0.0,0.0,0.0,0.0,0.0,0.0,0.0,0.0,0.0,-0.008314919658005238,-0.0009067904320545495,0.009241853840649128,0.0,0.0,0.0,0.0,0.0,0.0,0.0,0.0,0.0
1606986666120533086,574744,1606983063880019433,imu_link,0.0036295775789767504,0.009156756103038788,0.5281381011009216,0.8491013050079346,0.0,0.0,0.0,0.0,0.0,0.0,0.0,0.0,0.0,63.768253326416016,0.6713036298751831,0.9074259996414185,0.0,0.0,0.0,0.0,0.0,0.0,0.0,0.0,0.0,-0.008314919658005238,-0.0009067904320545495,0.009241853840649128,0.0,0.0,0.0,0.0,0.0,0.0,0.0,0.0,0.0
1606986666270429143,574745,1606983063880090794,imu_link,0.003627920523285866,0.009154414758086205,0.5281391143798828,0.8491008281707764,0.0,0.0,0.0,0.0,0.0,0.0,0.0,0.0,0.0,63.76837921142578,0.6711751818656921,0.9071238040924072,0.0,0.0,0.0,0.0,0.0,0.0,0.0,0.0,0.0,-0.0069888862781226635,-0.0009531317627988756,0.004334315191954374,0.0,0.0,0.0,0.0,0.0,0.0,0.0,0.0,0.0
1606986666270448993,574746,1606983063893110665,imu_link,0.003627920523285866,0.009154414758086205,0.5281391143798828,0.8491008281707764,0.0,0.0,0.0,0.0,0.0,0.0,0.0,0.0,0.0,63.76837921142578,0.6711751818656921,0.9071238040924072,0.0,0.0,0.0,0.0,0.0,0.0,0.0,0.0,0.0,-0.0069888862781226635,-0.0009531317627988756,0.004334315191954374,0.0,0.0,0.0,0.0,0.0,0.0,0.0,0.0,0.0
1606986666270473117,574747,1606983063893255675,imu_link,0.0036287056282162666,0.009153995662927628,0.5281400680541992,0.8491001129150391,0.0,0.0,0.0,0.0,0.0,0.0,0.0,0.0,0.0,63.76851272583008,0.6710857152938843,0.9071756601333618,0.0,0.0,0.0,0.0,0.0,0.0,0.0,0.0,0.0,-0.00901318434625864,-0.02068273536860943,-0.008739591576159,0.0,0.0,0.0,0.0,0.0,0.0,0.0,0.0,0.0
1606986666270479986,574748,1606983063893354750,imu_link,0.0036287056282162666,0.009153995662927628,0.5281400680541992,0.8491001129150391,0.0,0.0,0.0,0.0,0.0,0.0,0.0,0.0,0.0,63.76851272583008,0.6710857152938843,0.9071756601333618,0.0,0.0,0.0,0.0,0.0,0.0,0.0,0.0,0.0,-0.00901318434625864,-0.02068273536860943,-0.008739591576159,0.0,0.0,0.0,0.0,0.0,0.0,0.0,0.0,0.0
1606986666270511878,574749,1606983063893445790,imu_link,0.0036297901533544064,0.009155838750302792,0.5281404256820679,0.8490999937057495,0.0,0.0,0.0,0.0,0.0,0.0,0.0,0.0,0.0,63.7685546875,0.6711991429328918,0.9073927998542786,0.0,0.0,0.0,0.0,0.0,0.0,0.0,0.0,0.0,-0.004220237955451012,-0.020638739690184593,0.019462410360574722,0.0,0.0,0.0,0.0,0.0,0.0,0.0,0.0,0.0
1606986666274716023,574750,1606983063893540890,imu_link,0.0036297901533544064,0.009155838750302792,0.5281404256820679,0.8490999937057495,0.0,0.0,0.0,0.0,0.0,0.0,0.0,0.0,0.0,63.7685546875,0.6711991429328918,0.9073927998542786,0.0,0.0,0.0,0.0,0.0,0.0,0.0,0.0,0.0,-0.004220237955451012,-0.020638739690184593,0.019462410360574722,0.0,0.0,0.0,0.0,0.0,0.0,0.0,0.0,0.0
1606986666274731262,574751,1606983063893648525,imu_link,0.003636324079707265,0.009157790802419186,0.5281411409378052,0.8490995168685913,0.0,0.0,0.0,0.0,0.0,0.0,0.0,0.0,0.0,63.76865768432617,0.6709927916526794,0.9081473350524902,0.0,0.0,0.0,0.0,0.0,0.0,0.0,0.0,0.0,-0.002075295662507415,0.004702521953731775,0.06516231596469879,0.0,0.0,0.0,0.0,0.0,0.0,0.0,0.0,0.0
1606986666274740283,574752,1606983063893734218,imu_link,0.003636324079707265,0.009157790802419186,0.5281411409378052,0.8490995168685913,0.0,0.0,0.0,0.0,0.0,0.0,0.0,0.0,0.0,63.76865768432617,0.6709927916526794,0.9081473350524902,0.0,0.0,0.0,0.0,0.0,0.0,0.0,0.0,0.0,-0.002075295662507415,0.004702521953731775,0.06516231596469879,0.0,0.0,0.0,0.0,0.0,0.0,0.0,0.0,0.0
1606986666274768216,574753,1606983063893813511,imu_link,0.0036355513148009777,0.009158952161669731,0.5281422138214111,0.849098801612854,0.0,0.0,0.0,0.0,0.0,0.0,0.0,0.0,0.0,63.76880645751953,0.6711513996124268,0.9081432819366455,0.0,0.0,0.0,0.0,0.0,0.0,0.0,0.0,0.0,-0.007817598059773445,0.010113551281392574,0.04981428384780884,0.0,0.0,0.0,0.0,0.0,0.0,0.0,0.0,0.0
1606986666277489181,574754,1606983063893909554,imu_link,0.0036355513148009777,0.009158952161669731,0.5281422138214111,0.849098801612854,0.0,0.0,0.0,0.0,0.0,0.0,0.0,0.0,0.0,63.76880645751953,0.6711513996124268,0.9081432819366455,0.0,0.0,0.0,0.0,0.0,0.0,0.0,0.0,0.0,-0.007817598059773445,0.010113551281392574,0.04981428384780884,0.0,0.0,0.0,0.0,0.0,0.0,0.0,0.0,0.0
1606986666277541040,574755,1606983063894018220,imu_link,0.00363450450822711,0.00915668997913599,0.528142511844635,0.8490986824035645,0.0,0.0,0.0,0.0,0.0,0.0,0.0,0.0,0.0,63.76884078979492,0.6709943413734436,0.907904863357544,0.0,0.0,0.0,0.0,0.0,0.0,0.0,0.0,0.0,-0.011826586909592152,-0.0013223513960838318,0.02338743768632412,0.0,0.0,0.0,0.0,0.0,0.0,0.0,0.0,0.0
1606986666277566381,574756,1606983063894103262,imu_link,0.00363450450822711,0.00915668997913599,0.528142511844635,0.8490986824035645,0.0,0.0,0.0,0.0,0.0,0.0,0.0,0.0,0.0,63.76884078979492,0.6709943413734436,0.907904863357544,0.0,0.0,0.0,0.0,0.0,0.0,0.0,0.0,0.0,-0.011826586909592152,-0.0013223513960838318,0.02338743768632412,0.0,0.0,0.0,0.0,0.0,0.0,0.0,0.0,0.0
1606986666277579028,574757,1606983063905907385,imu_link,0.003634766209870577,0.009156545624136925,0.5281431674957275,0.8490982055664062,0.0,0.0,0.0,0.0,0.0,0.0,0.0,0.0,0.0,63.7689323425293,0.670963704586029,0.9079220294952393,0.0,0.0,0.0,0.0,0.0,0.0,0.0,0.0,0.0,-0.002899755723774433,-0.004672441631555557,0.020258089527487755,0.0,0.0,0.0,0.0,0.0,0.0,0.0,0.0,0.0
