%time,field.header.seq,field.header.stamp,field.header.frame_id,field.orientation.x,field.orientation.y,field.orientation.z,field.orientation.w,field.orientation_covariance0,field.orientation_covariance1,field.orientation_covariance2,field.orientation_covariance3,field.orientation_covariance4,field.orientation_covariance5,field.orientation_covariance6,field.orientation_covariance7,field.orientation_covariance8,field.angular_velocity.x,field.angular_velocity.y,field.angular_velocity.z,field.angular_velocity_covariance0,field.angular_velocity_covariance1,field.angular_velocity_covariance2,field.angular_velocity_covariance3,field.angular_velocity_covariance4,field.angular_velocity_covariance5,field.angular_velocity_covariance6,field.angular_velocity_covariance7,field.angular_velocity_covariance8,field.linear_acceleration.x,field.linear_acceleration.y,field.linear_acceleration.z,field.linear_acceleration_covariance0,field.linear_acceleration_covariance1,field.linear_acceleration_covariance2,field.linear_acceleration_covariance3,field.linear_acceleration_covariance4,field.linear_acceleration_covariance5,field.linear_acceleration_covariance6,field.linear_acceleration_covariance7,field.linear_acceleration_covariance8
1606987403596404501,1165961,1606983802920651364,imu_link,0.008045554161071777,0.01192036084830761,0.4904847741127014,0.8713310956954956,0.0,0.0,0.0,0.0,0.0,0.0,0.0,0.0,0.0,58.76105499267578,0.7380312085151672,1.4735994338989258,0.0,0.0,0.0,0.0,0.0,0.0,0.0,0.0,0.0,0.003647838719189167,-0.004390515387058258,0.023921992629766464,0.0,0.0,0.0,0.0,0.0,0.0,0.0,0.0,0.0
1606987403596426690,1165962,1606983802920875714,imu_link,0.008045554161071777,0.01192036084830761,0.4904847741127014,0.8713310956954956,0.0,0.0,0.0,0.0,0.0,0.0,0.0,0.0,0.0,58.76105499267578,0.7380312085151672,1.4735994338989258,0.0,0.0,0.0,0.0,0.0,0.0,0.0,0.0,0.0,0.003647838719189167,-0.004390515387058258,0.023921992629766464,0.0,0.0,0.0,0.0,0.0,0.0,0.0,0.0,0.0
1606987403596492958,1165963,1606983802921056763,imu_link,0.00804597046226263,0.011921380646526814,0.49048498272895813,0.871330976486206,0.0,0.0,0.0,0.0,0.0,0.0,0.0,0.0,0.0,58.761085510253906,0.738109290599823,1.473698377609253,0.0,0.0,0.0,0.0,0.0,0.0,0.0,0.0,0.0,0.020481592044234276,-0.006002664566040039,0.0404558926820755,0.0,0.0,0.0,0.0,0.0,0.0,0.0,0.0,0.0
1606987403596511598,1165964,1606983802921223569,imu_link,0.00804597046226263,0.011921380646526814,0.49048498272895813,0.871330976486206,0.0,0.0,0.0,0.0,0.0,0.0,0.0,0.0,0.0,58.761085510253906,0.738109290599823,1.473698377609253,0.0,0.0,0.0,0.0,0.0,0.0,0.0,0.0,0.0,0.020481592044234276,-0.006002664566040039,0.0404558926820755,0.0,0.0,0.0,0.0,0.0,0.0,0.0,0.0,0.0
1606987403604545179,1165965,1606983802921375029,imu_link,0.00804693903774023,0.011919383890926838,0.4904850423336029,0.871330976486206,0.0,0.0,0.0,0.0,0.0,0.0,0.0,0.0,0.0,58.76108932495117,0.7378553748130798,1.4736827611923218,0.0,0.0,0.0,0.0,0.0,0.0,0.0,0.0,0.0,0.006243132520467043,0.004560351371765137,0.05235867574810982,0.0,0.0,0.0,0.0,0.0,0.0,0.0,0.0,0.0
1606987403604563898,1165966,1606983802921544065,imu_link,0.00804693903774023,0.011919383890926838,0.4904850423336029,0.871330976486206,0.0,0.0,0.0,0.0,0.0,0.0,0.0,0.0,0.0,58.76108932495117,0.7378553748130798,1.4736827611923218,0.0,0.0,0.0,0.0,0.0,0.0,0.0,0.0,0.0,0.006243132520467043,0.004560351371765137,0.05235867574810982,0.0,0.0,0.0,0.0,0.0,0.0,0.0,0.0,0.0
1606987403604574245,1165967,1606983802921686801,imu_link,0.008046827279031277,0.011919507756829262,0.4904865026473999,0.8713301420211792,0.0,0.0,0.0,0.0,0.0,0.0,0.0,0.0,0.0,58.76128387451172,0.7378714680671692,1.473680019378662,0.0,0.0,0.0,0.0,0.0,0.0,0.0,0.0,0.0,-0.018746735528111458,0.007052699103951454,0.04535422474145889,0.0,0.0,0.0,0.0,0.0,0.0,0.0,0.0,0.0
1606987403604588764,1165968,1606983802921826364,imu_link,0.008046827279031277,0.011919507756829262,0.4904865026473999,0.8713301420211792,0.0,0.0,0.0,0.0,0.0,0.0,0.0,0.0,0.0,58.76128387451172,0.7378714680671692,1.473680019378662,0.0,0.0,0.0,0.0,0.0,0.0,0.0,0.0,0.0,-0.018746735528111458,0.007052699103951454,0.04535422474145889,0.0,0.0,0.0,0.0,0.0,0.0,0.0,0.0,0.0
1606987403661317222,1165969,1606983802921963747,imu_link,0.008048486895859241,0.011920368298888206,0.4904875159263611,0.8713295459747314,0.0,0.0,0.0,0.0,0.0,0.0,0.0,0.0,0.0,58.761417388916016,0.7378624677658081,1.4738948345184326,0.0,0.0,0.0,0.0,0.0,0.0,0.0,0.0,0.0,-0.012093907222151756,0.011956377886235714,0.03539810702204704,0.0,0.0,0.0,0.0,0.0,0.0,0.0,0.0,0.0
1606987403661347668,1165970,1606983802922098418,imu_link,0.008048486895859241,0.011920368298888206,0.4904875159263611,0.8713295459747314,0.0,0.0,0.0,0.0,0.0,0.0,0.0,0.0,0.0,58.761417388916016,0.7378624677658081,1.4738948345184326,0.0,0.0,0.0,0.0,0.0,0.0,0.0,0.0,0.0,-0.012093907222151756,0.011956377886235714,0.03539810702204704,0.0,0.0,0.0,0.0,0.0,0.0,0.0,0.0,0.0
1606987403661360814,1165971,1606983802922233511,imu_link,0.008046637289226055,0.01191724743694067,0.490486204624176,0.8713303804397583,0.0,0.0,0.0,0.0,0.0,0.0,0.0,0.0,0.0,58.761234283447266,0.7376571893692017,1.4735333919525146,0.0,0.0,0.0,0.0,0.0,0.0,0.0,0.0,0.0,-0.003038145136088133,0.00553876580670476,0.025995181873440742,0.0,0.0,0.0,0.0,0.0,0.0,0.0,0.0,0.0
1606987403661380494,1165972,1606983802933569040,imu_link,0.008046637289226055,0.01191724743694067,0.490486204624176,0.8713303804397583,0.0,0.0,0.0,0.0,0.0,0.0,0.0,0.0,0.0,58.761234283447266,0.7376571893692017,1.4735333919525146,0.0,0.0,0.0,0.0,0.0,0.0,0.0,0.0,0.0,-0.003038145136088133,0.00553876580670476,0.025995181873440742,0.0,0.0,0.0,0.0,0.0,0.0,0.0,0.0,0.0
1606987403661403068,1165973,1606983802933750821,imu_link,0.00804759468883276,0.011916454881429672,0.49048611521720886,0.8713303804397583,0.0,0.0,0.0,0.0,0.0,0.0,0.0,0.0,0.0,58.761226654052734,0.7375242710113525,1.4735846519470215,0.0,0.0,0.0,0.0,0.0,0.0,0.0,0.0,0.0,-0.006961597595363855,0.00927288830280304,0.02228706143796444,0.0,0.0,0.0,0.0,0.0,0.0,0.0,0.0,0.0
1606987403668598939,1165974,1606983802933912815,imu_link,0.00804759468883276,0.011916454881429672,0.49048611521720886,0.8713303804397583,0.0,0.0,0.0,0.0,0.0,0.0,0.0,0.0,0.0,58.761226654052734,0.7375242710113525,1.4735846519470215,0.0,0.0,0.0,0.0,0.0,0.0,0.0,0.0,0.0,-0.006961597595363855,0.00927288830280304,0.02228706143796444,0.0,0.0,0.0,0.0,0.0,0.0,0.0,0.0,0.0
1606987403668627758,1165975,1606983802934084904,imu_link,0.00804875511676073,0.011914248578250408,0.490485280752182,0.8713309168815613,0.0,0.0,0.0,0.0,0.0,0.0,0.0,0.0,0.0,58.761112213134766,0.7372402548789978,1.4735757112503052,0.0,0.0,0.0,0.0,0.0,0.0,0.0,0.0,0.0,-0.013446634635329247,0.01654367335140705,0.018518012017011642,0.0,0.0,0.0,0.0,0.0,0.0,0.0,0.0,0.0
1606987403668638124,1165976,1606983802934235793,imu_link,0.00804875511676073,0.011914248578250408,0.490485280752182,0.8713309168815613,0.0,0.0,0.0,0.0,0.0,0.0,0.0,0.0,0.0,58.761112213134766,0.7372402548789978,1.4735757112503052,0.0,0.0,0.0,0.0,0.0,0.0,0.0,0.0,0.0,-0.013446634635329247,0.01654367335140705,0.018518012017011642,0.0,0.0,0.0,0.0,0.0,0.0,0.0,0.0,0.0
1606987403668691064,1165977,1606983802934395788,imu_link,0.008047730661928654,0.011913022957742214,0.49048706889152527,0.8713299036026001,0.0,0.0,0.0,0.0,0.0,0.0,0.0,0.0,0.0,58.76134490966797,0.7371723651885986,1.4734059572219849,0.0,0.0,0.0,0.0,0.0,0.0,0.0,0.0,0.0,-0.008416939526796341,0.0076092989183962345,0.015860728919506073,0.0,0.0,0.0,0.0,0.0,0.0,0.0,0.0,0.0
1606987403718191108,1165978,1606983802934542142,imu_link,0.008047730661928654,0.011913022957742214,0.49048706889152527,0.8713299036026001,0.0,0.0,0.0,0.0,0.0,0.0,0.0,0.0,0.0,58.76134490966797,0.7371723651885986,1.4734059572219849,0.0,0.0,0.0,0.0,0.0,0.0,0.0,0.0,0.0,-0.008416939526796341,0.0076092989183962345,0.015860728919506073,0.0,0.0,0.0,0.0,0.0,0.0,0.0,0.0,0.0
1606987403718211643,1165979,1606983802934684025,imu_link,0.008046681061387062,0.011912400834262371,0.4904853105545044,0.8713309168815613,0.0,0.0,0.0,0.0,0.0,0.0,0.0,0.0,0.0,58.761104583740234,0.7371722459793091,1.4732645750045776,0.0,0.0,0.0,0.0,0.0,0.0,0.0,0.0,0.0,-0.006403759587556124,0.006771596614271402,0.008090565912425518,0.0,0.0,0.0,0.0,0.0,0.0,0.0,0.0,0.0
1606987403718236322,1165980,1606983802934824736,imu_link,0.008046681061387062,0.011912400834262371,0.4904853105545044,0.8713309168815613,0.0,0.0,0.0,0.0,0.0,0.0,0.0,0.0,0.0,58.761104583740234,0.7371722459793091,1.4732645750045776,0.0,0.0,0.0,0.0,0.0,0.0,0.0,0.0,0.0,-0.006403759587556124,0.006771596614271402,0.008090565912425518,0.0,0.0,0.0,0.0,0.0,0.0,0.0,0.0,0.0
1606987403718256504,1165981,1606983802934999916,imu_link,0.008045562542974949,0.011912772431969643,0.49048560857772827,0.871330738067627,0.0,0.0,0.0,0.0,0.0,0.0,0.0,0.0,0.0,58.76115417480469,0.7372716665267944,1.4731740951538086,0.0,0.0,0.0,0.0,0.0,0.0,0.0,0.0,0.0,0.0026826472021639347,-0.011207448318600655,0.015918919816613197,0.0,0.0,0.0,0.0,0.0,0.0,0.0,0.0,0.0
1606987403718263272,1165982,1606983802947326308,imu_link,0.008045562542974949,0.011912772431969643,0.49048560857772827,0.871330738067627,0.0,0.0,0.0,0.0,0.0,0.0,0.0,0.0,0.0,58.76115417480469,0.7372716665267944,1.4731740951538086,0.0,0.0,0.0,0.0,0.0,0.0,0.0,0.0,0.0,0.0026826472021639347,-0.011207448318600655,0.015918919816613197,0.0,0.0,0.0,0.0,0.0,0.0,0.0,0.0,0.0
1606987403723596631,1165983,1606983802947517486,imu_link,0.008046655915677547,0.01191440038383007,0.4904848039150238,0.8713311553001404,0.0,0.0,0.0,0.0,0.0,0.0,0.0,0.0,0.0,58.761043548583984,0.7373741269111633,1.4733741283416748,0.0,0.0,0.0,0.0,0.0,0.0,0.0,0.0,0.0,0.009558471851050854,-0.016242612153291702,0.01523921824991703,0.0,0.0,0.0,0.0,0.0,0.0,0.0,0.0,0.0
1606987403723618078,1165984,1606983802947706052,imu_link,0.008046655915677547,0.01191440038383007,0.4904848039150238,0.8713311553001404,0.0,0.0,0.0,0.0,0.0,0.0,0.0,0.0,0.0,58.761043548583984,0.7373741269111633,1.4733741283416748,0.0,0.0,0.0,0.0,0.0,0.0,0.0,0.0,0.0,0.009558471851050854,-0.016242612153291702,0.01523921824991703,0.0,0.0,0.0,0.0,0.0,0.0,0.0,0.0,0.0
1606987403723664012,1165985,1606983802947868258,imu_link,0.008049337193369865,0.011916158720850945,0.49048519134521484,0.8713309168815613,0.0,0.0,0.0,0.0,0.0,0.0,0.0,0.0,0.0,58.7610969543457,0.7373982667922974,1.473741054534912,0.0,0.0,0.0,0.0,0.0,0.0,0.0,0.0,0.0,7.864533108659089e-05,-0.007286385167390108,0.029179763048887253,0.0,0.0,0.0,0.0,0.0,0.0,0.0,0.0,0.0
1606987403723678377,1165986,1606983802948024088,imu_link,0.008049337193369865,0.011916158720850945,0.49048519134521484,0.8713309168815613,0.0,0.0,0.0,0.0,0.0,0.0,0.0,0.0,0.0,58.7610969543457,0.7373982667922974,1.473741054534912,0.0,0.0,0.0,0.0,0.0,0.0,0.0,0.0,0.0,7.864533108659089e-05,-0.007286385167390108,0.029179763048887253,0.0,0.0,0.0,0.0,0.0,0.0,0.0,0.0,0.0
1606987403733014473,1165987,1606983802948178039,imu_link,0.008050905540585518,0.011920214630663395,0.49048513174057007,0.8713308572769165,0.0,0.0,0.0,0.0,0.0,0.0,0.0,0.0,0.0,58.761104583740234,0.7377151250839233,1.474125862121582,0.0,0.0,0.0,0.0,0.0,0.0,0.0,0.0,0.0,0.0017603924497961998,-0.005511921364814043,0.028652070090174675,0.0,0.0,0.0,0.0,0.0,0.0,0.0,0.0,0.0
1606987403733039505,1165988,1606983802948340310,imu_link,0.008050905540585518,0.011920214630663395,0.49048513174057007,0.8713308572769165,0.0,0.0,0.0,0.0,0.0,0.0,0.0,0.0,0.0,58.761104583740234,0.7377151250839233,1.474125862121582,0.0,0.0,0.0,0.0,0.0,0.0,0.0,0.0,0.0,0.0017603924497961998,-0.005511921364814043,0.028652070090174675,0.0,0.0,0.0,0.0,0.0,0.0,0.0,0.0,0.0
1606987403733048985,1165989,1606983802948483261,imu_link,0.00805178377777338,0.011921138502657413,0.4904830753803253,0.8713319897651672,0.0,0.0,0.0,0.0,0.0,0.0,0.0,0.0,0.0,58.76083755493164,0.7377614974975586,1.4742637872695923,0.0,0.0,0.0,0.0,0.0,0.0,0.0,0.0,0.0,-0.003266955493018031,-0.008614699356257915,-0.0065064881928265095,0.0,0.0,0.0,0.0,0.0,0.0,0.0,0.0,0.0
1606987403733065017,1165990,1606983802948622844,imu_link,0.00805178377777338,0.011921138502657413,0.4904830753803253,0.8713319897651672,0.0,0.0,0.0,0.0,0.0,0.0,0.0,0.0,0.0,58.76083755493164,0.7377614974975586,1.4742637872695923,0.0,0.0,0.0,0.0,0.0,0.0,0.0,0.0,0.0,-0.003266955493018031,-0.008614699356257915,-0.0065064881928265095,0.0,0.0,0.0,0.0,0.0,0.0,0.0,0.0,0.0
1606987403733074590,1165991,1606983802948758443,imu_link,0.008055062964558601,0.011921307072043419,0.49048131704330444,0.8713330030441284,0.0,0.0,0.0,0.0,0.0,0.0,0.0,0.0,0.0,58.76060485839844,0.7375969290733337,1.4745991230010986,0.0,0.0,0.0,0.0,0.0,0.0,0.0,0.0,0.0,-0.015129419043660164,-0.02378823049366474,-0.005989056080579758,0.0,0.0,0.0,0.0,0.0,0.0,0.0,0.0,0.0
1606987403739188297,1165992,1606983802948895891,imu_link,0.008055062964558601,0.011921307072043419,0.49048131704330444,0.8713330030441284,0.0,0.0,0.0,0.0,0.0,0.0,0.0,0.0,0.0,58.76060485839844,0.7375969290733337,1.4745991230010986,0.0,0.0,0.0,0.0,0.0,0.0,0.0,0.0,0.0,-0.015129419043660164,-0.02378823049366474,-0.005989056080579758,0.0,0.0,0.0,0.0,0.0,0.0,0.0,0.0,0.0
1606987403739230241,1165993,1606983802960887303,imu_link,0.008053244091570377,0.01192133966833353,0.49048301577568054,0.871332049369812,0.0,0.0,0.0,0.0,0.0,0.0,0.0,0.0,0.0,58.760826110839844,0.737699568271637,1.4744207859039307,0.0,0.0,0.0,0.0,0.0,0.0,0.0,0.0,0.0,-0.001232985989190638,-0.004458461422473192,0.01536207739263773,0.0,0.0,0.0,0.0,0.0,0.0,0.0,0.0,0.0
1606987403739247361,1165994,1606983802961078590,imu_link,0.008053244091570377,0.01192133966833353,0.49048301577568054,0.871332049369812,0.0,0.0,0.0,0.0,0.0,0.0,0.0,0.0,0.0,58.760826110839844,0.737699568271637,1.4744207859039307,0.0,0.0,0.0,0.0,0.0,0.0,0.0,0.0,0.0,-0.001232985989190638,-0.004458461422473192,0.01536207739263773,0.0,0.0,0.0,0.0,0.0,0.0,0.0,0.0,0.0
1606987403739294109,1165995,1606983802961256101,imu_link,0.008054262958467007,0.011920271441340446,0.49048274755477905,0.8713322281837463,0.0,0.0,0.0,0.0,0.0,0.0,0.0,0.0,0.0,58.76079559326172,0.7375361323356628,1.4744621515274048,0.0,0.0,0.0,0.0,0.0,0.0,0.0,0.0,0.0,0.02015611343085766,0.018977994099259377,0.012807469815015793,0.0,0.0,0.0,0.0,0.0,0.0,0.0,0.0,0.0
1606987403777971268,1165996,1606983802961415705,imu_link,0.008054262958467007,0.011920271441340446,0.49048274755477905,0.8713322281837463,0.0,0.0,0.0,0.0,0.0,0.0,0.0,0.0,0.0,58.76079559326172,0.7375361323356628,1.4744621515274048,0.0,0.0,0.0,0.0,0.0,0.0,0.0,0.0,0.0,0.02015611343085766,0.018977994099259377,0.012807469815015793,0.0,0.0,0.0,0.0,0.0,0.0,0.0,0.0,0.0
1606987403778008417,1165997,1606983802961568529,imu_link,0.008053760975599289,0.011921863071620464,0.4904831349849701,0.8713319897651672,0.0,0.0,0.0,0.0,0.0,0.0,0.0,0.0,0.0,58.76084518432617,0.7377225756645203,1.4745019674301147,0.0,0.0,0.0,0.0,0.0,0.0,0.0,0.0,0.0,0.011725247837603092,0.017176739871501923,0.001240170793607831,0.0,0.0,0.0,0.0,0.0,0.0,0.0,0.0,0.0
1606987403778048544,1165998,1606983802961723132,imu_link,0.008053760975599289,0.011921863071620464,0.4904831349849701,0.8713319897651672,0.0,0.0,0.0,0.0,0.0,0.0,0.0,0.0,0.0,58.76084518432617,0.7377225756645203,1.4745019674301147,0.0,0.0,0.0,0.0,0.0,0.0,0.0,0.0,0.0,0.011725247837603092,0.017176739871501923,0.001240170793607831,0.0,0.0,0.0,0.0,0.0,0.0,0.0,0.0,0.0
1606987403778069599,1165999,1606983802961883944,imu_link,0.00805086549371481,0.011920074932277203,0.49048417806625366,0.8713314533233643,0.0,0.0,0.0,0.0,0.0,0.0,0.0,0.0,0.0,58.7609748840332,0.7377051711082458,1.474112868309021,0.0,0.0,0.0,0.0,0.0,0.0,0.0,0.0,0.0,0.015064889565110207,0.014006911776959896,0.019556110724806786,0.0,0.0,0.0,0.0,0.0,0.0,0.0,0.0,0.0
1606987403778090399,1166000,1606983802962025883,imu_link,0.00805086549371481,0.011920074932277203,0.49048417806625366,0.8713314533233643,0.0,0.0,0.0,0.0,0.0,0.0,0.0,0.0,0.0,58.7609748840332,0.7377051711082458,1.474112868309021,0.0,0.0,0.0,0.0,0.0,0.0,0.0,0.0,0.0,0.015064889565110207,0.014006911776959896,0.019556110724806786,0.0,0.0,0.0,0.0,0.0,0.0,0.0,0.0,0.0
1606987403784850304,1166001,1606983802962163140,imu_link,0.008050981909036636,0.011918221600353718,0.49048346281051636,0.8713317513465881,0.0,0.0,0.0,0.0,0.0,0.0,0.0,0.0,0.0,58.760887145996094,0.7375145554542542,1.474020004272461,0.0,0.0,0.0,0.0,0.0,0.0,0.0,0.0,0.0,0.011922407895326614,0.007751130964607,0.03682883828878403,0.0,0.0,0.0,0.0,0.0,0.0,0.0,0.0,0.0
1606987403784894771,1166002,1606983802962298398,imu_link,0.008050981909036636,0.011918221600353718,0.49048346281051636,0.8713317513465881,0.0,0.0,0.0,0.0,0.0,0.0,0.0,0.0,0.0,58.760887145996094,0.7375145554542542,1.474020004272461,0.0,0.0,0.0,0.0,0.0,0.0,0.0,0.0,0.0,0.011922407895326614,0.007751130964607,0.03682883828878403,0.0,0.0,0.0,0.0,0.0,0.0,0.0,0.0,0.0
1606987403784910819,1166003,1606983802962432594,imu_link,0.008050596341490746,0.011919145472347736,0.49048319458961487,0.8713319897651672,0.0,0.0,0.0,0.0,0.0,0.0,0.0,0.0,0.0,58.7608528137207,0.7376291155815125,1.474033236503601,0.0,0.0,0.0,0.0,0.0,0.0,0.0,0.0,0.0,-0.006140205543488264,0.009967084974050522,0.04204323887825012,0.0,0.0,0.0,0.0,0.0,0.0,0.0,0.0,0.0
1606987403784929855,1166004,1606983802974694441,imu_link,0.008050596341490746,0.011919145472347736,0.49048319458961487,0.8713319897651672,0.0,0.0,0.0,0.0,0.0,0.0,0.0,0.0,0.0,58.7608528137207,0.7376291155815125,1.474033236503601,0.0,0.0,0.0,0.0,0.0,0.0,0.0,0.0,0.0,-0.006140205543488264,0.009967084974050522,0.04204323887825012,0.0,0.0,0.0,0.0,0.0,0.0,0.0,0.0,0.0
1606987403791507927,1166005,1606983802974887393,imu_link,0.008050856180489063,0.011918981559574604,0.4904848039150238,0.8713310956954956,0.0,0.0,0.0,0.0,0.0,0.0,0.0,0.0,0.0,58.76105499267578,0.7375953793525696,1.4740513563156128,0.0,0.0,0.0,0.0,0.0,0.0,0.0,0.0,0.0,-0.0048837424255907536,0.004125681240111589,0.04376773163676262,0.0,0.0,0.0,0.0,0.0,0.0,0.0,0.0,0.0
1606987403791591396,1166006,1606983802975102496,imu_link,0.008050856180489063,0.011918981559574604,0.4904848039150238,0.8713310956954956,0.0,0.0,0.0,0.0,0.0,0.0,0.0,0.0,0.0,58.76105499267578,0.7375953793525696,1.4740513563156128,0.0,0.0,0.0,0.0,0.0,0.0,0.0,0.0,0.0,-0.0048837424255907536,0.004125681240111589,0.04376773163676262,0.0,0.0,0.0,0.0,0.0,0.0,0.0,0.0,0.0
1606987403791619196,1166007,1606983802975267137,imu_link,0.008049940690398216,0.011918256990611553,0.4904831647872925,0.871332049369812,0.0,0.0,0.0,0.0,0.0,0.0,0.0,0.0,0.0,58.76083755493164,0.7375773191452026,1.4739176034927368,0.0,0.0,0.0,0.0,0.0,0.0,0.0,0.0,0.0,-0.008623660542070866,-0.0071076261810958385,0.015003006905317307,0.0,0.0,0.0,0.0,0.0,0.0,0.0,0.0,0.0
1606987403791648199,1166008,1606983802975422577,imu_link,0.008049940690398216,0.011918256990611553,0.4904831647872925,0.871332049369812,0.0,0.0,0.0,0.0,0.0,0.0,0.0,0.0,0.0,58.76083755493164,0.7375773191452026,1.4739176034927368,0.0,0.0,0.0,0.0,0.0,0.0,0.0,0.0,0.0,-0.008623660542070866,-0.0071076261810958385,0.015003006905317307,0.0,0.0,0.0,0.0,0.0,0.0,0.0,0.0,0.0
1606987403791675228,1166009,1606983802975603746,imu_link,0.008051478303968906,0.011917208321392536,0.49048447608947754,0.8713312745094299,0.0,0.0,0.0,0.0,0.0,0.0,0.0,0.0,0.0,58.761009216308594,0.7373838424682617,1.474013328552246,0.0,0.0,0.0,0.0,0.0,0.0,0.0,0.0,0.0,0.0033616626169532537,-0.0025206427089869976,-0.027966296300292015,0.0,0.0,0.0,0.0,0.0,0.0,0.0,0.0,0.0
1606987403827012368,1166010,1606983802975747373,imu_link,0.008051478303968906,0.011917208321392536,0.49048447608947754,0.8713312745094299,0.0,0.0,0.0,0.0,0.0,0.0,0.0,0.0,0.0,58.761009216308594,0.7373838424682617,1.474013328552246,0.0,0.0,0.0,0.0,0.0,0.0,0.0,0.0,0.0,0.0033616626169532537,-0.0025206427089869976,-0.027966296300292015,0.0,0.0,0.0,0.0,0.0,0.0,0.0,0.0,0.0
1606987403827047820,1166011,1606983802975888299,imu_link,0.008050516247749329,0.011915566399693489,0.49048393964767456,0.8713315725326538,0.0,0.0,0.0,0.0,0.0,0.0,0.0,0.0,0.0,58.76094055175781,0.7372748851776123,1.4738245010375977,0.0,0.0,0.0,0.0,0.0,0.0,0.0,0.0,0.0,0.012080701068043709,-0.0059334286488592625,-0.022731635719537735,0.0,0.0,0.0,0.0,0.0,0.0,0.0,0.0,0.0
1606987403827077799,1166012,1606983802976027126,imu_link,0.008050516247749329,0.011915566399693489,0.49048393964767456,0.8713315725326538,0.0,0.0,0.0,0.0,0.0,0.0,0.0,0.0,0.0,58.76094055175781,0.7372748851776123,1.4738245010375977,0.0,0.0,0.0,0.0,0.0,0.0,0.0,0.0,0.0,0.012080701068043709,-0.0059334286488592625,-0.022731635719537735,0.0,0.0,0.0,0.0,0.0,0.0,0.0,0.0,0.0
1606987403827097401,1166013,1606983802976164443,imu_link,0.008049887605011463,0.011917851865291595,0.49048206210136414,0.8713326454162598,0.0,0.0,0.0,0.0,0.0,0.0,0.0,0.0,0.0,58.76069641113281,0.7375417351722717,1.4738885164260864,0.0,0.0,0.0,0.0,0.0,0.0,0.0,0.0,0.0,-0.003965232986956835,-0.013365783728659153,-0.003638880793005228,0.0,0.0,0.0,0.0,0.0,0.0,0.0,0.0,0.0
1606987403898544587,1166014,1606983802976300243,imu_link,0.008049887605011463,0.011917851865291595,0.49048206210136414,0.8713326454162598,0.0,0.0,0.0,0.0,0.0,0.0,0.0,0.0,0.0,58.76069641113281,0.7375417351722717,1.4738885164260864,0.0,0.0,0.0,0.0,0.0,0.0,0.0,0.0,0.0,-0.003965232986956835,-0.013365783728659153,-0.003638880793005228,0.0,0.0,0.0,0.0,0.0,0.0,0.0,0.0,0.0
1606987403898575801,1166015,1606983802987603256,imu_link,0.008052382618188858,0.011917710304260254,0.4904806613922119,0.8713333606719971,0.0,0.0,0.0,0.0,0.0,0.0,0.0,0.0,0.0,58.7605094909668,0.7373895645141602,1.4741287231445312,0.0,0.0,0.0,0.0,0.0,0.0,0.0,0.0,0.0,-0.008917568251490593,-0.009173864498734474,0.0035969421733170748,0.0,0.0,0.0,0.0,0.0,0.0,0.0,0.0,0.0
1606987403898666587,1166016,1606983802987796844,imu_link,0.008052382618188858,0.011917710304260254,0.4904806613922119,0.8713333606719971,0.0,0.0,0.0,0.0,0.0,0.0,0.0,0.0,0.0,58.7605094909668,0.7373895645141602,1.4741287231445312,0.0,0.0,0.0,0.0,0.0,0.0,0.0,0.0,0.0,-0.008917568251490593,-0.009173864498734474,0.0035969421733170748,0.0,0.0,0.0,0.0,0.0,0.0,0.0,0.0,0.0
1606987403898676326,1166017,1606983802987975889,imu_link,0.00805197935551405,0.011916722171008587,0.49048149585723877,0.8713329434394836,0.0,0.0,0.0,0.0,0.0,0.0,0.0,0.0,0.0,58.7606201171875,0.7373121976852417,1.4740335941314697,0.0,0.0,0.0,0.0,0.0,0.0,0.0,0.0,0.0,-0.0037100629415363073,-0.006171745248138905,0.03548507019877434,0.0,0.0,0.0,0.0,0.0,0.0,0.0,0.0,0.0
1606987403898684703,1166018,1606983802988134997,imu_link,0.00805197935551405,0.011916722171008587,0.49048149585723877,0.8713329434394836,0.0,0.0,0.0,0.0,0.0,0.0,0.0,0.0,0.0,58.7606201171875,0.7373121976852417,1.4740335941314697,0.0,0.0,0.0,0.0,0.0,0.0,0.0,0.0,0.0,-0.0037100629415363073,-0.006171745248138905,0.03548507019877434,0.0,0.0,0.0,0.0,0.0,0.0,0.0,0.0,0.0
1606987403909271944,1166019,1606983802988293373,imu_link,0.008054529316723347,0.011915632523596287,0.4904840886592865,0.871331512928009,0.0,0.0,0.0,0.0,0.0,0.0,0.0,0.0,0.0,58.760955810546875,0.7370557188987732,1.4742289781570435,0.0,0.0,0.0,0.0,0.0,0.0,0.0,0.0,0.0,-0.0024015624076128006,-0.006771581247448921,0.046715300530195236,0.0,0.0,0.0,0.0,0.0,0.0,0.0,0.0,0.0
1606987403909294759,1166020,1606983802988476227,imu_link,0.008054529316723347,0.011915632523596287,0.4904840886592865,0.871331512928009,0.0,0.0,0.0,0.0,0.0,0.0,0.0,0.0,0.0,58.760955810546875,0.7370557188987732,1.4742289781570435,0.0,0.0,0.0,0.0,0.0,0.0,0.0,0.0,0.0,-0.0024015624076128006,-0.006771581247448921,0.046715300530195236,0.0,0.0,0.0,0.0,0.0,0.0,0.0,0.0,0.0
1606987403909302754,1166021,1606983802988625432,imu_link,0.008054479956626892,0.011913221329450607,0.49048319458961487,0.871332049369812,0.0,0.0,0.0,0.0,0.0,0.0,0.0,0.0,0.0,58.76083755493164,0.736819326877594,1.4740878343582153,0.0,0.0,0.0,0.0,0.0,0.0,0.0,0.0,0.0,-0.0042248936370015144,-0.007955417037010193,0.040457870811223984,0.0,0.0,0.0,0.0,0.0,0.0,0.0,0.0,0.0
1606987403909342461,1166022,1606983802988769866,imu_link,0.008054479956626892,0.011913221329450607,0.49048319458961487,0.871332049369812,0.0,0.0,0.0,0.0,0.0,0.0,0.0,0.0,0.0,58.76083755493164,0.736819326877594,1.4740878343582153,0.0,0.0,0.0,0.0,0.0,0.0,0.0,0.0,0.0,-0.0042248936370015144,-0.007955417037010193,0.040457870811223984,0.0,0.0,0.0,0.0,0.0,0.0,0.0,0.0,0.0
1606987403916832936,1166023,1606983802988909128,imu_link,0.008056138642132282,0.011913436464965343,0.4904841184616089,0.8713313937187195,0.0,0.0,0.0,0.0,0.0,0.0,0.0,0.0,0.0,58.76095962524414,0.7367457747459412,1.474266529083252,0.0,0.0,0.0,0.0,0.0,0.0,0.0,0.0,0.0,-0.0043016099371016026,-0.0016259535914286971,0.03454670310020447,0.0,0.0,0.0,0.0,0.0,0.0,0.0,0.0,0.0
1606987403916882258,1166024,1606983802989044953,imu_link,0.008056138642132282,0.011913436464965343,0.4904841184616089,0.8713313937187195,0.0,0.0,0.0,0.0,0.0,0.0,0.0,0.0,0.0,58.76095962524414,0.7367457747459412,1.474266529083252,0.0,0.0,0.0,0.0,0.0,0.0,0.0,0.0,0.0,-0.0043016099371016026,-0.0016259535914286971,0.03454670310020447,0.0,0.0,0.0,0.0,0.0,0.0,0.0,0.0,0.0
1606987403916912304,1166025,1606983803000915147,imu_link,0.00805523619055748,0.011915039271116257,0.4904833436012268,0.8713318705558777,0.0,0.0,0.0,0.0,0.0,0.0,0.0,0.0,0.0,58.7608642578125,0.7369580268859863,1.474265694618225,0.0,0.0,0.0,0.0,0.0,0.0,0.0,0.0,0.0,0.007397927809506655,-0.0030395169742405415,0.032351303845644,0.0,0.0,0.0,0.0,0.0,0.0,0.0,0.0,0.0
1606987403916924801,1166026,1606983803001068542,imu_link,0.00805523619055748,0.011915039271116257,0.4904833436012268,0.8713318705558777,0.0,0.0,0.0,0.0,0.0,0.0,0.0,0.0,0.0,58.7608642578125,0.7369580268859863,1.474265694618225,0.0,0.0,0.0,0.0,0.0,0.0,0.0,0.0,0.0,0.007397927809506655,-0.0030395169742405415,0.032351303845644,0.0,0.0,0.0,0.0,0.0,0.0,0.0,0.0,0.0
1606987403916946237,1166027,1606983803001205315,imu_link,0.008054619655013084,0.01191453356295824,0.4904839098453522,0.8713315725326538,0.0,0.0,0.0,0.0,0.0,0.0,0.0,0.0,0.0,58.76093292236328,0.7369412183761597,1.474176049232483,0.0,0.0,0.0,0.0,0.0,0.0,0.0,0.0,0.0,-0.005344457924365997,-0.00596978235989809,0.01851843111217022,0.0,0.0,0.0,0.0,0.0,0.0,0.0,0.0,0.0
1606987403923806599,1166028,1606983803001320742,imu_link,0.008054619655013084,0.01191453356295824,0.4904839098453522,0.8713315725326538,0.0,0.0,0.0,0.0,0.0,0.0,0.0,0.0,0.0,58.76093292236328,0.7369412183761597,1.474176049232483,0.0,0.0,0.0,0.0,0.0,0.0,0.0,0.0,0.0,-0.005344457924365997,-0.00596978235989809,0.01851843111217022,0.0,0.0,0.0,0.0,0.0,0.0,0.0,0.0,0.0
1606987403923831437,1166029,1606983803001439368,imu_link,0.00805436447262764,0.011914689093828201,0.49048537015914917,0.871330738067627,0.0,0.0,0.0,0.0,0.0,0.0,0.0,0.0,0.0,58.76112365722656,0.7369686365127563,1.4741605520248413,0.0,0.0,0.0,0.0,0.0,0.0,0.0,0.0,0.0,-0.014858498238027096,0.002694210037589073,0.00976292323321104,0.0,0.0,0.0,0.0,0.0,0.0,0.0,0.0,0.0
1606987403923890757,1166030,1606983803001555277,imu_link,0.00805436447262764,0.011914689093828201,0.49048537015914917,0.871330738067627,0.0,0.0,0.0,0.0,0.0,0.0,0.0,0.0,0.0,58.76112365722656,0.7369686365127563,1.4741605520248413,0.0,0.0,0.0,0.0,0.0,0.0,0.0,0.0,0.0,-0.014858498238027096,0.002694210037589073,0.00976292323321104,0.0,0.0,0.0,0.0,0.0,0.0,0.0,0.0,0.0
1606987403923899798,1166031,1606983803001680883,imu_link,0.00805425550788641,0.011912774294614792,0.49048712849617004,0.8713297247886658,0.0,0.0,0.0,0.0,0.0,0.0,0.0,0.0,0.0,58.761356353759766,0.7367804646492004,1.474043607711792,0.0,0.0,0.0,0.0,0.0,0.0,0.0,0.0,0.0,-0.017457803711295128,0.011025860905647278,0.01500962395220995,0.0,0.0,0.0,0.0,0.0,0.0,0.0,0.0,0.0
1606987403969557331,1166032,1606983803001795833,imu_link,0.00805425550788641,0.011912774294614792,0.49048712849617004,0.8713297247886658,0.0,0.0,0.0,0.0,0.0,0.0,0.0,0.0,0.0,58.761356353759766,0.7367804646492004,1.474043607711792,0.0,0.0,0.0,0.0,0.0,0.0,0.0,0.0,0.0,-0.017457803711295128,0.011025860905647278,0.01500962395220995,0.0,0.0,0.0,0.0,0.0,0.0,0.0,0.0,0.0
1606987403969589982,1166033,1606983803001906634,imu_link,0.008054270409047604,0.011912594549357891,0.490487664937973,0.8713295459747314,0.0,0.0,0.0,0.0,0.0,0.0,0.0,0.0,0.0,58.76141357421875,0.7367609739303589,1.4740352630615234,0.0,0.0,0.0,0.0,0.0,0.0,0.0,0.0,0.0,-0.0144391730427742,0.012152821756899357,-0.0098368925973773,0.0,0.0,0.0,0.0,0.0,0.0,0.0,0.0,0.0
1606987403969606011,1166034,1606983803002016841,imu_link,0.008054270409047604,0.011912594549357891,0.490487664937973,0.8713295459747314,0.0,0.0,0.0,0.0,0.0,0.0,0.0,0.0,0.0,58.76141357421875,0.7367609739303589,1.4740352630615234,0.0,0.0,0.0,0.0,0.0,0.0,0.0,0.0,0.0,-0.0144391730427742,0.012152821756899357,-0.0098368925973773,0.0,0.0,0.0,0.0,0.0,0.0,0.0,0.0,0.0
1606987403969613584,1166035,1606983803002125817,imu_link,0.008052953518927097,0.011909573338925838,0.4904865622520447,0.871330201625824,0.0,0.0,0.0,0.0,0.0,0.0,0.0,0.0,0.0,58.761268615722656,0.7365351319313049,1.4737330675125122,0.0,0.0,0.0,0.0,0.0,0.0,0.0,0.0,0.0,0.0010046444367617369,0.002133379690349102,0.012043222784996033,0.0,0.0,0.0,0.0,0.0,0.0,0.0,0.0,0.0
1606987403975885265,1166036,1606983803014787557,imu_link,0.008052953518927097,0.011909573338925838,0.4904865622520447,0.871330201625824,0.0,0.0,0.0,0.0,0.0,0.0,0.0,0.0,0.0,58.761268615722656,0.7365351319313049,1.4737330675125122,0.0,0.0,0.0,0.0,0.0,0.0,0.0,0.0,0.0,0.0010046444367617369,0.002133379690349102,0.012043222784996033,0.0,0.0,0.0,0.0,0.0,0.0,0.0,0.0,0.0
1606987403975910344,1166037,1606983803014884284,imu_link,0.008054077625274658,0.011908008717000484,0.4904859662055969,0.8713305592536926,0.0,0.0,0.0,0.0,0.0,0.0,0.0,0.0,0.0,58.76118087768555,0.7363168001174927,1.4737566709518433,0.0,0.0,0.0,0.0,0.0,0.0,0.0,0.0,0.0,0.009952102787792683,-0.011375535279512405,0.03729250654578209,0.0,0.0,0.0,0.0,0.0,0.0,0.0,0.0,0.0
1606987403975939899,1166038,1606983803014998166,imu_link,0.008054077625274658,0.011908008717000484,0.4904859662055969,0.8713305592536926,0.0,0.0,0.0,0.0,0.0,0.0,0.0,0.0,0.0,58.76118087768555,0.7363168001174927,1.4737566709518433,0.0,0.0,0.0,0.0,0.0,0.0,0.0,0.0,0.0,0.009952102787792683,-0.011375535279512405,0.03729250654578209,0.0,0.0,0.0,0.0,0.0,0.0,0.0,0.0,0.0
1606987403975950344,1166039,1606983803015070148,imu_link,0.008054892532527447,0.011911388486623764,0.4904865622520447,0.871330201625824,0.0,0.0,0.0,0.0,0.0,0.0,0.0,0.0,0.0,58.76127624511719,0.7366074919700623,1.4740287065505981,0.0,0.0,0.0,0.0,0.0,0.0,0.0,0.0,0.0,0.00991686712950468,-0.0055779446847736835,0.012468848377466202,0.0,0.0,0.0,0.0,0.0,0.0,0.0,0.0,0.0
1606987403975964967,1166040,1606983803015137293,imu_link,0.008054892532527447,0.011911388486623764,0.4904865622520447,0.871330201625824,0.0,0.0,0.0,0.0,0.0,0.0,0.0,0.0,0.0,58.76127624511719,0.7366074919700623,1.4740287065505981,0.0,0.0,0.0,0.0,0.0,0.0,0.0,0.0,0.0,0.00991686712950468,-0.0055779446847736835,0.012468848377466202,0.0,0.0,0.0,0.0,0.0,0.0,0.0,0.0,0.0
1606987403984857306,1166041,1606983803015205676,imu_link,0.008055111393332481,0.011910755187273026,0.4904854893684387,0.8713307976722717,0.0,0.0,0.0,0.0,0.0,0.0,0.0,0.0,0.0,58.76112365722656,0.7365337014198303,1.4740139245986938,0.0,0.0,0.0,0.0,0.0,0.0,0.0,0.0,0.0,0.015855839475989342,0.01028531789779663,0.007899993099272251,0.0,0.0,0.0,0.0,0.0,0.0,0.0,0.0,0.0
1606987403984915102,1166042,1606983803015281221,imu_link,0.008055111393332481,0.011910755187273026,0.4904854893684387,0.8713307976722717,0.0,0.0,0.0,0.0,0.0,0.0,0.0,0.0,0.0,58.76112365722656,0.7365337014198303,1.4740139245986938,0.0,0.0,0.0,0.0,0.0,0.0,0.0,0.0,0.0,0.015855839475989342,0.01028531789779663,0.007899993099272251,0.0,0.0,0.0,0.0,0.0,0.0,0.0,0.0,0.0
1606987403984924849,1166043,1606983803015348157,imu_link,0.008052575401961803,0.011910377070307732,0.4904857873916626,0.8713305592536926,0.0,0.0,0.0,0.0,0.0,0.0,0.0,0.0,0.0,58.761173248291016,0.7366378903388977,1.4737398624420166,0.0,0.0,0.0,0.0,0.0,0.0,0.0,0.0,0.0,0.03032298944890499,0.012706119567155838,0.029932141304016113,0.0,0.0,0.0,0.0,0.0,0.0,0.0,0.0,0.0
1606987403984933983,1166044,1606983803015413268,imu_link,0.008052575401961803,0.011910377070307732,0.4904857873916626,0.8713305592536926,0.0,0.0,0.0,0.0,0.0,0.0,0.0,0.0,0.0,58.761173248291016,0.7366378903388977,1.4737398624420166,0.0,0.0,0.0,0.0,0.0,0.0,0.0,0.0,0.0,0.03032298944890499,0.012706119567155838,0.029932141304016113,0.0,0.0,0.0,0.0,0.0,0.0,0.0,0.0,0.0
1606987403990068230,1166045,1606983803015476910,imu_link,0.008051546290516853,0.01191017683595419,0.4904872477054596,0.8713297843933105,0.0,0.0,0.0,0.0,0.0,0.0,0.0,0.0,0.0,58.7613639831543,0.7366733551025391,1.4736270904541016,0.0,0.0,0.0,0.0,0.0,0.0,0.0,0.0,0.0,0.011782762594521046,0.0012400125851854682,0.04335518553853035,0.0,0.0,0.0,0.0,0.0,0.0,0.0,0.0,0.0
1606987403990129779,1166046,1606983803015540174,imu_link,0.008051546290516853,0.01191017683595419,0.4904872477054596,0.8713297843933105,0.0,0.0,0.0,0.0,0.0,0.0,0.0,0.0,0.0,58.7613639831543,0.7366733551025391,1.4736270904541016,0.0,0.0,0.0,0.0,0.0,0.0,0.0,0.0,0.0,0.011782762594521046,0.0012400125851854682,0.04335518553853035,0.0,0.0,0.0,0.0,0.0,0.0,0.0,0.0,0.0
1606987403990156386,1166047,1606983803028265923,imu_link,0.00805007852613926,0.011911638081073761,0.4904881715774536,0.8713293075561523,0.0,0.0,0.0,0.0,0.0,0.0,0.0,0.0,0.0,58.761478424072266,0.7369003295898438,1.4735634326934814,0.0,0.0,0.0,0.0,0.0,0.0,0.0,0.0,0.0,0.006439146585762501,-0.004861624911427498,0.02837488241493702,0.0,0.0,0.0,0.0,0.0,0.0,0.0,0.0,0.0
1606987403990173533,1166048,1606983803028361081,imu_link,0.00805007852613926,0.011911638081073761,0.4904881715774536,0.8713293075561523,0.0,0.0,0.0,0.0,0.0,0.0,0.0,0.0,0.0,58.761478424072266,0.7369003295898438,1.4735634326934814,0.0,0.0,0.0,0.0,0.0,0.0,0.0,0.0,0.0,0.006439146585762501,-0.004861624911427498,0.02837488241493702,0.0,0.0,0.0,0.0,0.0,0.0,0.0,0.0,0.0
1606987403990190817,1166049,1606983803028437353,imu_link,0.008052135817706585,0.011912109330296516,0.4904870390892029,0.8713298439979553,0.0,0.0,0.0,0.0,0.0,0.0,0.0,0.0,0.0,58.76133728027344,0.7368335723876953,1.4737943410873413,0.0,0.0,0.0,0.0,0.0,0.0,0.0,0.0,0.0,0.007206280715763569,0.003359381575137377,0.026137270033359528,0.0,0.0,0.0,0.0,0.0,0.0,0.0,0.0,0.0
1606987404089997486,1166050,1606983803028516779,imu_link,0.008052135817706585,0.011912109330296516,0.4904870390892029,0.8713298439979553,0.0,0.0,0.0,0.0,0.0,0.0,0.0,0.0,0.0,58.76133728027344,0.7368335723876953,1.4737943410873413,0.0,0.0,0.0,0.0,0.0,0.0,0.0,0.0,0.0,0.007206280715763569,0.003359381575137377,0.026137270033359528,0.0,0.0,0.0,0.0,0.0,0.0,0.0,0.0,0.0
1606987404090017887,1166051,1606983803028590782,imu_link,0.008051271550357342,0.011912335641682148,0.4904867112636566,0.8713300824165344,0.0,0.0,0.0,0.0,0.0,0.0,0.0,0.0,0.0,58.761295318603516,0.7369052767753601,1.4737204313278198,0.0,0.0,0.0,0.0,0.0,0.0,0.0,0.0,0.0,-0.005753404926508665,0.012528378516435623,0.029249440878629684,0.0,0.0,0.0,0.0,0.0,0.0,0.0,0.0,0.0
1606987404090022559,1166052,1606983803028666662,imu_link,0.008051271550357342,0.011912335641682148,0.4904867112636566,0.8713300824165344,0.0,0.0,0.0,0.0,0.0,0.0,0.0,0.0,0.0,58.761295318603516,0.7369052767753601,1.4737204313278198,0.0,0.0,0.0,0.0,0.0,0.0,0.0,0.0,0.0,-0.005753404926508665,0.012528378516435623,0.029249440878629684,0.0,0.0,0.0,0.0,0.0,0.0,0.0,0.0,0.0
1606987404090026647,1166053,1606983803028753082,imu_link,0.008048063144087791,0.011912752874195576,0.49048781394958496,0.8713294863700867,0.0,0.0,0.0,0.0,0.0,0.0,0.0,0.0,0.0,58.76144027709961,0.7371254563331604,1.4734244346618652,0.0,0.0,0.0,0.0,0.0,0.0,0.0,0.0,0.0,-0.005691227037459612,0.007608841173350811,0.03277235105633736,0.0,0.0,0.0,0.0,0.0,0.0,0.0,0.0,0.0
1606987404114382194,1166054,1606983803028832060,imu_link,0.008048063144087791,0.011912752874195576,0.49048781394958496,0.8713294863700867,0.0,0.0,0.0,0.0,0.0,0.0,0.0,0.0,0.0,58.76144027709961,0.7371254563331604,1.4734244346618652,0.0,0.0,0.0,0.0,0.0,0.0,0.0,0.0,0.0,-0.005691227037459612,0.007608841173350811,0.03277235105633736,0.0,0.0,0.0,0.0,0.0,0.0,0.0,0.0,0.0
1606987404114410084,1166055,1606983803028905985,imu_link,0.008048616349697113,0.011912799440324306,0.49048712849617004,0.8713298439979553,0.0,0.0,0.0,0.0,0.0,0.0,0.0,0.0,0.0,58.761348724365234,0.7371001243591309,1.4734817743301392,0.0,0.0,0.0,0.0,0.0,0.0,0.0,0.0,0.0,0.0006663432577624917,-0.005895582959055901,0.023214343935251236,0.0,0.0,0.0,0.0,0.0,0.0,0.0,0.0,0.0
1606987404114422332,1166056,1606983803028978492,imu_link,0.008048616349697113,0.011912799440324306,0.49048712849617004,0.8713298439979553,0.0,0.0,0.0,0.0,0.0,0.0,0.0,0.0,0.0,58.761348724365234,0.7371001243591309,1.4734817743301392,0.0,0.0,0.0,0.0,0.0,0.0,0.0,0.0,0.0,0.0006663432577624917,-0.005895582959055901,0.023214343935251236,0.0,0.0,0.0,0.0,0.0,0.0,0.0,0.0,0.0
1606987404114436448,1166057,1606983803029050416,imu_link,0.00804845616221428,0.011914427392184734,0.4904865622520447,0.871330201625824,0.0,0.0,0.0,0.0,0.0,0.0,0.0,0.0,0.0,58.76128387451172,0.7372727394104004,1.4735568761825562,0.0,0.0,0.0,0.0,0.0,0.0,0.0,0.0,0.0,0.00636609923094511,0.00019089184934273362,0.002629173221066594,0.0,0.0,0.0,0.0,0.0,0.0,0.0,0.0,0.0
1606987404114458647,1166058,1606983803042184469,imu_link,0.00804845616221428,0.011914427392184734,0.4904865622520447,0.871330201625824,0.0,0.0,0.0,0.0,0.0,0.0,0.0,0.0,0.0,58.76128387451172,0.7372727394104004,1.4735568761825562,0.0,0.0,0.0,0.0,0.0,0.0,0.0,0.0,0.0,0.00636609923094511,0.00019089184934273362,0.002629173221066594,0.0,0.0,0.0,0.0,0.0,0.0,0.0,0.0,0.0
1606987404121317496,1166059,1606983803042316217,imu_link,0.00804672297090292,0.01191470492631197,0.4904860854148865,0.8713304400444031,0.0,0.0,0.0,0.0,0.0,0.0,0.0,0.0,0.0,58.76121520996094,0.737398624420166,1.473399043083191,0.0,0.0,0.0,0.0,0.0,0.0,0.0,0.0,0.0,0.01641392894089222,0.007688918616622686,0.00697635393589735,0.0,0.0,0.0,0.0,0.0,0.0,0.0,0.0,0.0
1606987404121338519,1166060,1606983803042437017,imu_link,0.00804672297090292,0.01191470492631197,0.4904860854148865,0.8713304400444031,0.0,0.0,0.0,0.0,0.0,0.0,0.0,0.0,0.0,58.76121520996094,0.737398624420166,1.473399043083191,0.0,0.0,0.0,0.0,0.0,0.0,0.0,0.0,0.0,0.01641392894089222,0.007688918616622686,0.00697635393589735,0.0,0.0,0.0,0.0,0.0,0.0,0.0,0.0,0.0
1606987404121351507,1166061,1606983803042542975,imu_link,0.008048134855926037,0.011914505623281002,0.4904864430427551,0.871330201625824,0.0,0.0,0.0,0.0,0.0,0.0,0.0,0.0,0.0,58.761268615722656,0.7372986674308777,1.4735291004180908,0.0,0.0,0.0,0.0,0.0,0.0,0.0,0.0,0.0,0.014457511715590954,-0.003767174668610096,0.004416046664118767,0.0,0.0,0.0,0.0,0.0,0.0,0.0,0.0,0.0
1606987404121393797,1166062,1606983803042648085,imu_link,0.008048134855926037,0.011914505623281002,0.4904864430427551,0.871330201625824,0.0,0.0,0.0,0.0,0.0,0.0,0.0,0.0,0.0,58.761268615722656,0.7372986674308777,1.4735291004180908,0.0,0.0,0.0,0.0,0.0,0.0,0.0,0.0,0.0,0.014457511715590954,-0.003767174668610096,0.004416046664118767,0.0,0.0,0.0,0.0,0.0,0.0,0.0,0.0,0.0
1606987404128813375,1166063,1606983803042765306,imu_link,0.008047832176089287,0.01191751193255186,0.4904852509498596,0.8713308572769165,0.0,0.0,0.0,0.0,0.0,0.0,0.0,0.0,0.0,58.761112213134766,0.7376178503036499,1.473667025566101,0.0,0.0,0.0,0.0,0.0,0.0,0.0,0.0,0.0,0.002457220805808902,-0.006049519870430231,0.002042940119281411,0.0,0.0,0.0,0.0,0.0,0.0,0.0,0.0,0.0
1606987404128844765,1166064,1606983803042869494,imu_link,0.008047832176089287,0.01191751193255186,0.4904852509498596,0.8713308572769165,0.0,0.0,0.0,0.0,0.0,0.0,0.0,0.0,0.0,58.761112213134766,0.7376178503036499,1.473667025566101,0.0,0.0,0.0,0.0,0.0,0.0,0.0,0.0,0.0,0.002457220805808902,-0.006049519870430231,0.002042940119281411,0.0,0.0,0.0,0.0,0.0,0.0,0.0,0.0,0.0
1606987404128897191,1166065,1606983803043011426,imu_link,0.00804742332547903,0.011917312629520893,0.4904860556125641,0.8713304400444031,0.0,0.0,0.0,0.0,0.0,0.0,0.0,0.0,0.0,58.7612190246582,0.7376196384429932,1.4736156463623047,0.0,0.0,0.0,0.0,0.0,0.0,0.0,0.0,0.0,0.008143953047692776,0.004887656774371862,0.01817992329597473,0.0,0.0,0.0,0.0,0.0,0.0,0.0,0.0,0.0
1606987404128910593,1166066,1606983803043113098,imu_link,0.00804742332547903,0.011917312629520893,0.4904860556125641,0.8713304400444031,0.0,0.0,0.0,0.0,0.0,0.0,0.0,0.0,0.0,58.7612190246582,0.7376196384429932,1.4736156463623047,0.0,0.0,0.0,0.0,0.0,0.0,0.0,0.0,0.0,0.008143953047692776,0.004887656774371862,0.01817992329597473,0.0,0.0,0.0,0.0,0.0,0.0,0.0,0.0,0.0
1606987404128928755,1166067,1606983803043205418,imu_link,0.00804679561406374,0.01191967073827982,0.4904835522174835,0.8713318109512329,0.0,0.0,0.0,0.0,0.0,0.0,0.0,0.0,0.0,58.76089096069336,0.737894594669342,1.473683476448059,0.0,0.0,0.0,0.0,0.0,0.0,0.0,0.0,0.0,0.01856689341366291,-0.0010959540959447622,0.023715559393167496,0.0,0.0,0.0,0.0,0.0,0.0,0.0,0.0,0.0
1606987404169805558,1166068,1606983803043296783,imu_link,0.00804679561406374,0.01191967073827982,0.4904835522174835,0.8713318109512329,0.0,0.0,0.0,0.0,0.0,0.0,0.0,0.0,0.0,58.76089096069336,0.737894594669342,1.473683476448059,0.0,0.0,0.0,0.0,0.0,0.0,0.0,0.0,0.0,0.01856689341366291,-0.0010959540959447622,0.023715559393167496,0.0,0.0,0.0,0.0,0.0,0.0,0.0,0.0,0.0
1606987404169826629,1166069,1606983803055091062,imu_link,0.008045908994972706,0.011917822994291782,0.490482360124588,0.8713325262069702,0.0,0.0,0.0,0.0,0.0,0.0,0.0,0.0,0.0,58.7607307434082,0.737761914730072,1.4734899997711182,0.0,0.0,0.0,0.0,0.0,0.0,0.0,0.0,0.0,0.010080231353640556,-0.006878323387354612,0.019492149353027344,0.0,0.0,0.0,0.0,0.0,0.0,0.0,0.0,0.0
1606987404169859959,1166070,1606983803055222907,imu_link,0.008045908994972706,0.011917822994291782,0.490482360124588,0.8713325262069702,0.0,0.0,0.0,0.0,0.0,0.0,0.0,0.0,0.0,58.7607307434082,0.737761914730072,1.4734899997711182,0.0,0.0,0.0,0.0,0.0,0.0,0.0,0.0,0.0,0.010080231353640556,-0.006878323387354612,0.019492149353027344,0.0,0.0,0.0,0.0,0.0,0.0,0.0,0.0,0.0
1606987404169868735,1166071,1606983803055334806,imu_link,0.008048055693507195,0.011920114047825336,0.4904821515083313,0.871332585811615,0.0,0.0,0.0,0.0,0.0,0.0,0.0,0.0,0.0,58.76070785522461,0.7378703951835632,1.4738329648971558,0.0,0.0,0.0,0.0,0.0,0.0,0.0,0.0,0.0,-0.009685995988547802,-0.01604866236448288,0.007992235943675041,0.0,0.0,0.0,0.0,0.0,0.0,0.0,0.0,0.0
1606987404175300547,1166072,1606983803055444821,imu_link,0.008048055693507195,0.011920114047825336,0.4904821515083313,0.871332585811615,0.0,0.0,0.0,0.0,0.0,0.0,0.0,0.0,0.0,58.76070785522461,0.7378703951835632,1.4738329648971558,0.0,0.0,0.0,0.0,0.0,0.0,0.0,0.0,0.0,-0.009685995988547802,-0.01604866236448288,0.007992235943675041,0.0,0.0,0.0,0.0,0.0,0.0,0.0,0.0,0.0
1606987404175336923,1166073,1606983803055551721,imu_link,0.008049528114497662,0.011921880766749382,0.49048325419425964,0.8713319301605225,0.0,0.0,0.0,0.0,0.0,0.0,0.0,0.0,0.0,58.760860443115234,0.7379620671272278,1.4740803241729736,0.0,0.0,0.0,0.0,0.0,0.0,0.0,0.0,0.0,0.0013795881532132626,-0.021186504513025284,0.01644822582602501,0.0,0.0,0.0,0.0,0.0,0.0,0.0,0.0,0.0
1606987404175351148,1166074,1606983803055671976,imu_link,0.008049528114497662,0.011921880766749382,0.49048325419425964,0.8713319301605225,0.0,0.0,0.0,0.0,0.0,0.0,0.0,0.0,0.0,58.760860443115234,0.7379620671272278,1.4740803241729736,0.0,0.0,0.0,0.0,0.0,0.0,0.0,0.0,0.0,0.0013795881532132626,-0.021186504513025284,0.01644822582602501,0.0,0.0,0.0,0.0,0.0,0.0,0.0,0.0,0.0
1606987404175360310,1166075,1606983803055783224,imu_link,0.008051536977291107,0.011923771351575851,0.49048373103141785,0.8713316321372986,0.0,0.0,0.0,0.0,0.0,0.0,0.0,0.0,0.0,58.76092529296875,0.7380370497703552,1.474387764930725,0.0,0.0,0.0,0.0,0.0,0.0,0.0,0.0,0.0,-0.0005159318679943681,-0.00321443029679358,0.05057116225361824,0.0,0.0,0.0,0.0,0.0,0.0,0.0,0.0,0.0
1606987404175376559,1166076,1606983803055889293,imu_link,0.008051536977291107,0.011923771351575851,0.49048373103141785,0.8713316321372986,0.0,0.0,0.0,0.0,0.0,0.0,0.0,0.0,0.0,58.76092529296875,0.7380370497703552,1.474387764930725,0.0,0.0,0.0,0.0,0.0,0.0,0.0,0.0,0.0,-0.0005159318679943681,-0.00321443029679358,0.05057116225361824,0.0,0.0,0.0,0.0,0.0,0.0,0.0,0.0,0.0
1606987404181752803,1166077,1606983803055985913,imu_link,0.00805356353521347,0.011923348531126976,0.49048346281051636,0.8713317513465881,0.0,0.0,0.0,0.0,0.0,0.0,0.0,0.0,0.0,58.76089096069336,0.7378814220428467,1.474566102027893,0.0,0.0,0.0,0.0,0.0,0.0,0.0,0.0,0.0,-0.009873360395431519,0.008285749703645706,0.03625856712460518,0.0,0.0,0.0,0.0,0.0,0.0,0.0,0.0,0.0
1606987404181771319,1166078,1606983803056077852,imu_link,0.00805356353521347,0.011923348531126976,0.49048346281051636,0.8713317513465881,0.0,0.0,0.0,0.0,0.0,0.0,0.0,0.0,0.0,58.76089096069336,0.7378814220428467,1.474566102027893,0.0,0.0,0.0,0.0,0.0,0.0,0.0,0.0,0.0,-0.009873360395431519,0.008285749703645706,0.03625856712460518,0.0,0.0,0.0,0.0,0.0,0.0,0.0,0.0,0.0
1606987404181780540,1166079,1606983803068504193,imu_link,0.008054354228079319,0.011922893114387989,0.4904836118221283,0.8713316321372986,0.0,0.0,0.0,0.0,0.0,0.0,0.0,0.0,0.0,58.76091384887695,0.7377912402153015,1.4746195077896118,0.0,0.0,0.0,0.0,0.0,0.0,0.0,0.0,0.0,0.0035536764189600945,0.0013023520587012172,0.014896688982844353,0.0,0.0,0.0,0.0,0.0,0.0,0.0,0.0,0.0
1606987404181792671,1166080,1606983803068646632,imu_link,0.008054354228079319,0.011922893114387989,0.4904836118221283,0.8713316321372986,0.0,0.0,0.0,0.0,0.0,0.0,0.0,0.0,0.0,58.76091384887695,0.7377912402153015,1.4746195077896118,0.0,0.0,0.0,0.0,0.0,0.0,0.0,0.0,0.0,0.0035536764189600945,0.0013023520587012172,0.014896688982844353,0.0,0.0,0.0,0.0,0.0,0.0,0.0,0.0,0.0
1606987404187316571,1166081,1606983803068783644,imu_link,0.00805109366774559,0.011922347359359264,0.4904826283454895,0.8713322281837463,0.0,0.0,0.0,0.0,0.0,0.0,0.0,0.0,0.0,58.76078414916992,0.7379217147827148,1.4742624759674072,0.0,0.0,0.0,0.0,0.0,0.0,0.0,0.0,0.0,0.005377917550504208,-0.008468610234558582,0.00907326489686966,0.0,0.0,0.0,0.0,0.0,0.0,0.0,0.0,0.0
1606987404187336160,1166082,1606983803068899497,imu_link,0.00805109366774559,0.011922347359359264,0.4904826283454895,0.8713322281837463,0.0,0.0,0.0,0.0,0.0,0.0,0.0,0.0,0.0,58.76078414916992,0.7379217147827148,1.4742624759674072,0.0,0.0,0.0,0.0,0.0,0.0,0.0,0.0,0.0,0.005377917550504208,-0.008468610234558582,0.00907326489686966,0.0,0.0,0.0,0.0,0.0,0.0,0.0,0.0,0.0
1606987404187348436,1166083,1606983803069021478,imu_link,0.008052085526287556,0.011924192309379578,0.4904829263687134,0.871332049369812,0.0,0.0,0.0,0.0,0.0,0.0,0.0,0.0,0.0,58.76082992553711,0.7380496859550476,1.4744654893875122,0.0,0.0,0.0,0.0,0.0,0.0,0.0,0.0,0.0,-0.0024643249344080687,-0.019160714000463486,0.0014679830055683851,0.0,0.0,0.0,0.0,0.0,0.0,0.0,0.0,0.0
1606987404187368179,1166084,1606983803069150001,imu_link,0.008052085526287556,0.011924192309379578,0.4904829263687134,0.871332049369812,0.0,0.0,0.0,0.0,0.0,0.0,0.0,0.0,0.0,58.76082992553711,0.7380496859550476,1.4744654893875122,0.0,0.0,0.0,0.0,0.0,0.0,0.0,0.0,0.0,-0.0024643249344080687,-0.019160714000463486,0.0014679830055683851,0.0,0.0,0.0,0.0,0.0,0.0,0.0,0.0,0.0
1606987404187374081,1166085,1606983803069281243,imu_link,0.008053049445152283,0.0119226835668087,0.4904838502407074,0.871331512928009,0.0,0.0,0.0,0.0,0.0,0.0,0.0,0.0,0.0,58.760948181152344,0.7378432154655457,1.4744775295257568,0.0,0.0,0.0,0.0,0.0,0.0,0.0,0.0,0.0,-0.008755977265536785,-0.02030177041888237,-0.0018227524124085903,0.0,0.0,0.0,0.0,0.0,0.0,0.0,0.0,0.0
1606987404243234788,1166086,1606983803069391899,imu_link,0.008053049445152283,0.0119226835668087,0.4904838502407074,0.871331512928009,0.0,0.0,0.0,0.0,0.0,0.0,0.0,0.0,0.0,58.760948181152344,0.7378432154655457,1.4744775295257568,0.0,0.0,0.0,0.0,0.0,0.0,0.0,0.0,0.0,-0.008755977265536785,-0.02030177041888237,-0.0018227524124085903,0.0,0.0,0.0,0.0,0.0,0.0,0.0,0.0,0.0
1606987404243280937,1166087,1606983803069494288,imu_link,0.00805656984448433,0.011925066821277142,0.49048465490341187,0.871330976486206,0.0,0.0,0.0,0.0,0.0,0.0,0.0,0.0,0.0,58.76105499267578,0.7378818392753601,1.4749641418457031,0.0,0.0,0.0,0.0,0.0,0.0,0.0,0.0,0.0,0.0027066748589277267,-0.003429722972214222,0.03385049104690552,0.0,0.0,0.0,0.0,0.0,0.0,0.0,0.0,0.0
1606987404243297212,1166088,1606983803069593751,imu_link,0.00805656984448433,0.011925066821277142,0.49048465490341187,0.871330976486206,0.0,0.0,0.0,0.0,0.0,0.0,0.0,0.0,0.0,58.76105499267578,0.7378818392753601,1.4749641418457031,0.0,0.0,0.0,0.0,0.0,0.0,0.0,0.0,0.0,0.0027066748589277267,-0.003429722972214222,0.03385049104690552,0.0,0.0,0.0,0.0,0.0,0.0,0.0,0.0,0.0
1606987404243313462,1166089,1606983803069692763,imu_link,0.008058472536504269,0.01192148495465517,0.4904855787754059,0.8713304996490479,0.0,0.0,0.0,0.0,0.0,0.0,0.0,0.0,0.0,58.761173248291016,0.7374157905578613,1.474953293800354,0.0,0.0,0.0,0.0,0.0,0.0,0.0,0.0,0.0,-0.005380633287131786,0.004853979684412479,0.05066622421145439,0.0,0.0,0.0,0.0,0.0,0.0,0.0,0.0,0.0
1606987404249384414,1166090,1606983803082223190,imu_link,0.008058472536504269,0.01192148495465517,0.4904855787754059,0.8713304996490479,0.0,0.0,0.0,0.0,0.0,0.0,0.0,0.0,0.0,58.761173248291016,0.7374157905578613,1.474953293800354,0.0,0.0,0.0,0.0,0.0,0.0,0.0,0.0,0.0,-0.005380633287131786,0.004853979684412479,0.05066622421145439,0.0,0.0,0.0,0.0,0.0,0.0,0.0,0.0,0.0
1606987404249410640,1166091,1606983803082361029,imu_link,0.008058829233050346,0.011920321732759476,0.49048587679862976,0.8713303208351135,0.0,0.0,0.0,0.0,0.0,0.0,0.0,0.0,0.0,58.761207580566406,0.737278938293457,1.4749237298965454,0.0,0.0,0.0,0.0,0.0,0.0,0.0,0.0,0.0,-0.013600719161331654,0.002878524363040924,0.0485466793179512,0.0,0.0,0.0,0.0,0.0,0.0,0.0,0.0,0.0
1606987404249420703,1166092,1606983803082493689,imu_link,0.008058829233050346,0.011920321732759476,0.49048587679862976,0.8713303208351135,0.0,0.0,0.0,0.0,0.0,0.0,0.0,0.0,0.0,58.761207580566406,0.737278938293457,1.4749237298965454,0.0,0.0,0.0,0.0,0.0,0.0,0.0,0.0,0.0,-0.013600719161331654,0.002878524363040924,0.0485466793179512,0.0,0.0,0.0,0.0,0.0,0.0,0.0,0.0,0.0
1606987404249429882,1166093,1606983803082609576,imu_link,0.00805873516947031,0.011923661455512047,0.4904848635196686,0.8713309168815613,0.0,0.0,0.0,0.0,0.0,0.0,0.0,0.0,0.0,58.761085510253906,0.7376195192337036,1.4751012325286865,0.0,0.0,0.0,0.0,0.0,0.0,0.0,0.0,0.0,0.003169780597090721,0.0018355719512328506,0.06098054721951485,0.0,0.0,0.0,0.0,0.0,0.0,0.0,0.0,0.0
1606987404249475317,1166094,1606983803082722893,imu_link,0.00805873516947031,0.011923661455512047,0.4904848635196686,0.8713309168815613,0.0,0.0,0.0,0.0,0.0,0.0,0.0,0.0,0.0,58.761085510253906,0.7376195192337036,1.4751012325286865,0.0,0.0,0.0,0.0,0.0,0.0,0.0,0.0,0.0,0.003169780597090721,0.0018355719512328506,0.06098054721951485,0.0,0.0,0.0,0.0,0.0,0.0,0.0,0.0,0.0
1606987404261870711,1166095,1606983803082835287,imu_link,0.008057980798184872,0.011927750892937183,0.49048423767089844,0.8713312149047852,0.0,0.0,0.0,0.0,0.0,0.0,0.0,0.0,0.0,58.761009216308594,0.7380712628364563,1.4752553701400757,0.0,0.0,0.0,0.0,0.0,0.0,0.0,0.0,0.0,-0.0015193044673651457,-0.0027395724318921566,0.023069817572832108,0.0,0.0,0.0,0.0,0.0,0.0,0.0,0.0,0.0
1606987404261921097,1166096,1606983803082999059,imu_link,0.008057980798184872,0.011927750892937183,0.49048423767089844,0.8713312149047852,0.0,0.0,0.0,0.0,0.0,0.0,0.0,0.0,0.0,58.761009216308594,0.7380712628364563,1.4752553701400757,0.0,0.0,0.0,0.0,0.0,0.0,0.0,0.0,0.0,-0.0015193044673651457,-0.0027395724318921566,0.023069817572832108,0.0,0.0,0.0,0.0,0.0,0.0,0.0,0.0,0.0
1606987404261951260,1166097,1606983803083122476,imu_link,0.00805764738470316,0.011927117593586445,0.4904841482639313,0.8713312745094299,0.0,0.0,0.0,0.0,0.0,0.0,0.0,0.0,0.0,58.76099395751953,0.7380268573760986,1.4751864671707153,0.0,0.0,0.0,0.0,0.0,0.0,0.0,0.0,0.0,-0.0007808289374224842,-0.018342971801757812,0.006724830251187086,0.0,0.0,0.0,0.0,0.0,0.0,0.0,0.0,0.0
1606987404261982025,1166098,1606983803083227744,imu_link,0.00805764738470316,0.011927117593586445,0.4904841482639313,0.8713312745094299,0.0,0.0,0.0,0.0,0.0,0.0,0.0,0.0,0.0,58.76099395751953,0.7380268573760986,1.4751864671707153,0.0,0.0,0.0,0.0,0.0,0.0,0.0,0.0,0.0,-0.0007808289374224842,-0.018342971801757812,0.006724830251187086,0.0,0.0,0.0,0.0,0.0,0.0,0.0,0.0,0.0
1606987404271918528,1166099,1606983803083326774,imu_link,0.008060024119913578,0.011927587911486626,0.4904840290546417,0.8713313341140747,0.0,0.0,0.0,0.0,0.0,0.0,0.0,0.0,0.0,58.760982513427734,0.7379404902458191,1.4754502773284912,0.0,0.0,0.0,0.0,0.0,0.0,0.0,0.0,0.0,0.012490897439420223,-0.018867572769522667,0.015769874677062035,0.0,0.0,0.0,0.0,0.0,0.0,0.0,0.0,0.0
1606987404271970207,1166100,1606983803083425161,imu_link,0.008060024119913578,0.011927587911486626,0.4904840290546417,0.8713313341140747,0.0,0.0,0.0,0.0,0.0,0.0,0.0,0.0,0.0,58.760982513427734,0.7379404902458191,1.4754502773284912,0.0,0.0,0.0,0.0,0.0,0.0,0.0,0.0,0.0,0.012490897439420223,-0.018867572769522667,0.015769874677062035,0.0,0.0,0.0,0.0,0.0,0.0,0.0,0.0,0.0
1606987404272040252,1166101,1606983803095802723,imu_link,0.008061554282903671,0.011927293613553047,0.49048545956611633,0.8713304996490479,0.0,0.0,0.0,0.0,0.0,0.0,0.0,0.0,0.0,58.761165618896484,0.7378225922584534,1.4755876064300537,0.0,0.0,0.0,0.0,0.0,0.0,0.0,0.0,0.0,0.011698270216584206,0.005672121420502663,0.02134045399725437,0.0,0.0,0.0,0.0,0.0,0.0,0.0,0.0,0.0
1606987404272065210,1166102,1606983803095943693,imu_link,0.008061554282903671,0.011927293613553047,0.49048545956611633,0.8713304996490479,0.0,0.0,0.0,0.0,0.0,0.0,0.0,0.0,0.0,58.761165618896484,0.7378225922584534,1.4755876064300537,0.0,0.0,0.0,0.0,0.0,0.0,0.0,0.0,0.0,0.011698270216584206,0.005672121420502663,0.02134045399725437,0.0,0.0,0.0,0.0,0.0,0.0,0.0,0.0,0.0
1606987404272093595,1166103,1606983803096076888,imu_link,0.008063796907663345,0.011928647756576538,0.4904831051826477,0.8713317513465881,0.0,0.0,0.0,0.0,0.0,0.0,0.0,0.0,0.0,58.7608642578125,0.737835705280304,1.4758857488632202,0.0,0.0,0.0,0.0,0.0,0.0,0.0,0.0,0.0,-0.005853466689586639,0.0048730759881436825,0.01837478019297123,0.0,0.0,0.0,0.0,0.0,0.0,0.0,0.0,0.0
1606987404362495113,1166104,1606983803096195257,imu_link,0.008063796907663345,0.011928647756576538,0.4904831051826477,0.8713317513465881,0.0,0.0,0.0,0.0,0.0,0.0,0.0,0.0,0.0,58.7608642578125,0.737835705280304,1.4758857488632202,0.0,0.0,0.0,0.0,0.0,0.0,0.0,0.0,0.0,-0.005853466689586639,0.0048730759881436825,0.01837478019297123,0.0,0.0,0.0,0.0,0.0,0.0,0.0,0.0,0.0
1606987404362515391,1166105,1606983803096309755,imu_link,0.00806409027427435,0.011927383951842785,0.4904813766479492,0.8713327646255493,0.0,0.0,0.0,0.0,0.0,0.0,0.0,0.0,0.0,58.7606315612793,0.7376960515975952,1.4758425951004028,0.0,0.0,0.0,0.0,0.0,0.0,0.0,0.0,0.0,-0.011419705115258694,-0.01143051777034998,0.007744666188955307,0.0,0.0,0.0,0.0,0.0,0.0,0.0,0.0,0.0
1606987404362522986,1166106,1606983803096440851,imu_link,0.00806409027427435,0.011927383951842785,0.4904813766479492,0.8713327646255493,0.0,0.0,0.0,0.0,0.0,0.0,0.0,0.0,0.0,58.7606315612793,0.7376960515975952,1.4758425951004028,0.0,0.0,0.0,0.0,0.0,0.0,0.0,0.0,0.0,-0.011419705115258694,-0.01143051777034998,0.007744666188955307,0.0,0.0,0.0,0.0,0.0,0.0,0.0,0.0,0.0
1606987404362546066,1166107,1606983803096563156,imu_link,0.008067752234637737,0.011926001869142056,0.49048179388046265,0.8713325262069702,0.0,0.0,0.0,0.0,0.0,0.0,0.0,0.0,0.0,58.76068878173828,0.7373512983322144,1.4761308431625366,0.0,0.0,0.0,0.0,0.0,0.0,0.0,0.0,0.0,0.010962585918605328,0.012552102096378803,0.011384823359549046,0.0,0.0,0.0,0.0,0.0,0.0,0.0,0.0,0.0
1606987404371706472,1166108,1606983803096681860,imu_link,0.008067752234637737,0.011926001869142056,0.49048179388046265,0.8713325262069702,0.0,0.0,0.0,0.0,0.0,0.0,0.0,0.0,0.0,58.76068878173828,0.7373512983322144,1.4761308431625366,0.0,0.0,0.0,0.0,0.0,0.0,0.0,0.0,0.0,0.010962585918605328,0.012552102096378803,0.011384823359549046,0.0,0.0,0.0,0.0,0.0,0.0,0.0,0.0,0.0
1606987404371744486,1166109,1606983803096747905,imu_link,0.008069203235208988,0.011924979276955128,0.4904831647872925,0.8713317513465881,0.0,0.0,0.0,0.0,0.0,0.0,0.0,0.0,0.0,58.7608642578125,0.7371653914451599,1.4762194156646729,0.0,0.0,0.0,0.0,0.0,0.0,0.0,0.0,0.0,0.0015245049726217985,0.02181025967001915,0.028072979301214218,0.0,0.0,0.0,0.0,0.0,0.0,0.0,0.0,0.0
1606987404371755340,1166110,1606983803096827204,imu_link,0.008069203235208988,0.011924979276955128,0.4904831647872925,0.8713317513465881,0.0,0.0,0.0,0.0,0.0,0.0,0.0,0.0,0.0,58.7608642578125,0.7371653914451599,1.4762194156646729,0.0,0.0,0.0,0.0,0.0,0.0,0.0,0.0,0.0,0.0015245049726217985,0.02181025967001915,0.028072979301214218,0.0,0.0,0.0,0.0,0.0,0.0,0.0,0.0,0.0
1606987404371775449,1166111,1606983803096893494,imu_link,0.008064745925366879,0.011924180202186108,0.49048206210136414,0.8713324069976807,0.0,0.0,0.0,0.0,0.0,0.0,0.0,0.0,0.0,58.76071548461914,0.7373380661010742,1.4757282733917236,0.0,0.0,0.0,0.0,0.0,0.0,0.0,0.0,0.0,-0.015696564689278603,-0.008144374005496502,0.024908006191253662,0.0,0.0,0.0,0.0,0.0,0.0,0.0,0.0,0.0
1606987404379100821,1166112,1606983803108672077,imu_link,0.008064745925366879,0.011924180202186108,0.49048206210136414,0.8713324069976807,0.0,0.0,0.0,0.0,0.0,0.0,0.0,0.0,0.0,58.76071548461914,0.7373380661010742,1.4757282733917236,0.0,0.0,0.0,0.0,0.0,0.0,0.0,0.0,0.0,-0.015696564689278603,-0.008144374005496502,0.024908006191253662,0.0,0.0,0.0,0.0,0.0,0.0,0.0,0.0,0.0
1606987404379142039,1166113,1606983803108787400,imu_link,0.008064777590334415,0.01192524004727602,0.4904819428920746,0.8713324666023254,0.0,0.0,0.0,0.0,0.0,0.0,0.0,0.0,0.0,58.76070785522461,0.7374423742294312,1.4757912158966064,0.0,0.0,0.0,0.0,0.0,0.0,0.0,0.0,0.0,-0.008805339224636555,-0.012440660037100315,0.01709512434899807,0.0,0.0,0.0,0.0,0.0,0.0,0.0,0.0,0.0
1606987404379201222,1166114,1606983803108918507,imu_link,0.008064777590334415,0.01192524004727602,0.4904819428920746,0.8713324666023254,0.0,0.0,0.0,0.0,0.0,0.0,0.0,0.0,0.0,58.76070785522461,0.7374423742294312,1.4757912158966064,0.0,0.0,0.0,0.0,0.0,0.0,0.0,0.0,0.0,-0.008805339224636555,-0.012440660037100315,0.01709512434899807,0.0,0.0,0.0,0.0,0.0,0.0,0.0,0.0,0.0
1606987404379218907,1166115,1606983803108993176,imu_link,0.008066852577030659,0.01192261092364788,0.4904804229736328,0.8713333606719971,0.0,0.0,0.0,0.0,0.0,0.0,0.0,0.0,0.0,58.760498046875,0.737065851688385,1.4758490324020386,0.0,0.0,0.0,0.0,0.0,0.0,0.0,0.0,0.0,-0.005955807864665985,0.011916843242943287,0.036602750420570374,0.0,0.0,0.0,0.0,0.0,0.0,0.0,0.0,0.0
1606987404379237279,1166116,1606983803109053656,imu_link,0.008066852577030659,0.01192261092364788,0.4904804229736328,0.8713333606719971,0.0,0.0,0.0,0.0,0.0,0.0,0.0,0.0,0.0,58.760498046875,0.737065851688385,1.4758490324020386,0.0,0.0,0.0,0.0,0.0,0.0,0.0,0.0,0.0,-0.005955807864665985,0.011916843242943287,0.036602750420570374,0.0,0.0,0.0,0.0,0.0,0.0,0.0,0.0,0.0
1606987404383890073,1166117,1606983803109136007,imu_link,0.008067096583545208,0.01192247774451971,0.4904814660549164,0.8713327646255493,0.0,0.0,0.0,0.0,0.0,0.0,0.0,0.0,0.0,58.7606315612793,0.7370370030403137,1.4758669137954712,0.0,0.0,0.0,0.0,0.0,0.0,0.0,0.0,0.0,0.002006652532145381,0.017074283212423325,0.05263887345790863,0.0,0.0,0.0,0.0,0.0,0.0,0.0,0.0,0.0
1606987404383917058,1166118,1606983803109202934,imu_link,0.008067096583545208,0.01192247774451971,0.4904814660549164,0.8713327646255493,0.0,0.0,0.0,0.0,0.0,0.0,0.0,0.0,0.0,58.7606315612793,0.7370370030403137,1.4758669137954712,0.0,0.0,0.0,0.0,0.0,0.0,0.0,0.0,0.0,0.002006652532145381,0.017074283212423325,0.05263887345790863,0.0,0.0,0.0,0.0,0.0,0.0,0.0,0.0,0.0
1606987404383967168,1166119,1606983803109274315,imu_link,0.008066670969128609,0.011922342702746391,0.49047935009002686,0.8713339567184448,0.0,0.0,0.0,0.0,0.0,0.0,0.0,0.0,0.0,58.76036071777344,0.7370510101318359,1.475814938545227,0.0,0.0,0.0,0.0,0.0,0.0,0.0,0.0,0.0,0.002860257402062416,0.00394772132858634,0.04054126515984535,0.0,0.0,0.0,0.0,0.0,0.0,0.0,0.0,0.0
1606987404383989110,1166120,1606983803109338836,imu_link,0.008066670969128609,0.011922342702746391,0.49047935009002686,0.8713339567184448,0.0,0.0,0.0,0.0,0.0,0.0,0.0,0.0,0.0,58.76036071777344,0.7370510101318359,1.475814938545227,0.0,0.0,0.0,0.0,0.0,0.0,0.0,0.0,0.0,0.002860257402062416,0.00394772132858634,0.04054126515984535,0.0,0.0,0.0,0.0,0.0,0.0,0.0,0.0,0.0
1606987404419710287,1166121,1606983803109406124,imu_link,0.008066650480031967,0.011924109421670437,0.49048036336898804,0.8713333606719971,0.0,0.0,0.0,0.0,0.0,0.0,0.0,0.0,0.0,58.76049041748047,0.7372269034385681,1.475913166999817,0.0,0.0,0.0,0.0,0.0,0.0,0.0,0.0,0.0,-0.014507042244076729,0.01288995798677206,0.01855110190808773,0.0,0.0,0.0,0.0,0.0,0.0,0.0,0.0,0.0
1606987404419734383,1166122,1606983803122515246,imu_link,0.008066650480031967,0.011924109421670437,0.49048036336898804,0.8713333606719971,0.0,0.0,0.0,0.0,0.0,0.0,0.0,0.0,0.0,58.76049041748047,0.7372269034385681,1.475913166999817,0.0,0.0,0.0,0.0,0.0,0.0,0.0,0.0,0.0,-0.014507042244076729,0.01288995798677206,0.01855110190808773,0.0,0.0,0.0,0.0,0.0,0.0,0.0,0.0,0.0
1606987404419743812,1166123,1606983803122629102,imu_link,0.008068005554378033,0.011921222321689129,0.49048107862472534,0.8713330030441284,0.0,0.0,0.0,0.0,0.0,0.0,0.0,0.0,0.0,58.76057815551758,0.7368612289428711,1.475886583328247,0.0,0.0,0.0,0.0,0.0,0.0,0.0,0.0,0.0,-0.01312687061727047,0.010837497189640999,0.03314754739403725,0.0,0.0,0.0,0.0,0.0,0.0,0.0,0.0,0.0
1606987404419755284,1166124,1606983803122745491,imu_link,0.008068005554378033,0.011921222321689129,0.49048107862472534,0.8713330030441284,0.0,0.0,0.0,0.0,0.0,0.0,0.0,0.0,0.0,58.76057815551758,0.7368612289428711,1.475886583328247,0.0,0.0,0.0,0.0,0.0,0.0,0.0,0.0,0.0,-0.01312687061727047,0.010837497189640999,0.03314754739403725,0.0,0.0,0.0,0.0,0.0,0.0,0.0,0.0,0.0
1606987404419764905,1166125,1606983803122823396,imu_link,0.008070165291428566,0.011920837685465813,0.49048033356666565,0.8713334202766418,0.0,0.0,0.0,0.0,0.0,0.0,0.0,0.0,0.0,58.76048278808594,0.7367026209831238,1.4760799407958984,0.0,0.0,0.0,0.0,0.0,0.0,0.0,0.0,0.0,-0.008710110560059547,-0.007021129131317139,0.044415004551410675,0.0,0.0,0.0,0.0,0.0,0.0,0.0,0.0,0.0
1606987404424275354,1166126,1606983803122888001,imu_link,0.008070165291428566,0.011920837685465813,0.49048033356666565,0.8713334202766418,0.0,0.0,0.0,0.0,0.0,0.0,0.0,0.0,0.0,58.76048278808594,0.7367026209831238,1.4760799407958984,0.0,0.0,0.0,0.0,0.0,0.0,0.0,0.0,0.0,-0.008710110560059547,-0.007021129131317139,0.044415004551410675,0.0,0.0,0.0,0.0,0.0,0.0,0.0,0.0,0.0
1606987404424300322,1166127,1606983803123007510,imu_link,0.008072196505963802,0.01192027423530817,0.4904803931713104,0.8713332414627075,0.0,0.0,0.0,0.0,0.0,0.0,0.0,0.0,0.0,58.760498046875,0.7365319728851318,1.4762513637542725,0.0,0.0,0.0,0.0,0.0,0.0,0.0,0.0,0.0,-0.0036370232701301575,-0.0060213906690478325,0.009379101917147636,0.0,0.0,0.0,0.0,0.0,0.0,0.0,0.0,0.0
1606987404424315280,1166128,1606983803123107052,imu_link,0.008072196505963802,0.01192027423530817,0.4904803931713104,0.8713332414627075,0.0,0.0,0.0,0.0,0.0,0.0,0.0,0.0,0.0,58.760498046875,0.7365319728851318,1.4762513637542725,0.0,0.0,0.0,0.0,0.0,0.0,0.0,0.0,0.0,-0.0036370232701301575,-0.0060213906690478325,0.009379101917147636,0.0,0.0,0.0,0.0,0.0,0.0,0.0,0.0,0.0
1606987404424332273,1166129,1606983803123179526,imu_link,0.0080717159435153,0.011922991834580898,0.490480899810791,0.8713330626487732,0.0,0.0,0.0,0.0,0.0,0.0,0.0,0.0,0.0,58.76055908203125,0.7368296384811401,1.4763565063476562,0.0,0.0,0.0,0.0,0.0,0.0,0.0,0.0,0.0,0.004617976024746895,-0.0028411266393959522,0.007108794990926981,0.0,0.0,0.0,0.0,0.0,0.0,0.0,0.0,0.0
1606987404431116439,1166130,1606983803123257689,imu_link,0.0080717159435153,0.011922991834580898,0.490480899810791,0.8713330626487732,0.0,0.0,0.0,0.0,0.0,0.0,0.0,0.0,0.0,58.76055908203125,0.7368296384811401,1.4763565063476562,0.0,0.0,0.0,0.0,0.0,0.0,0.0,0.0,0.0,0.004617976024746895,-0.0028411266393959522,0.007108794990926981,0.0,0.0,0.0,0.0,0.0,0.0,0.0,0.0,0.0
1606987404431139356,1166131,1606983803123334490,imu_link,0.008073164150118828,0.011923208832740784,0.4904801845550537,0.8713334202766418,0.0,0.0,0.0,0.0,0.0,0.0,0.0,0.0,0.0,58.760467529296875,0.7367711067199707,1.4765129089355469,0.0,0.0,0.0,0.0,0.0,0.0,0.0,0.0,0.0,0.00565924821421504,0.009898661635816097,0.043498795479536057,0.0,0.0,0.0,0.0,0.0,0.0,0.0,0.0,0.0
1606987404431148508,1166132,1606983803123407596,imu_link,0.008073164150118828,0.011923208832740784,0.4904801845550537,0.8713334202766418,0.0,0.0,0.0,0.0,0.0,0.0,0.0,0.0,0.0,58.760467529296875,0.7367711067199707,1.4765129089355469,0.0,0.0,0.0,0.0,0.0,0.0,0.0,0.0,0.0,0.00565924821421504,0.009898661635816097,0.043498795479536057,0.0,0.0,0.0,0.0,0.0,0.0,0.0,0.0,0.0
1606987404431159910,1166133,1606983803135993308,imu_link,0.008074311539530754,0.01192084327340126,0.4904814660549164,0.8713327050209045,0.0,0.0,0.0,0.0,0.0,0.0,0.0,0.0,0.0,58.7606315612793,0.7364680767059326,1.476495623588562,0.0,0.0,0.0,0.0,0.0,0.0,0.0,0.0,0.0,0.0040955739095807076,0.007871586829423904,0.04905688017606735,0.0,0.0,0.0,0.0,0.0,0.0,0.0,0.0,0.0
1606987404431188638,1166134,1606983803136131788,imu_link,0.008074311539530754,0.01192084327340126,0.4904814660549164,0.8713327050209045,0.0,0.0,0.0,0.0,0.0,0.0,0.0,0.0,0.0,58.7606315612793,0.7364680767059326,1.476495623588562,0.0,0.0,0.0,0.0,0.0,0.0,0.0,0.0,0.0,0.0040955739095807076,0.007871586829423904,0.04905688017606735,0.0,0.0,0.0,0.0,0.0,0.0,0.0,0.0,0.0
1606987404436846352,1166135,1606983803136247099,imu_link,0.008070393465459347,0.011920356191694736,0.490481972694397,0.8713324666023254,0.0,0.0,0.0,0.0,0.0,0.0,0.0,0.0,0.0,58.76070022583008,0.7366389632225037,1.4760771989822388,0.0,0.0,0.0,0.0,0.0,0.0,0.0,0.0,0.0,0.009986833669245243,0.009527778252959251,0.03746087849140167,0.0,0.0,0.0,0.0,0.0,0.0,0.0,0.0,0.0
1606987404436867045,1166136,1606983803136325169,imu_link,0.008070393465459347,0.011920356191694736,0.490481972694397,0.8713324666023254,0.0,0.0,0.0,0.0,0.0,0.0,0.0,0.0,0.0,58.76070022583008,0.7366389632225037,1.4760771989822388,0.0,0.0,0.0,0.0,0.0,0.0,0.0,0.0,0.0,0.009986833669245243,0.009527778252959251,0.03746087849140167,0.0,0.0,0.0,0.0,0.0,0.0,0.0,0.0,0.0
1606987404436872529,1166137,1606983803136398530,imu_link,0.00806921161711216,0.011919434182345867,0.490481972694397,0.8713324666023254,0.0,0.0,0.0,0.0,0.0,0.0,0.0,0.0,0.0,58.76070022583008,0.7366132736206055,1.475907325744629,0.0,0.0,0.0,0.0,0.0,0.0,0.0,0.0,0.0,0.016072530299425125,0.022420890629291534,0.02634393982589245,0.0,0.0,0.0,0.0,0.0,0.0,0.0,0.0,0.0
1606987404436891320,1166138,1606983803136478373,imu_link,0.00806921161711216,0.011919434182345867,0.490481972694397,0.8713324666023254,0.0,0.0,0.0,0.0,0.0,0.0,0.0,0.0,0.0,58.76070022583008,0.7366132736206055,1.475907325744629,0.0,0.0,0.0,0.0,0.0,0.0,0.0,0.0,0.0,0.016072530299425125,0.022420890629291534,0.02634393982589245,0.0,0.0,0.0,0.0,0.0,0.0,0.0,0.0,0.0
1606987404497039582,1166139,1606983803136570796,imu_link,0.008065062575042248,0.011918292380869389,0.4904826581478119,0.8713321685791016,0.0,0.0,0.0,0.0,0.0,0.0,0.0,0.0,0.0,58.76077651977539,0.7367314100265503,1.4754292964935303,0.0,0.0,0.0,0.0,0.0,0.0,0.0,0.0,0.0,0.02168499119579792,0.012648551724851131,0.024098750203847885,0.0,0.0,0.0,0.0,0.0,0.0,0.0,0.0,0.0
1606987404497088398,1166140,1606983803136645689,imu_link,0.008065062575042248,0.011918292380869389,0.4904826581478119,0.8713321685791016,0.0,0.0,0.0,0.0,0.0,0.0,0.0,0.0,0.0,58.76077651977539,0.7367314100265503,1.4754292964935303,0.0,0.0,0.0,0.0,0.0,0.0,0.0,0.0,0.0,0.02168499119579792,0.012648551724851131,0.024098750203847885,0.0,0.0,0.0,0.0,0.0,0.0,0.0,0.0,0.0
1606987404497110689,1166141,1606983803136718145,imu_link,0.0080649359151721,0.011915946379303932,0.49048176407814026,0.8713326454162598,0.0,0.0,0.0,0.0,0.0,0.0,0.0,0.0,0.0,58.76066207885742,0.7365057468414307,1.4752839803695679,0.0,0.0,0.0,0.0,0.0,0.0,0.0,0.0,0.0,0.020276695489883423,0.0012093354016542435,0.01592499576508999,0.0,0.0,0.0,0.0,0.0,0.0,0.0,0.0,0.0
1606987404497137600,1166142,1606983803136789884,imu_link,0.0080649359151721,0.011915946379303932,0.49048176407814026,0.8713326454162598,0.0,0.0,0.0,0.0,0.0,0.0,0.0,0.0,0.0,58.76066207885742,0.7365057468414307,1.4752839803695679,0.0,0.0,0.0,0.0,0.0,0.0,0.0,0.0,0.0,0.020276695489883423,0.0012093354016542435,0.01592499576508999,0.0,0.0,0.0,0.0,0.0,0.0,0.0,0.0,0.0
1606987404497156256,1166143,1606983803136862408,imu_link,0.00806443952023983,0.011918684467673302,0.4904801547527313,0.8713335990905762,0.0,0.0,0.0,0.0,0.0,0.0,0.0,0.0,0.0,58.76044845581055,0.7368099093437195,1.4753870964050293,0.0,0.0,0.0,0.0,0.0,0.0,0.0,0.0,0.0,-0.0030061735305935144,-0.005960386246442795,0.013660723343491554,0.0,0.0,0.0,0.0,0.0,0.0,0.0,0.0,0.0
1606987404501628745,1166144,1606983803149876019,imu_link,0.00806443952023983,0.011918684467673302,0.4904801547527313,0.8713335990905762,0.0,0.0,0.0,0.0,0.0,0.0,0.0,0.0,0.0,58.76044845581055,0.7368099093437195,1.4753870964050293,0.0,0.0,0.0,0.0,0.0,0.0,0.0,0.0,0.0,-0.0030061735305935144,-0.005960386246442795,0.013660723343491554,0.0,0.0,0.0,0.0,0.0,0.0,0.0,0.0,0.0
1606987404501662483,1166145,1606983803150011172,imu_link,0.008063800632953644,0.011920074000954628,0.490480899810791,0.8713331818580627,0.0,0.0,0.0,0.0,0.0,0.0,0.0,0.0,0.0,58.76055145263672,0.7369833588600159,1.4754021167755127,0.0,0.0,0.0,0.0,0.0,0.0,0.0,0.0,0.0,0.0033960589207708836,0.004451025277376175,0.05086015537381172,0.0,0.0,0.0,0.0,0.0,0.0,0.0,0.0,0.0
1606987404501680097,1166146,1606983803150145888,imu_link,0.008063800632953644,0.011920074000954628,0.490480899810791,0.8713331818580627,0.0,0.0,0.0,0.0,0.0,0.0,0.0,0.0,0.0,58.76055145263672,0.7369833588600159,1.4754021167755127,0.0,0.0,0.0,0.0,0.0,0.0,0.0,0.0,0.0,0.0033960589207708836,0.004451025277376175,0.05086015537381172,0.0,0.0,0.0,0.0,0.0,0.0,0.0,0.0,0.0
1606987404501762293,1166147,1606983803150225762,imu_link,0.008061248809099197,0.011918686330318451,0.49048110842704773,0.8713330626487732,0.0,0.0,0.0,0.0,0.0,0.0,0.0,0.0,0.0,58.76057815551758,0.736987829208374,1.475069284439087,0.0,0.0,0.0,0.0,0.0,0.0,0.0,0.0,0.0,0.027588697150349617,0.010328595526516438,0.04442273825407028,0.0,0.0,0.0,0.0,0.0,0.0,0.0,0.0,0.0
1606987404507851178,1166148,1606983803150293896,imu_link,0.008061248809099197,0.011918686330318451,0.49048110842704773,0.8713330626487732,0.0,0.0,0.0,0.0,0.0,0.0,0.0,0.0,0.0,58.76057815551758,0.736987829208374,1.475069284439087,0.0,0.0,0.0,0.0,0.0,0.0,0.0,0.0,0.0,0.027588697150349617,0.010328595526516438,0.04442273825407028,0.0,0.0,0.0,0.0,0.0,0.0,0.0,0.0,0.0
1606987404507881017,1166149,1606983803150366612,imu_link,0.008061296306550503,0.011918715201318264,0.4904816746711731,0.8713327646255493,0.0,0.0,0.0,0.0,0.0,0.0,0.0,0.0,0.0,58.76064682006836,0.7369871139526367,1.4750763177871704,0.0,0.0,0.0,0.0,0.0,0.0,0.0,0.0,0.0,0.03372768312692642,-0.008192203938961029,0.027738619595766068,0.0,0.0,0.0,0.0,0.0,0.0,0.0,0.0,0.0
1606987404507895537,1166150,1606983803150454278,imu_link,0.008061296306550503,0.011918715201318264,0.4904816746711731,0.8713327646255493,0.0,0.0,0.0,0.0,0.0,0.0,0.0,0.0,0.0,58.76064682006836,0.7369871139526367,1.4750763177871704,0.0,0.0,0.0,0.0,0.0,0.0,0.0,0.0,0.0,0.03372768312692642,-0.008192203938961029,0.027738619595766068,0.0,0.0,0.0,0.0,0.0,0.0,0.0,0.0,0.0
1606987404507906442,1166151,1606983803150526266,imu_link,0.008062578737735748,0.011924522928893566,0.490482360124588,0.8713322877883911,0.0,0.0,0.0,0.0,0.0,0.0,0.0,0.0,0.0,58.76075744628906,0.7374937534332275,1.4755315780639648,0.0,0.0,0.0,0.0,0.0,0.0,0.0,0.0,0.0,0.02823503129184246,-0.006508711725473404,0.04748959094285965,0.0,0.0,0.0,0.0,0.0,0.0,0.0,0.0,0.0
1606987404508007526,1166152,1606983803150598642,imu_link,0.008062578737735748,0.011924522928893566,0.490482360124588,0.8713322877883911,0.0,0.0,0.0,0.0,0.0,0.0,0.0,0.0,0.0,58.76075744628906,0.7374937534332275,1.4755315780639648,0.0,0.0,0.0,0.0,0.0,0.0,0.0,0.0,0.0,0.02823503129184246,-0.006508711725473404,0.04748959094285965,0.0,0.0,0.0,0.0,0.0,0.0,0.0,0.0,0.0
1606987404544018086,1166153,1606983803150670644,imu_link,0.008062961511313915,0.01192488893866539,0.49048253893852234,0.8713321685791016,0.0,0.0,0.0,0.0,0.0,0.0,0.0,0.0,0.0,58.76077651977539,0.7375084757804871,1.4755903482437134,0.0,0.0,0.0,0.0,0.0,0.0,0.0,0.0,0.0,0.014828953891992569,0.0055779023095965385,0.013922303915023804,0.0,0.0,0.0,0.0,0.0,0.0,0.0,0.0,0.0
1606987404544073015,1166154,1606983803150746371,imu_link,0.008062961511313915,0.01192488893866539,0.49048253893852234,0.8713321685791016,0.0,0.0,0.0,0.0,0.0,0.0,0.0,0.0,0.0,58.76077651977539,0.7375084757804871,1.4755903482437134,0.0,0.0,0.0,0.0,0.0,0.0,0.0,0.0,0.0,0.014828953891992569,0.0055779023095965385,0.013922303915023804,0.0,0.0,0.0,0.0,0.0,0.0,0.0,0.0,0.0
1606987404544085077,1166155,1606983803163206877,imu_link,0.008062212727963924,0.011926338076591492,0.4904840588569641,0.8713312745094299,0.0,0.0,0.0,0.0,0.0,0.0,0.0,0.0,0.0,58.760982513427734,0.7376925945281982,1.4755983352661133,0.0,0.0,0.0,0.0,0.0,0.0,0.0,0.0,0.0,-0.0049586514942348,-0.010397971607744694,0.009124534204602242,0.0,0.0,0.0,0.0,0.0,0.0,0.0,0.0,0.0
1606987404544107153,1166156,1606983803163332618,imu_link,0.008062212727963924,0.011926338076591492,0.4904840588569641,0.8713312745094299,0.0,0.0,0.0,0.0,0.0,0.0,0.0,0.0,0.0,58.760982513427734,0.7376925945281982,1.4755983352661133,0.0,0.0,0.0,0.0,0.0,0.0,0.0,0.0,0.0,-0.0049586514942348,-0.010397971607744694,0.009124534204602242,0.0,0.0,0.0,0.0,0.0,0.0,0.0,0.0,0.0
1606987404577290955,1166157,1606983803163474848,imu_link,0.008062603883445263,0.011926034465432167,0.4904830753803253,0.8713318705558777,0.0,0.0,0.0,0.0,0.0,0.0,0.0,0.0,0.0,58.7608528137207,0.7376420497894287,1.4756195545196533,0.0,0.0,0.0,0.0,0.0,0.0,0.0,0.0,0.0,-0.004150019958615303,-0.017580319195985794,0.052710119634866714,0.0,0.0,0.0,0.0,0.0,0.0,0.0,0.0,0.0
1606987404577322517,1166158,1606983803163560290,imu_link,0.008062603883445263,0.011926034465432167,0.4904830753803253,0.8713318705558777,0.0,0.0,0.0,0.0,0.0,0.0,0.0,0.0,0.0,58.7608528137207,0.7376420497894287,1.4756195545196533,0.0,0.0,0.0,0.0,0.0,0.0,0.0,0.0,0.0,-0.004150019958615303,-0.017580319195985794,0.052710119634866714,0.0,0.0,0.0,0.0,0.0,0.0,0.0,0.0,0.0
1606987404577348107,1166159,1606983803163629138,imu_link,0.008066315203905106,0.011926831677556038,0.4904854893684387,0.8713304400444031,0.0,0.0,0.0,0.0,0.0,0.0,0.0,0.0,0.0,58.761173248291016,0.7375087738037109,1.4760372638702393,0.0,0.0,0.0,0.0,0.0,0.0,0.0,0.0,0.0,0.01969960145652294,-0.017762962728738785,0.048053279519081116,0.0,0.0,0.0,0.0,0.0,0.0,0.0,0.0,0.0
1606987404577384465,1166160,1606983803163721980,imu_link,0.008066315203905106,0.011926831677556038,0.4904854893684387,0.8713304400444031,0.0,0.0,0.0,0.0,0.0,0.0,0.0,0.0,0.0,58.761173248291016,0.7375087738037109,1.4760372638702393,0.0,0.0,0.0,0.0,0.0,0.0,0.0,0.0,0.0,0.01969960145652294,-0.017762962728738785,0.048053279519081116,0.0,0.0,0.0,0.0,0.0,0.0,0.0,0.0,0.0
1606987404577397192,1166161,1606983803163796437,imu_link,0.008068466559052467,0.011928337626159191,0.49048522114753723,0.8713305592536926,0.0,0.0,0.0,0.0,0.0,0.0,0.0,0.0,0.0,58.761138916015625,0.737538754940033,1.4763364791870117,0.0,0.0,0.0,0.0,0.0,0.0,0.0,0.0,0.0,0.026706526055932045,-0.015177416615188122,0.02110256440937519,0.0,0.0,0.0,0.0,0.0,0.0,0.0,0.0,0.0
1606987404582975152,1166162,1606983803163867530,imu_link,0.008068466559052467,0.011928337626159191,0.49048522114753723,0.8713305592536926,0.0,0.0,0.0,0.0,0.0,0.0,0.0,0.0,0.0,58.761138916015625,0.737538754940033,1.4763364791870117,0.0,0.0,0.0,0.0,0.0,0.0,0.0,0.0,0.0,0.026706526055932045,-0.015177416615188122,0.02110256440937519,0.0,0.0,0.0,0.0,0.0,0.0,0.0,0.0,0.0
1606987404583023587,1166163,1606983803163953294,imu_link,0.008067335933446884,0.011931645683944225,0.49048277735710144,0.8713319301605225,0.0,0.0,0.0,0.0,0.0,0.0,0.0,0.0,0.0,58.76082992553711,0.7379366159439087,1.4764074087142944,0.0,0.0,0.0,0.0,0.0,0.0,0.0,0.0,0.0,0.013795343227684498,-0.012014320120215416,0.020058244466781616,0.0,0.0,0.0,0.0,0.0,0.0,0.0,0.0,0.0
1606987404583043951,1166164,1606983803164029470,imu_link,0.008067335933446884,0.011931645683944225,0.49048277735710144,0.8713319301605225,0.0,0.0,0.0,0.0,0.0,0.0,0.0,0.0,0.0,58.76082992553711,0.7379366159439087,1.4764074087142944,0.0,0.0,0.0,0.0,0.0,0.0,0.0,0.0,0.0,0.013795343227684498,-0.012014320120215416,0.020058244466781616,0.0,0.0,0.0,0.0,0.0,0.0,0.0,0.0,0.0
1606987404583070599,1166165,1606983803164102568,imu_link,0.008067086338996887,0.011932349763810635,0.4904826581478119,0.8713319897651672,0.0,0.0,0.0,0.0,0.0,0.0,0.0,0.0,0.0,58.76081848144531,0.738021194934845,1.4764221906661987,0.0,0.0,0.0,0.0,0.0,0.0,0.0,0.0,0.0,0.007180617656558752,-0.011296883225440979,0.029284393414855003,0.0,0.0,0.0,0.0,0.0,0.0,0.0,0.0,0.0
1606987404589459023,1166166,1606983803176173447,imu_link,0.008067086338996887,0.011932349763810635,0.4904826581478119,0.8713319897651672,0.0,0.0,0.0,0.0,0.0,0.0,0.0,0.0,0.0,58.76081848144531,0.738021194934845,1.4764221906661987,0.0,0.0,0.0,0.0,0.0,0.0,0.0,0.0,0.0,0.007180617656558752,-0.011296883225440979,0.029284393414855003,0.0,0.0,0.0,0.0,0.0,0.0,0.0,0.0,0.0
1606987404589565896,1166167,1606983803176304554,imu_link,0.008069953881204128,0.011933939531445503,0.4904826283454895,0.8713319897651672,0.0,0.0,0.0,0.0,0.0,0.0,0.0,0.0,0.0,58.76081848144531,0.7380187511444092,1.4767978191375732,0.0,0.0,0.0,0.0,0.0,0.0,0.0,0.0,0.0,0.0013360108714550734,0.00650720065459609,0.017562728375196457,0.0,0.0,0.0,0.0,0.0,0.0,0.0,0.0,0.0
1606987404589580634,1166168,1606983803176436888,imu_link,0.008069953881204128,0.011933939531445503,0.4904826283454895,0.8713319897651672,0.0,0.0,0.0,0.0,0.0,0.0,0.0,0.0,0.0,58.76081848144531,0.7380187511444092,1.4767978191375732,0.0,0.0,0.0,0.0,0.0,0.0,0.0,0.0,0.0,0.0013360108714550734,0.00650720065459609,0.017562728375196457,0.0,0.0,0.0,0.0,0.0,0.0,0.0,0.0,0.0
1606987404589610028,1166169,1606983803176516641,imu_link,0.008069243282079697,0.01193542405962944,0.4904804527759552,0.8713330626487732,0.0,0.0,0.0,0.0,0.0,0.0,0.0,0.0,0.0,58.760536193847656,0.7382104992866516,1.4768086671829224,0.0,0.0,0.0,0.0,0.0,0.0,0.0,0.0,0.0,0.0013154051266610622,0.021454470232129097,0.012863756157457829,0.0,0.0,0.0,0.0,0.0,0.0,0.0,0.0,0.0
1606987404589643292,1166170,1606983803176589949,imu_link,0.008069243282079697,0.01193542405962944,0.4904804527759552,0.8713330626487732,0.0,0.0,0.0,0.0,0.0,0.0,0.0,0.0,0.0,58.760536193847656,0.7382104992866516,1.4768086671829224,0.0,0.0,0.0,0.0,0.0,0.0,0.0,0.0,0.0,0.0013154051266610622,0.021454470232129097,0.012863756157457829,0.0,0.0,0.0,0.0,0.0,0.0,0.0,0.0,0.0
1606987404595619947,1166171,1606983803176681097,imu_link,0.008063899353146553,0.01193228829652071,0.4904813766479492,0.8713327050209045,0.0,0.0,0.0,0.0,0.0,0.0,0.0,0.0,0.0,58.76064682006836,0.7381963729858398,1.4760993719100952,0.0,0.0,0.0,0.0,0.0,0.0,0.0,0.0,0.0,0.014400620013475418,0.011484089307487011,0.03309418261051178,0.0,0.0,0.0,0.0,0.0,0.0,0.0,0.0,0.0
1606987404595645369,1166172,1606983803176758164,imu_link,0.008063899353146553,0.01193228829652071,0.4904813766479492,0.8713327050209045,0.0,0.0,0.0,0.0,0.0,0.0,0.0,0.0,0.0,58.76064682006836,0.7381963729858398,1.4760993719100952,0.0,0.0,0.0,0.0,0.0,0.0,0.0,0.0,0.0,0.014400620013475418,0.011484089307487011,0.03309418261051178,0.0,0.0,0.0,0.0,0.0,0.0,0.0,0.0,0.0
1606987404595664299,1166173,1606983803176871289,imu_link,0.00806370098143816,0.011931871995329857,0.4904826581478119,0.8713319897651672,0.0,0.0,0.0,0.0,0.0,0.0,0.0,0.0,0.0,58.76081085205078,0.7381638288497925,1.4760571718215942,0.0,0.0,0.0,0.0,0.0,0.0,0.0,0.0,0.0,0.013699792325496674,-0.01189983356744051,0.04493905231356621,0.0,0.0,0.0,0.0,0.0,0.0,0.0,0.0,0.0
1606987404595702127,1166174,1606983803176948596,imu_link,0.00806370098143816,0.011931871995329857,0.4904826581478119,0.8713319897651672,0.0,0.0,0.0,0.0,0.0,0.0,0.0,0.0,0.0,58.76081085205078,0.7381638288497925,1.4760571718215942,0.0,0.0,0.0,0.0,0.0,0.0,0.0,0.0,0.0,0.013699792325496674,-0.01189983356744051,0.04493905231356621,0.0,0.0,0.0,0.0,0.0,0.0,0.0,0.0,0.0
1606987404632873977,1166175,1606983803177027820,imu_link,0.008061527274549007,0.011934083886444569,0.49048399925231934,0.8713312149047852,0.0,0.0,0.0,0.0,0.0,0.0,0.0,0.0,0.0,58.760990142822266,0.7385045289993286,1.4759657382965088,0.0,0.0,0.0,0.0,0.0,0.0,0.0,0.0,0.0,0.013323494233191013,-0.012827031314373016,0.0367102175951004,0.0,0.0,0.0,0.0,0.0,0.0,0.0,0.0,0.0
1606987404632892837,1166176,1606983803190039795,imu_link,0.008061527274549007,0.011934083886444569,0.49048399925231934,0.8713312149047852,0.0,0.0,0.0,0.0,0.0,0.0,0.0,0.0,0.0,58.760990142822266,0.7385045289993286,1.4759657382965088,0.0,0.0,0.0,0.0,0.0,0.0,0.0,0.0,0.0,0.013323494233191013,-0.012827031314373016,0.0367102175951004,0.0,0.0,0.0,0.0,0.0,0.0,0.0,0.0,0.0
1606987404632899695,1166177,1606983803190183849,imu_link,0.008063603192567825,0.01193436048924923,0.490485280752182,0.8713304996490479,0.0,0.0,0.0,0.0,0.0,0.0,0.0,0.0,0.0,58.76115798950195,0.7384133338928223,1.4761897325515747,0.0,0.0,0.0,0.0,0.0,0.0,0.0,0.0,0.0,0.00856746919453144,-0.009286776185035706,0.023649130016565323,0.0,0.0,0.0,0.0,0.0,0.0,0.0,0.0,0.0
1606987404632916013,1166178,1606983803190327882,imu_link,0.008063603192567825,0.01193436048924923,0.490485280752182,0.8713304996490479,0.0,0.0,0.0,0.0,0.0,0.0,0.0,0.0,0.0,58.76115798950195,0.7384133338928223,1.4761897325515747,0.0,0.0,0.0,0.0,0.0,0.0,0.0,0.0,0.0,0.00856746919453144,-0.009286776185035706,0.023649130016565323,0.0,0.0,0.0,0.0,0.0,0.0,0.0,0.0,0.0
1606987404640068610,1166179,1606983803190427929,imu_link,0.00806680228561163,0.011937099508941174,0.49048513174057007,0.8713304996490479,0.0,0.0,0.0,0.0,0.0,0.0,0.0,0.0,0.0,58.76115417480469,0.738507091999054,1.4766631126403809,0.0,0.0,0.0,0.0,0.0,0.0,0.0,0.0,0.0,-0.010207649320363998,-0.009047872386872768,0.029140658676624298,0.0,0.0,0.0,0.0,0.0,0.0,0.0,0.0,0.0
1606987404640127064,1166180,1606983803190510054,imu_link,0.00806680228561163,0.011937099508941174,0.49048513174057007,0.8713304996490479,0.0,0.0,0.0,0.0,0.0,0.0,0.0,0.0,0.0,58.76115417480469,0.738507091999054,1.4766631126403809,0.0,0.0,0.0,0.0,0.0,0.0,0.0,0.0,0.0,-0.010207649320363998,-0.009047872386872768,0.029140658676624298,0.0,0.0,0.0,0.0,0.0,0.0,0.0,0.0,0.0
1606987404640137350,1166181,1606983803190599947,imu_link,0.008066704496741295,0.0119358254596591,0.49048668146133423,0.871329665184021,0.0,0.0,0.0,0.0,0.0,0.0,0.0,0.0,0.0,58.761348724365234,0.7383828163146973,1.4765828847885132,0.0,0.0,0.0,0.0,0.0,0.0,0.0,0.0,0.0,-0.0020694774575531483,-0.012048841454088688,0.041977737098932266,0.0,0.0,0.0,0.0,0.0,0.0,0.0,0.0,0.0
1606987404640156651,1166182,1606983803190701126,imu_link,0.008066704496741295,0.0119358254596591,0.49048668146133423,0.871329665184021,0.0,0.0,0.0,0.0,0.0,0.0,0.0,0.0,0.0,58.761348724365234,0.7383828163146973,1.4765828847885132,0.0,0.0,0.0,0.0,0.0,0.0,0.0,0.0,0.0,-0.0020694774575531483,-0.012048841454088688,0.041977737098932266,0.0,0.0,0.0,0.0,0.0,0.0,0.0,0.0,0.0
1606987404640171518,1166183,1606983803190784138,imu_link,0.008071322925388813,0.011936087161302567,0.4904880225658417,0.8713288307189941,0.0,0.0,0.0,0.0,0.0,0.0,0.0,0.0,0.0,58.76153564453125,0.738146960735321,1.477060079574585,0.0,0.0,0.0,0.0,0.0,0.0,0.0,0.0,0.0,0.005095852073282003,-0.007856789045035839,0.04245821759104729,0.0,0.0,0.0,0.0,0.0,0.0,0.0,0.0,0.0
1606987404645018063,1166184,1606983803190867411,imu_link,0.008071322925388813,0.011936087161302567,0.4904880225658417,0.8713288307189941,0.0,0.0,0.0,0.0,0.0,0.0,0.0,0.0,0.0,58.76153564453125,0.738146960735321,1.477060079574585,0.0,0.0,0.0,0.0,0.0,0.0,0.0,0.0,0.0,0.005095852073282003,-0.007856789045035839,0.04245821759104729,0.0,0.0,0.0,0.0,0.0,0.0,0.0,0.0,0.0
1606987404645062551,1166185,1606983803190982237,imu_link,0.008073901757597923,0.011937033385038376,0.4904877245426178,0.8713289499282837,0.0,0.0,0.0,0.0,0.0,0.0,0.0,0.0,0.0,58.76149368286133,0.7380970120429993,1.4773705005645752,0.0,0.0,0.0,0.0,0.0,0.0,0.0,0.0,0.0,-0.010570292361080647,0.010698461905121803,0.02571985311806202,0.0,0.0,0.0,0.0,0.0,0.0,0.0,0.0,0.0
1606987404645080387,1166186,1606983803191067419,imu_link,0.008073901757597923,0.011937033385038376,0.4904877245426178,0.8713289499282837,0.0,0.0,0.0,0.0,0.0,0.0,0.0,0.0,0.0,58.76149368286133,0.7380970120429993,1.4773705005645752,0.0,0.0,0.0,0.0,0.0,0.0,0.0,0.0,0.0,-0.010570292361080647,0.010698461905121803,0.02571985311806202,0.0,0.0,0.0,0.0,0.0,0.0,0.0,0.0,0.0
1606987404645106748,1166187,1606983803203502227,imu_link,0.008073125034570694,0.011934112757444382,0.4904869496822357,0.8713294267654419,0.0,0.0,0.0,0.0,0.0,0.0,0.0,0.0,0.0,58.761383056640625,0.7378503084182739,1.477128028869629,0.0,0.0,0.0,0.0,0.0,0.0,0.0,0.0,0.0,-0.016931800171732903,0.009410666301846504,0.01693381555378437,0.0,0.0,0.0,0.0,0.0,0.0,0.0,0.0,0.0
1606987404668063433,1166188,1606983803203647002,imu_link,0.008073125034570694,0.011934112757444382,0.4904869496822357,0.8713294267654419,0.0,0.0,0.0,0.0,0.0,0.0,0.0,0.0,0.0,58.761383056640625,0.7378503084182739,1.477128028869629,0.0,0.0,0.0,0.0,0.0,0.0,0.0,0.0,0.0,-0.016931800171732903,0.009410666301846504,0.01693381555378437,0.0,0.0,0.0,0.0,0.0,0.0,0.0,0.0,0.0
1606987404668103655,1166189,1606983803203786655,imu_link,0.008073767647147179,0.011931085959076881,0.49048852920532227,0.871328592300415,0.0,0.0,0.0,0.0,0.0,0.0,0.0,0.0,0.0,58.76158905029297,0.7375094294548035,1.4770232439041138,0.0,0.0,0.0,0.0,0.0,0.0,0.0,0.0,0.0,-0.0033693986479192972,0.008797970600426197,0.033813923597335815,0.0,0.0,0.0,0.0,0.0,0.0,0.0,0.0,0.0
1606987404668126984,1166190,1606983803203882682,imu_link,0.008073767647147179,0.011931085959076881,0.49048852920532227,0.871328592300415,0.0,0.0,0.0,0.0,0.0,0.0,0.0,0.0,0.0,58.76158905029297,0.7375094294548035,1.4770232439041138,0.0,0.0,0.0,0.0,0.0,0.0,0.0,0.0,0.0,-0.0033693986479192972,0.008797970600426197,0.033813923597335815,0.0,0.0,0.0,0.0,0.0,0.0,0.0,0.0,0.0
1606987404668147586,1166191,1606983803203967904,imu_link,0.008071568794548512,0.011929148808121681,0.4904889166355133,0.8713284134864807,0.0,0.0,0.0,0.0,0.0,0.0,0.0,0.0,0.0,58.76163101196289,0.7374389171600342,1.476694941520691,0.0,0.0,0.0,0.0,0.0,0.0,0.0,0.0,0.0,0.009012272581458092,0.003900366835296154,0.02730190008878708,0.0,0.0,0.0,0.0,0.0,0.0,0.0,0.0,0.0
1606987404668164883,1166192,1606983803204044897,imu_link,0.008071568794548512,0.011929148808121681,0.4904889166355133,0.8713284134864807,0.0,0.0,0.0,0.0,0.0,0.0,0.0,0.0,0.0,58.76163101196289,0.7374389171600342,1.476694941520691,0.0,0.0,0.0,0.0,0.0,0.0,0.0,0.0,0.0,0.009012272581458092,0.003900366835296154,0.02730190008878708,0.0,0.0,0.0,0.0,0.0,0.0,0.0,0.0,0.0
1606987404736200698,1166193,1606983803204143691,imu_link,0.008070326410233974,0.01193054486066103,0.4904901683330536,0.8713276982307434,0.0,0.0,0.0,0.0,0.0,0.0,0.0,0.0,0.0,58.761802673339844,0.7376460433006287,1.4766504764556885,0.0,0.0,0.0,0.0,0.0,0.0,0.0,0.0,0.0,0.010755718685686588,-0.008680661208927631,0.02849496714770794,0.0,0.0,0.0,0.0,0.0,0.0,0.0,0.0,0.0
1606987404736235190,1166194,1606983803204257815,imu_link,0.008070326410233974,0.01193054486066103,0.4904901683330536,0.8713276982307434,0.0,0.0,0.0,0.0,0.0,0.0,0.0,0.0,0.0,58.761802673339844,0.7376460433006287,1.4766504764556885,0.0,0.0,0.0,0.0,0.0,0.0,0.0,0.0,0.0,0.010755718685686588,-0.008680661208927631,0.02849496714770794,0.0,0.0,0.0,0.0,0.0,0.0,0.0,0.0,0.0
1606987404736249477,1166195,1606983803204404460,imu_link,0.008070764131844044,0.011935122311115265,0.49049004912376404,0.8713276982307434,0.0,0.0,0.0,0.0,0.0,0.0,0.0,0.0,0.0,58.76179504394531,0.7380787134170532,1.4769517183303833,0.0,0.0,0.0,0.0,0.0,0.0,0.0,0.0,0.0,-0.006626622285693884,0.0072311218827962875,0.043805260211229324,0.0,0.0,0.0,0.0,0.0,0.0,0.0,0.0,0.0
1606987404736257216,1166196,1606983803204536671,imu_link,0.008070764131844044,0.011935122311115265,0.49049004912376404,0.8713276982307434,0.0,0.0,0.0,0.0,0.0,0.0,0.0,0.0,0.0,58.76179504394531,0.7380787134170532,1.4769517183303833,0.0,0.0,0.0,0.0,0.0,0.0,0.0,0.0,0.0,-0.006626622285693884,0.0072311218827962875,0.043805260211229324,0.0,0.0,0.0,0.0,0.0,0.0,0.0,0.0,0.0
1606987404744276427,1166197,1606983803204626684,imu_link,0.008070710115134716,0.011935132555663586,0.4904903471469879,0.8713275194168091,0.0,0.0,0.0,0.0,0.0,0.0,0.0,0.0,0.0,58.761837005615234,0.738082230091095,1.4769470691680908,0.0,0.0,0.0,0.0,0.0,0.0,0.0,0.0,0.0,-0.01603499986231327,0.013906472362577915,0.026751747354865074,0.0,0.0,0.0,0.0,0.0,0.0,0.0,0.0,0.0
1606987404744305073,1166198,1606983803217263354,imu_link,0.008070710115134716,0.011935132555663586,0.4904903471469879,0.8713275194168091,0.0,0.0,0.0,0.0,0.0,0.0,0.0,0.0,0.0,58.761837005615234,0.738082230091095,1.4769470691680908,0.0,0.0,0.0,0.0,0.0,0.0,0.0,0.0,0.0,-0.01603499986231327,0.013906472362577915,0.026751747354865074,0.0,0.0,0.0,0.0,0.0,0.0,0.0,0.0,0.0
1606987404744353964,1166199,1606983803217403859,imu_link,0.008071433752775192,0.011929092928767204,0.4904910624027252,0.8713272213935852,0.0,0.0,0.0,0.0,0.0,0.0,0.0,0.0,0.0,58.76190948486328,0.7374373078346252,1.4766801595687866,0.0,0.0,0.0,0.0,0.0,0.0,0.0,0.0,0.0,-0.006899103056639433,-0.010963669046759605,0.010554046370089054,0.0,0.0,0.0,0.0,0.0,0.0,0.0,0.0,0.0
1606987404744365164,1166200,1606983803217545712,imu_link,0.008071433752775192,0.011929092928767204,0.4904910624027252,0.8713272213935852,0.0,0.0,0.0,0.0,0.0,0.0,0.0,0.0,0.0,58.76190948486328,0.7374373078346252,1.4766801595687866,0.0,0.0,0.0,0.0,0.0,0.0,0.0,0.0,0.0,-0.006899103056639433,-0.010963669046759605,0.010554046370089054,0.0,0.0,0.0,0.0,0.0,0.0,0.0,0.0,0.0
1606987404744384043,1166201,1606983803217640577,imu_link,0.008071601390838623,0.011927027255296707,0.4904910922050476,0.8713272213935852,0.0,0.0,0.0,0.0,0.0,0.0,0.0,0.0,0.0,58.76191711425781,0.7372215986251831,1.4765807390213013,0.0,0.0,0.0,0.0,0.0,0.0,0.0,0.0,0.0,-0.01275249756872654,-0.019849367439746857,0.013887668959796429,0.0,0.0,0.0,0.0,0.0,0.0,0.0,0.0,0.0
1606987404751237745,1166202,1606983803217726897,imu_link,0.008071601390838623,0.011927027255296707,0.4904910922050476,0.8713272213935852,0.0,0.0,0.0,0.0,0.0,0.0,0.0,0.0,0.0,58.76191711425781,0.7372215986251831,1.4765807390213013,0.0,0.0,0.0,0.0,0.0,0.0,0.0,0.0,0.0,-0.01275249756872654,-0.019849367439746857,0.013887668959796429,0.0,0.0,0.0,0.0,0.0,0.0,0.0,0.0,0.0
1606987404751263342,1166203,1606983803217805564,imu_link,0.008075738325715065,0.011924979276955128,0.49049022793769836,0.8713276982307434,0.0,0.0,0.0,0.0,0.0,0.0,0.0,0.0,0.0,58.761802673339844,0.7367860078811646,1.4768779277801514,0.0,0.0,0.0,0.0,0.0,0.0,0.0,0.0,0.0,0.005426415707916021,-0.00952476728707552,0.03462469205260277,0.0,0.0,0.0,0.0,0.0,0.0,0.0,0.0,0.0
1606987404751281922,1166204,1606983803217904658,imu_link,0.008075738325715065,0.011924979276955128,0.49049022793769836,0.8713276982307434,0.0,0.0,0.0,0.0,0.0,0.0,0.0,0.0,0.0,58.761802673339844,0.7367860078811646,1.4768779277801514,0.0,0.0,0.0,0.0,0.0,0.0,0.0,0.0,0.0,0.005426415707916021,-0.00952476728707552,0.03462469205260277,0.0,0.0,0.0,0.0,0.0,0.0,0.0,0.0,0.0
1606987404751299891,1166205,1606983803217987921,imu_link,0.008076001890003681,0.01192353293299675,0.49049127101898193,0.8713271617889404,0.0,0.0,0.0,0.0,0.0,0.0,0.0,0.0,0.0,58.761932373046875,0.736625075340271,1.4768236875534058,0.0,0.0,0.0,0.0,0.0,0.0,0.0,0.0,0.0,0.016368309035897255,-0.023788489401340485,0.047717317938804626,0.0,0.0,0.0,0.0,0.0,0.0,0.0,0.0,0.0
1606987404755699013,1166206,1606983803218067821,imu_link,0.008076001890003681,0.01192353293299675,0.49049127101898193,0.8713271617889404,0.0,0.0,0.0,0.0,0.0,0.0,0.0,0.0,0.0,58.761932373046875,0.736625075340271,1.4768236875534058,0.0,0.0,0.0,0.0,0.0,0.0,0.0,0.0,0.0,0.016368309035897255,-0.023788489401340485,0.047717317938804626,0.0,0.0,0.0,0.0,0.0,0.0,0.0,0.0,0.0
1606987404755727662,1166207,1606983803218146879,imu_link,0.008079606108367443,0.011928655207157135,0.4904932379722595,0.8713259696960449,0.0,0.0,0.0,0.0,0.0,0.0,0.0,0.0,0.0,58.762203216552734,0.7369305491447449,1.4774736166000366,0.0,0.0,0.0,0.0,0.0,0.0,0.0,0.0,0.0,0.00018481616280041635,-0.024675751104950905,0.03334531933069229,0.0,0.0,0.0,0.0,0.0,0.0,0.0,0.0,0.0
1606987404755781862,1166208,1606983803218228603,imu_link,0.008079606108367443,0.011928655207157135,0.4904932379722595,0.8713259696960449,0.0,0.0,0.0,0.0,0.0,0.0,0.0,0.0,0.0,58.762203216552734,0.7369305491447449,1.4774736166000366,0.0,0.0,0.0,0.0,0.0,0.0,0.0,0.0,0.0,0.00018481616280041635,-0.024675751104950905,0.03334531933069229,0.0,0.0,0.0,0.0,0.0,0.0,0.0,0.0,0.0
1606987404755804745,1166209,1606983803230732360,imu_link,0.008080295287072659,0.011925246566534042,0.4904930889606476,0.8713260889053345,0.0,0.0,0.0,0.0,0.0,0.0,0.0,0.0,0.0,58.762176513671875,0.7365516424179077,1.4773503541946411,0.0,0.0,0.0,0.0,0.0,0.0,0.0,0.0,0.0,-0.009169870987534523,0.011942575685679913,0.022619640454649925,0.0,0.0,0.0,0.0,0.0,0.0,0.0,0.0,0.0
1606987404755824107,1166210,1606983803230879691,imu_link,0.008080295287072659,0.011925246566534042,0.4904930889606476,0.8713260889053345,0.0,0.0,0.0,0.0,0.0,0.0,0.0,0.0,0.0,58.762176513671875,0.7365516424179077,1.4773503541946411,0.0,0.0,0.0,0.0,0.0,0.0,0.0,0.0,0.0,-0.009169870987534523,0.011942575685679913,0.022619640454649925,0.0,0.0,0.0,0.0,0.0,0.0,0.0,0.0,0.0
1606987404799462553,1166211,1606983803231014463,imu_link,0.00807826966047287,0.011924028396606445,0.4904933571815491,0.8713259696960449,0.0,0.0,0.0,0.0,0.0,0.0,0.0,0.0,0.0,58.762203216552734,0.7365434765815735,1.4770798683166504,0.0,0.0,0.0,0.0,0.0,0.0,0.0,0.0,0.0,-0.0077880066819489,0.023788612335920334,0.0260576531291008,0.0,0.0,0.0,0.0,0.0,0.0,0.0,0.0,0.0
1606987404799485085,1166212,1606983803231105714,imu_link,0.00807826966047287,0.011924028396606445,0.4904933571815491,0.8713259696960449,0.0,0.0,0.0,0.0,0.0,0.0,0.0,0.0,0.0,58.762203216552734,0.7365434765815735,1.4770798683166504,0.0,0.0,0.0,0.0,0.0,0.0,0.0,0.0,0.0,-0.0077880066819489,0.023788612335920334,0.0260576531291008,0.0,0.0,0.0,0.0,0.0,0.0,0.0,0.0,0.0
1606987404799505002,1166213,1606983803231193152,imu_link,0.008081038482487202,0.011922955513000488,0.4904926121234894,0.8713263869285583,0.0,0.0,0.0,0.0,0.0,0.0,0.0,0.0,0.0,58.76210021972656,0.7362820506095886,1.4772952795028687,0.0,0.0,0.0,0.0,0.0,0.0,0.0,0.0,0.0,-0.00047373183770105243,0.01853213645517826,0.03947626054286957,0.0,0.0,0.0,0.0,0.0,0.0,0.0,0.0,0.0
1606987404799528199,1166214,1606983803231293975,imu_link,0.008081038482487202,0.011922955513000488,0.4904926121234894,0.8713263869285583,0.0,0.0,0.0,0.0,0.0,0.0,0.0,0.0,0.0,58.76210021972656,0.7362820506095886,1.4772952795028687,0.0,0.0,0.0,0.0,0.0,0.0,0.0,0.0,0.0,-0.00047373183770105243,0.01853213645517826,0.03947626054286957,0.0,0.0,0.0,0.0,0.0,0.0,0.0,0.0,0.0
1606987404804769610,1166215,1606983803231375198,imu_link,0.008080677129328251,0.01192013081163168,0.49049293994903564,0.8713262677192688,0.0,0.0,0.0,0.0,0.0,0.0,0.0,0.0,0.0,58.762142181396484,0.7360197901725769,1.4771007299423218,0.0,0.0,0.0,0.0,0.0,0.0,0.0,0.0,0.0,0.0049937330186367035,0.020513830706477165,0.03065125085413456,0.0,0.0,0.0,0.0,0.0,0.0,0.0,0.0,0.0
1606987404804794507,1166216,1606983803231455439,imu_link,0.008080677129328251,0.01192013081163168,0.49049293994903564,0.8713262677192688,0.0,0.0,0.0,0.0,0.0,0.0,0.0,0.0,0.0,58.762142181396484,0.7360197901725769,1.4771007299423218,0.0,0.0,0.0,0.0,0.0,0.0,0.0,0.0,0.0,0.0049937330186367035,0.020513830706477165,0.03065125085413456,0.0,0.0,0.0,0.0,0.0,0.0,0.0,0.0,0.0
1606987404804808267,1166217,1606983803231536757,imu_link,0.008082110434770584,0.01191950123757124,0.4904918372631073,0.871326744556427,0.0,0.0,0.0,0.0,0.0,0.0,0.0,0.0,0.0,58.762001037597656,0.7358781099319458,1.4772075414657593,0.0,0.0,0.0,0.0,0.0,0.0,0.0,0.0,0.0,-0.0013451410923153162,0.011363815516233444,0.021680980920791626,0.0,0.0,0.0,0.0,0.0,0.0,0.0,0.0,0.0
1606987404804821002,1166218,1606983803231617779,imu_link,0.008082110434770584,0.01191950123757124,0.4904918372631073,0.871326744556427,0.0,0.0,0.0,0.0,0.0,0.0,0.0,0.0,0.0,58.762001037597656,0.7358781099319458,1.4772075414657593,0.0,0.0,0.0,0.0,0.0,0.0,0.0,0.0,0.0,-0.0013451410923153162,0.011363815516233444,0.021680980920791626,0.0,0.0,0.0,0.0,0.0,0.0,0.0,0.0,0.0
1606987404804831082,1166219,1606983803231699108,imu_link,0.008081169798970222,0.011918238364160061,0.49049344658851624,0.8713259696960449,0.0,0.0,0.0,0.0,0.0,0.0,0.0,0.0,0.0,58.762203216552734,0.7358022332191467,1.477043867111206,0.0,0.0,0.0,0.0,0.0,0.0,0.0,0.0,0.0,-0.0037327930331230164,-0.006171134300529957,0.03439471870660782,0.0,0.0,0.0,0.0,0.0,0.0,0.0,0.0,0.0
1606987404811902234,1166220,1606983803243633492,imu_link,0.008081169798970222,0.011918238364160061,0.49049344658851624,0.8713259696960449,0.0,0.0,0.0,0.0,0.0,0.0,0.0,0.0,0.0,58.762203216552734,0.7358022332191467,1.477043867111206,0.0,0.0,0.0,0.0,0.0,0.0,0.0,0.0,0.0,-0.0037327930331230164,-0.006171134300529957,0.03439471870660782,0.0,0.0,0.0,0.0,0.0,0.0,0.0,0.0,0.0
1606987404811927550,1166221,1606983803243773662,imu_link,0.008081100881099701,0.01191767118871212,0.4904935359954834,0.8713259696960449,0.0,0.0,0.0,0.0,0.0,0.0,0.0,0.0,0.0,58.762210845947266,0.7357494235038757,1.477005124092102,0.0,0.0,0.0,0.0,0.0,0.0,0.0,0.0,0.0,0.008808547630906105,-0.0018306330312043428,0.0394117571413517,0.0,0.0,0.0,0.0,0.0,0.0,0.0,0.0,0.0
1606987404811959484,1166222,1606983803243868702,imu_link,0.008081100881099701,0.01191767118871212,0.4904935359954834,0.8713259696960449,0.0,0.0,0.0,0.0,0.0,0.0,0.0,0.0,0.0,58.762210845947266,0.7357494235038757,1.477005124092102,0.0,0.0,0.0,0.0,0.0,0.0,0.0,0.0,0.0,0.008808547630906105,-0.0018306330312043428,0.0394117571413517,0.0,0.0,0.0,0.0,0.0,0.0,0.0,0.0,0.0
1606987404811974089,1166223,1606983803243964919,imu_link,0.008081354200839996,0.01191904116421938,0.49049457907676697,0.8713252544403076,0.0,0.0,0.0,0.0,0.0,0.0,0.0,0.0,0.0,58.762359619140625,0.7358700037002563,1.477108359336853,0.0,0.0,0.0,0.0,0.0,0.0,0.0,0.0,0.0,0.013667851686477661,0.0029776287265121937,0.05333879590034485,0.0,0.0,0.0,0.0,0.0,0.0,0.0,0.0,0.0
1606987404817061823,1166224,1606983803244054983,imu_link,0.008081354200839996,0.01191904116421938,0.49049457907676697,0.8713252544403076,0.0,0.0,0.0,0.0,0.0,0.0,0.0,0.0,0.0,58.762359619140625,0.7358700037002563,1.477108359336853,0.0,0.0,0.0,0.0,0.0,0.0,0.0,0.0,0.0,0.013667851686477661,0.0029776287265121937,0.05333879590034485,0.0,0.0,0.0,0.0,0.0,0.0,0.0,0.0,0.0
1606987404817184557,1166225,1606983803244152739,imu_link,0.008082687854766846,0.011919774115085602,0.49049681425094604,0.8713240027427673,0.0,0.0,0.0,0.0,0.0,0.0,0.0,0.0,0.0,58.76265335083008,0.7358644604682922,1.4772846698760986,0.0,0.0,0.0,0.0,0.0,0.0,0.0,0.0,0.0,0.001528042834252119,-0.00853864848613739,0.03221073001623154,0.0,0.0,0.0,0.0,0.0,0.0,0.0,0.0,0.0
1606987404817240433,1166226,1606983803244235651,imu_link,0.008082687854766846,0.011919774115085602,0.49049681425094604,0.8713240027427673,0.0,0.0,0.0,0.0,0.0,0.0,0.0,0.0,0.0,58.76265335083008,0.7358644604682922,1.4772846698760986,0.0,0.0,0.0,0.0,0.0,0.0,0.0,0.0,0.0,0.001528042834252119,-0.00853864848613739,0.03221073001623154,0.0,0.0,0.0,0.0,0.0,0.0,0.0,0.0,0.0
1606987404817320661,1166227,1606983803244315892,imu_link,0.008082657121121883,0.011922194622457027,0.4904990792274475,0.8713226914405823,0.0,0.0,0.0,0.0,0.0,0.0,0.0,0.0,0.0,58.76295471191406,0.7361040115356445,1.4774197340011597,0.0,0.0,0.0,0.0,0.0,0.0,0.0,0.0,0.0,0.0015037726843729615,-0.02193833328783512,0.012232440523803234,0.0,0.0,0.0,0.0,0.0,0.0,0.0,0.0,0.0
1606987404817364315,1166228,1606983803244395090,imu_link,0.008082657121121883,0.011922194622457027,0.4904990792274475,0.8713226914405823,0.0,0.0,0.0,0.0,0.0,0.0,0.0,0.0,0.0,58.76295471191406,0.7361040115356445,1.4774197340011597,0.0,0.0,0.0,0.0,0.0,0.0,0.0,0.0,0.0,0.0015037726843729615,-0.02193833328783512,0.012232440523803234,0.0,0.0,0.0,0.0,0.0,0.0,0.0,0.0,0.0
1606987404866166280,1166229,1606983803244476067,imu_link,0.008082871325314045,0.011922032572329044,0.4905000925064087,0.8713221549987793,0.0,0.0,0.0,0.0,0.0,0.0,0.0,0.0,0.0,58.763092041015625,0.7360740900039673,1.4774328470230103,0.0,0.0,0.0,0.0,0.0,0.0,0.0,0.0,0.0,0.027052568271756172,-0.025993188843131065,0.03639596700668335,0.0,0.0,0.0,0.0,0.0,0.0,0.0,0.0,0.0
1606987404866188776,1166230,1606983803257399501,imu_link,0.008082871325314045,0.011922032572329044,0.4905000925064087,0.8713221549987793,0.0,0.0,0.0,0.0,0.0,0.0,0.0,0.0,0.0,58.763092041015625,0.7360740900039673,1.4774328470230103,0.0,0.0,0.0,0.0,0.0,0.0,0.0,0.0,0.0,0.027052568271756172,-0.025993188843131065,0.03639596700668335,0.0,0.0,0.0,0.0,0.0,0.0,0.0,0.0,0.0
1606987404866202457,1166231,1606983803257548290,imu_link,0.008083251304924488,0.011924300342798233,0.49050137400627136,0.8713213801383972,0.0,0.0,0.0,0.0,0.0,0.0,0.0,0.0,0.0,58.76326370239258,0.7362769842147827,1.4775993824005127,0.0,0.0,0.0,0.0,0.0,0.0,0.0,0.0,0.0,0.023974794894456863,-0.006623400375247002,0.044425446540117264,0.0,0.0,0.0,0.0,0.0,0.0,0.0,0.0,0.0
1606987404866212420,1166232,1606983803257637076,imu_link,0.008083251304924488,0.011924300342798233,0.49050137400627136,0.8713213801383972,0.0,0.0,0.0,0.0,0.0,0.0,0.0,0.0,0.0,58.76326370239258,0.7362769842147827,1.4775993824005127,0.0,0.0,0.0,0.0,0.0,0.0,0.0,0.0,0.0,0.023974794894456863,-0.006623400375247002,0.044425446540117264,0.0,0.0,0.0,0.0,0.0,0.0,0.0,0.0,0.0
1606987404905393683,1166233,1606983803257721241,imu_link,0.008082970045506954,0.01192723773419857,0.4904994070529938,0.8713224530220032,0.0,0.0,0.0,0.0,0.0,0.0,0.0,0.0,0.0,58.76301574707031,0.7365893721580505,1.4777348041534424,0.0,0.0,0.0,0.0,0.0,0.0,0.0,0.0,0.0,0.003882248420268297,0.007993863895535469,0.03418071195483208,0.0,0.0,0.0,0.0,0.0,0.0,0.0,0.0,0.0
1606987404905429087,1166234,1606983803257820295,imu_link,0.008082970045506954,0.01192723773419857,0.4904994070529938,0.8713224530220032,0.0,0.0,0.0,0.0,0.0,0.0,0.0,0.0,0.0,58.76301574707031,0.7365893721580505,1.4777348041534424,0.0,0.0,0.0,0.0,0.0,0.0,0.0,0.0,0.0,0.003882248420268297,0.007993863895535469,0.03418071195483208,0.0,0.0,0.0,0.0,0.0,0.0,0.0,0.0,0.0
1606987404905456959,1166235,1606983803257900210,imu_link,0.008080001920461655,0.011928482912480831,0.4905007779598236,0.8713216781616211,0.0,0.0,0.0,0.0,0.0,0.0,0.0,0.0,0.0,58.7631950378418,0.7368782162666321,1.477509617805481,0.0,0.0,0.0,0.0,0.0,0.0,0.0,0.0,0.0,-0.0017627507913857698,0.0016095915343612432,0.025400899350643158,0.0,0.0,0.0,0.0,0.0,0.0,0.0,0.0,0.0
1606987404905465218,1166236,1606983803258048548,imu_link,0.008080001920461655,0.011928482912480831,0.4905007779598236,0.8713216781616211,0.0,0.0,0.0,0.0,0.0,0.0,0.0,0.0,0.0,58.7631950378418,0.7368782162666321,1.477509617805481,0.0,0.0,0.0,0.0,0.0,0.0,0.0,0.0,0.0,-0.0017627507913857698,0.0016095915343612432,0.025400899350643158,0.0,0.0,0.0,0.0,0.0,0.0,0.0,0.0,0.0
1606987404905473392,1166237,1606983803258136822,imu_link,0.008077156729996204,0.011927507817745209,0.49050161242485046,0.8713212609291077,0.0,0.0,0.0,0.0,0.0,0.0,0.0,0.0,0.0,58.76329803466797,0.7369394302368164,1.4771713018417358,0.0,0.0,0.0,0.0,0.0,0.0,0.0,0.0,0.0,0.00215702666901052,-0.008690426126122475,0.01659412682056427,0.0,0.0,0.0,0.0,0.0,0.0,0.0,0.0,0.0
1606987404911426211,1166238,1606983803258255211,imu_link,0.008077156729996204,0.011927507817745209,0.49050161242485046,0.8713212609291077,0.0,0.0,0.0,0.0,0.0,0.0,0.0,0.0,0.0,58.76329803466797,0.7369394302368164,1.4771713018417358,0.0,0.0,0.0,0.0,0.0,0.0,0.0,0.0,0.0,0.00215702666901052,-0.008690426126122475,0.01659412682056427,0.0,0.0,0.0,0.0,0.0,0.0,0.0,0.0,0.0
1606987404911452532,1166239,1606983803258336956,imu_link,0.008077421225607395,0.011927398853003979,0.4905015528202057,0.8713213205337524,0.0,0.0,0.0,0.0,0.0,0.0,0.0,0.0,0.0,58.76329040527344,0.736913800239563,1.47719144821167,0.0,0.0,0.0,0.0,0.0,0.0,0.0,0.0,0.0,0.012607232667505741,-0.012171704322099686,0.03487509861588478,0.0,0.0,0.0,0.0,0.0,0.0,0.0,0.0,0.0
1606987404911466565,1166240,1606983803258460562,imu_link,0.008077421225607395,0.011927398853003979,0.4905015528202057,0.8713213205337524,0.0,0.0,0.0,0.0,0.0,0.0,0.0,0.0,0.0,58.76329040527344,0.736913800239563,1.47719144821167,0.0,0.0,0.0,0.0,0.0,0.0,0.0,0.0,0.0,0.012607232667505741,-0.012171704322099686,0.03487509861588478,0.0,0.0,0.0,0.0,0.0,0.0,0.0,0.0,0.0
1606987404911481224,1166241,1606983803270882024,imu_link,0.008078391663730145,0.011927258223295212,0.49050164222717285,0.8713212609291077,0.0,0.0,0.0,0.0,0.0,0.0,0.0,0.0,0.0,58.76329803466797,0.7368451356887817,1.4772807359695435,0.0,0.0,0.0,0.0,0.0,0.0,0.0,0.0,0.0,0.012013622559607029,-0.004649391397833824,0.041471224278211594,0.0,0.0,0.0,0.0,0.0,0.0,0.0,0.0,0.0
1606987404916144119,1166242,1606983803271065373,imu_link,0.008078391663730145,0.011927258223295212,0.49050164222717285,0.8713212609291077,0.0,0.0,0.0,0.0,0.0,0.0,0.0,0.0,0.0,58.76329803466797,0.7368451356887817,1.4772807359695435,0.0,0.0,0.0,0.0,0.0,0.0,0.0,0.0,0.0,0.012013622559607029,-0.004649391397833824,0.041471224278211594,0.0,0.0,0.0,0.0,0.0,0.0,0.0,0.0,0.0
1606987404916250046,1166243,1606983803271161435,imu_link,0.008078730665147305,0.01192917488515377,0.4905032217502594,0.8713203072547913,0.0,0.0,0.0,0.0,0.0,0.0,0.0,0.0,0.0,58.76351547241211,0.737014651298523,1.4774237871170044,0.0,0.0,0.0,0.0,0.0,0.0,0.0,0.0,0.0,0.012406130321323872,-0.00026074476772919297,0.02854042686522007,0.0,0.0,0.0,0.0,0.0,0.0,0.0,0.0,0.0
1606987404916279066,1166244,1606983803271253453,imu_link,0.008078730665147305,0.01192917488515377,0.4905032217502594,0.8713203072547913,0.0,0.0,0.0,0.0,0.0,0.0,0.0,0.0,0.0,58.76351547241211,0.737014651298523,1.4774237871170044,0.0,0.0,0.0,0.0,0.0,0.0,0.0,0.0,0.0,0.012406130321323872,-0.00026074476772919297,0.02854042686522007,0.0,0.0,0.0,0.0,0.0,0.0,0.0,0.0,0.0
1606987404916296749,1166245,1606983803271349982,imu_link,0.00807751715183258,0.011927136220037937,0.49050411581993103,0.8713198304176331,0.0,0.0,0.0,0.0,0.0,0.0,0.0,0.0,0.0,58.76362991333008,0.7368777990341187,1.4771887063980103,0.0,0.0,0.0,0.0,0.0,0.0,0.0,0.0,0.0,0.007814156822860241,-0.012777230702340603,0.03982359170913696,0.0,0.0,0.0,0.0,0.0,0.0,0.0,0.0,0.0
1606987404916311546,1166246,1606983803271429541,imu_link,0.00807751715183258,0.011927136220037937,0.49050411581993103,0.8713198304176331,0.0,0.0,0.0,0.0,0.0,0.0,0.0,0.0,0.0,58.76362991333008,0.7368777990341187,1.4771887063980103,0.0,0.0,0.0,0.0,0.0,0.0,0.0,0.0,0.0,0.007814156822860241,-0.012777230702340603,0.03982359170913696,0.0,0.0,0.0,0.0,0.0,0.0,0.0,0.0,0.0
1606987405009353836,1166247,1606983803271575799,imu_link,0.008078275248408318,0.011930510401725769,0.49050721526145935,0.8713180422782898,0.0,0.0,0.0,0.0,0.0,0.0,0.0,0.0,0.0,58.764041900634766,0.7371667623519897,1.4774569272994995,0.0,0.0,0.0,0.0,0.0,0.0,0.0,0.0,0.0,-0.002886557951569557,-0.007032517809420824,0.034577589482069016,0.0,0.0,0.0,0.0,0.0,0.0,0.0,0.0,0.0
1606987405009382591,1166248,1606983803271659994,imu_link,0.008078275248408318,0.011930510401725769,0.49050721526145935,0.8713180422782898,0.0,0.0,0.0,0.0,0.0,0.0,0.0,0.0,0.0,58.764041900634766,0.7371667623519897,1.4774569272994995,0.0,0.0,0.0,0.0,0.0,0.0,0.0,0.0,0.0,-0.002886557951569557,-0.007032517809420824,0.034577589482069016,0.0,0.0,0.0,0.0,0.0,0.0,0.0,0.0,0.0
1606987405009401609,1166249,1606983803271775461,imu_link,0.008077570237219334,0.011928601190447807,0.490507036447525,0.8713181614875793,0.0,0.0,0.0,0.0,0.0,0.0,0.0,0.0,0.0,58.76402282714844,0.7370160818099976,1.4772790670394897,0.0,0.0,0.0,0.0,0.0,0.0,0.0,0.0,0.0,-0.01752808876335621,0.01631973870098591,0.05422978848218918,0.0,0.0,0.0,0.0,0.0,0.0,0.0,0.0,0.0
1606987405009418654,1166250,1606983803271856810,imu_link,0.008077570237219334,0.011928601190447807,0.490507036447525,0.8713181614875793,0.0,0.0,0.0,0.0,0.0,0.0,0.0,0.0,0.0,58.76402282714844,0.7370160818099976,1.4772790670394897,0.0,0.0,0.0,0.0,0.0,0.0,0.0,0.0,0.0,-0.01752808876335621,0.01631973870098591,0.05422978848218918,0.0,0.0,0.0,0.0,0.0,0.0,0.0,0.0,0.0
1606987405042761230,1166251,1606983803271992875,imu_link,0.008076777681708336,0.01192589569836855,0.4905088543891907,0.8713171482086182,0.0,0.0,0.0,0.0,0.0,0.0,0.0,0.0,0.0,58.764251708984375,0.7367874383926392,1.4770489931106567,0.0,0.0,0.0,0.0,0.0,0.0,0.0,0.0,0.0,-0.026272203773260117,0.02150600589811802,0.06449755281209946,0.0,0.0,0.0,0.0,0.0,0.0,0.0,0.0,0.0
1606987405042795008,1166252,1606983803284633714,imu_link,0.008076777681708336,0.01192589569836855,0.4905088543891907,0.8713171482086182,0.0,0.0,0.0,0.0,0.0,0.0,0.0,0.0,0.0,58.764251708984375,0.7367874383926392,1.4770489931106567,0.0,0.0,0.0,0.0,0.0,0.0,0.0,0.0,0.0,-0.026272203773260117,0.02150600589811802,0.06449755281209946,0.0,0.0,0.0,0.0,0.0,0.0,0.0,0.0,0.0
1606987405042838336,1166253,1606983803284764141,imu_link,0.008078157901763916,0.011926442384719849,0.4905085861682892,0.8713173270225525,0.0,0.0,0.0,0.0,0.0,0.0,0.0,0.0,0.0,58.764217376708984,0.7367649674415588,1.477217197418213,0.0,0.0,0.0,0.0,0.0,0.0,0.0,0.0,0.0,-0.023236623033881187,0.013986418955028057,0.04720420390367508,0.0,0.0,0.0,0.0,0.0,0.0,0.0,0.0,0.0
1606987405042856274,1166254,1606983803284897420,imu_link,0.008078157901763916,0.011926442384719849,0.4905085861682892,0.8713173270225525,0.0,0.0,0.0,0.0,0.0,0.0,0.0,0.0,0.0,58.764217376708984,0.7367649674415588,1.477217197418213,0.0,0.0,0.0,0.0,0.0,0.0,0.0,0.0,0.0,-0.023236623033881187,0.013986418955028057,0.04720420390367508,0.0,0.0,0.0,0.0,0.0,0.0,0.0,0.0,0.0
1606987405050563492,1166255,1606983803284981524,imu_link,0.008077134378254414,0.011921311728656292,0.4905076324939728,0.8713179230690002,0.0,0.0,0.0,0.0,0.0,0.0,0.0,0.0,0.0,58.76408386230469,0.7363119125366211,1.4768258333206177,0.0,0.0,0.0,0.0,0.0,0.0,0.0,0.0,0.0,-0.01697901263833046,0.011300947517156601,0.042547546327114105,0.0,0.0,0.0,0.0,0.0,0.0,0.0,0.0,0.0
1606987405050618107,1166256,1606983803285110207,imu_link,0.008077134378254414,0.011921311728656292,0.4905076324939728,0.8713179230690002,0.0,0.0,0.0,0.0,0.0,0.0,0.0,0.0,0.0,58.76408386230469,0.7363119125366211,1.4768258333206177,0.0,0.0,0.0,0.0,0.0,0.0,0.0,0.0,0.0,-0.01697901263833046,0.011300947517156601,0.042547546327114105,0.0,0.0,0.0,0.0,0.0,0.0,0.0,0.0,0.0
1606987405050642912,1166257,1606983803285215065,imu_link,0.008077950216829777,0.011920618824660778,0.490509033203125,0.8713171482086182,0.0,0.0,0.0,0.0,0.0,0.0,0.0,0.0,0.0,58.764259338378906,0.7361944317817688,1.4768694639205933,0.0,0.0,0.0,0.0,0.0,0.0,0.0,0.0,0.0,0.0012694299221038818,0.025646694004535675,0.05192817002534866,0.0,0.0,0.0,0.0,0.0,0.0,0.0,0.0,0.0
1606987405050663074,1166258,1606983803285301244,imu_link,0.008077950216829777,0.011920618824660778,0.490509033203125,0.8713171482086182,0.0,0.0,0.0,0.0,0.0,0.0,0.0,0.0,0.0,58.764259338378906,0.7361944317817688,1.4768694639205933,0.0,0.0,0.0,0.0,0.0,0.0,0.0,0.0,0.0,0.0012694299221038818,0.025646694004535675,0.05192817002534866,0.0,0.0,0.0,0.0,0.0,0.0,0.0,0.0,0.0
1606987405050684271,1166259,1606983803285382126,imu_link,0.00807472225278616,0.011919119395315647,0.4905088245868683,0.8713173270225525,0.0,0.0,0.0,0.0,0.0,0.0,0.0,0.0,0.0,58.764225006103516,0.7362266182899475,1.4764626026153564,0.0,0.0,0.0,0.0,0.0,0.0,0.0,0.0,0.0,0.006281956098973751,0.026248175650835037,0.05638698488473892,0.0,0.0,0.0,0.0,0.0,0.0,0.0,0.0,0.0
1606987405089249847,1166260,1606983803285461315,imu_link,0.00807472225278616,0.011919119395315647,0.4905088245868683,0.8713173270225525,0.0,0.0,0.0,0.0,0.0,0.0,0.0,0.0,0.0,58.764225006103516,0.7362266182899475,1.4764626026153564,0.0,0.0,0.0,0.0,0.0,0.0,0.0,0.0,0.0,0.006281956098973751,0.026248175650835037,0.05638698488473892,0.0,0.0,0.0,0.0,0.0,0.0,0.0,0.0,0.0
1606987405089297453,1166261,1606983803285541766,imu_link,0.008073382079601288,0.011919403448700905,0.4905095398426056,0.8713169693946838,0.0,0.0,0.0,0.0,0.0,0.0,0.0,0.0,0.0,58.764320373535156,0.7363291382789612,1.4763453006744385,0.0,0.0,0.0,0.0,0.0,0.0,0.0,0.0,0.0,0.0006824533920735121,0.015665283426642418,0.03182397782802582,0.0,0.0,0.0,0.0,0.0,0.0,0.0,0.0,0.0
1606987405089321495,1166262,1606983803285622899,imu_link,0.008073382079601288,0.011919403448700905,0.4905095398426056,0.8713169693946838,0.0,0.0,0.0,0.0,0.0,0.0,0.0,0.0,0.0,58.764320373535156,0.7363291382789612,1.4763453006744385,0.0,0.0,0.0,0.0,0.0,0.0,0.0,0.0,0.0,0.0006824533920735121,0.015665283426642418,0.03182397782802582,0.0,0.0,0.0,0.0,0.0,0.0,0.0,0.0,0.0
1606987405089349868,1166263,1606983803297585784,imu_link,0.008071360178291798,0.0119184460490942,0.4905092716217041,0.8713170289993286,0.0,0.0,0.0,0.0,0.0,0.0,0.0,0.0,0.0,58.764286041259766,0.7363475561141968,1.4760894775390625,0.0,0.0,0.0,0.0,0.0,0.0,0.0,0.0,0.0,0.009266494773328304,0.015821393579244614,0.029042407870292664,0.0,0.0,0.0,0.0,0.0,0.0,0.0,0.0,0.0
1606987405136998738,1166264,1606983803297727903,imu_link,0.008071360178291798,0.0119184460490942,0.4905092716217041,0.8713170289993286,0.0,0.0,0.0,0.0,0.0,0.0,0.0,0.0,0.0,58.764286041259766,0.7363475561141968,1.4760894775390625,0.0,0.0,0.0,0.0,0.0,0.0,0.0,0.0,0.0,0.009266494773328304,0.015821393579244614,0.029042407870292664,0.0,0.0,0.0,0.0,0.0,0.0,0.0,0.0,0.0
1606987405137031864,1166265,1606983803297830561,imu_link,0.008069935254752636,0.011920774355530739,0.49050989747047424,0.8713167309761047,0.0,0.0,0.0,0.0,0.0,0.0,0.0,0.0,0.0,58.76437759399414,0.7366591691970825,1.4760785102844238,0.0,0.0,0.0,0.0,0.0,0.0,0.0,0.0,0.0,0.003029192565008998,0.01940460316836834,0.029489099979400635,0.0,0.0,0.0,0.0,0.0,0.0,0.0,0.0,0.0
1606987405137049540,1166266,1606983803297920860,imu_link,0.008069935254752636,0.011920774355530739,0.49050989747047424,0.8713167309761047,0.0,0.0,0.0,0.0,0.0,0.0,0.0,0.0,0.0,58.76437759399414,0.7366591691970825,1.4760785102844238,0.0,0.0,0.0,0.0,0.0,0.0,0.0,0.0,0.0,0.003029192565008998,0.01940460316836834,0.029489099979400635,0.0,0.0,0.0,0.0,0.0,0.0,0.0,0.0,0.0
1606987405137063604,1166267,1606983803298023818,imu_link,0.008066296577453613,0.011919500306248665,0.49051007628440857,0.8713167309761047,0.0,0.0,0.0,0.0,0.0,0.0,0.0,0.0,0.0,58.76438903808594,0.7367363572120667,1.4756437540054321,0.0,0.0,0.0,0.0,0.0,0.0,0.0,0.0,0.0,9.101867908611894e-05,0.007483002729713917,0.03207695111632347,0.0,0.0,0.0,0.0,0.0,0.0,0.0,0.0,0.0
1606987405137072208,1166268,1606983803298132505,imu_link,0.008066296577453613,0.011919500306248665,0.49051007628440857,0.8713167309761047,0.0,0.0,0.0,0.0,0.0,0.0,0.0,0.0,0.0,58.76438903808594,0.7367363572120667,1.4756437540054321,0.0,0.0,0.0,0.0,0.0,0.0,0.0,0.0,0.0,9.101867908611894e-05,0.007483002729713917,0.03207695111632347,0.0,0.0,0.0,0.0,0.0,0.0,0.0,0.0,0.0
1606987405143255629,1166269,1606983803298217481,imu_link,0.00806737132370472,0.01191982626914978,0.49051138758659363,0.8713159561157227,0.0,0.0,0.0,0.0,0.0,0.0,0.0,0.0,0.0,58.76456069946289,0.7367061972618103,1.475770354270935,0.0,0.0,0.0,0.0,0.0,0.0,0.0,0.0,0.0,0.012447929941117764,-0.007304935250431299,0.04874063655734062,0.0,0.0,0.0,0.0,0.0,0.0,0.0,0.0,0.0
1606987405143284937,1166270,1606983803298297416,imu_link,0.00806737132370472,0.01191982626914978,0.49051138758659363,0.8713159561157227,0.0,0.0,0.0,0.0,0.0,0.0,0.0,0.0,0.0,58.76456069946289,0.7367061972618103,1.475770354270935,0.0,0.0,0.0,0.0,0.0,0.0,0.0,0.0,0.0,0.012447929941117764,-0.007304935250431299,0.04874063655734062,0.0,0.0,0.0,0.0,0.0,0.0,0.0,0.0,0.0
1606987405143300982,1166271,1606983803298376745,imu_link,0.008069328032433987,0.011922688223421574,0.49051177501678467,0.8713157176971436,0.0,0.0,0.0,0.0,0.0,0.0,0.0,0.0,0.0,58.76461410522461,0.7368812561035156,1.4761271476745605,0.0,0.0,0.0,0.0,0.0,0.0,0.0,0.0,0.0,0.00503088952973485,-0.0002547409385442734,0.02484467253088951,0.0,0.0,0.0,0.0,0.0,0.0,0.0,0.0,0.0
1606987405143318082,1166272,1606983803298509507,imu_link,0.008069328032433987,0.011922688223421574,0.49051177501678467,0.8713157176971436,0.0,0.0,0.0,0.0,0.0,0.0,0.0,0.0,0.0,58.76461410522461,0.7368812561035156,1.4761271476745605,0.0,0.0,0.0,0.0,0.0,0.0,0.0,0.0,0.0,0.00503088952973485,-0.0002547409385442734,0.02484467253088951,0.0,0.0,0.0,0.0,0.0,0.0,0.0,0.0,0.0
1606987405151009427,1166273,1606983803311051433,imu_link,0.008069615811109543,0.011924799531698227,0.49051037430763245,0.8713164329528809,0.0,0.0,0.0,0.0,0.0,0.0,0.0,0.0,0.0,58.76443862915039,0.7370782494544983,1.476273536682129,0.0,0.0,0.0,0.0,0.0,0.0,0.0,0.0,0.0,0.006182937882840633,0.003860798664391041,0.004255259875208139,0.0,0.0,0.0,0.0,0.0,0.0,0.0,0.0,0.0
1606987405151049410,1166274,1606983803311190369,imu_link,0.008069615811109543,0.011924799531698227,0.49051037430763245,0.8713164329528809,0.0,0.0,0.0,0.0,0.0,0.0,0.0,0.0,0.0,58.76443862915039,0.7370782494544983,1.476273536682129,0.0,0.0,0.0,0.0,0.0,0.0,0.0,0.0,0.0,0.006182937882840633,0.003860798664391041,0.004255259875208139,0.0,0.0,0.0,0.0,0.0,0.0,0.0,0.0,0.0
1606987405151066234,1166275,1606983803311303085,imu_link,0.008068634197115898,0.011925357393920422,0.4905107617378235,0.8713161945343018,0.0,0.0,0.0,0.0,0.0,0.0,0.0,0.0,0.0,58.76449966430664,0.7371882796287537,1.4762071371078491,0.0,0.0,0.0,0.0,0.0,0.0,0.0,0.0,0.0,-0.004073970019817352,0.004562405403703451,0.020136412233114243,0.0,0.0,0.0,0.0,0.0,0.0,0.0,0.0,0.0
1606987405151116158,1166276,1606983803311392678,imu_link,0.008068634197115898,0.011925357393920422,0.4905107617378235,0.8713161945343018,0.0,0.0,0.0,0.0,0.0,0.0,0.0,0.0,0.0,58.76449966430664,0.7371882796287537,1.4762071371078491,0.0,0.0,0.0,0.0,0.0,0.0,0.0,0.0,0.0,-0.004073970019817352,0.004562405403703451,0.020136412233114243,0.0,0.0,0.0,0.0,0.0,0.0,0.0,0.0,0.0
1606987405151124856,1166277,1606983803311491040,imu_link,0.008066847920417786,0.011925771832466125,0.4905118942260742,0.8713155388832092,0.0,0.0,0.0,0.0,0.0,0.0,0.0,0.0,0.0,58.76464080810547,0.7373282313346863,1.476053237915039,0.0,0.0,0.0,0.0,0.0,0.0,0.0,0.0,0.0,-0.03761627897620201,0.025779597461223602,0.02656622976064682,0.0,0.0,0.0,0.0,0.0,0.0,0.0,0.0,0.0
1606987405156658499,1166278,1606983803311576022,imu_link,0.008066847920417786,0.011925771832466125,0.4905118942260742,0.8713155388832092,0.0,0.0,0.0,0.0,0.0,0.0,0.0,0.0,0.0,58.76464080810547,0.7373282313346863,1.476053237915039,0.0,0.0,0.0,0.0,0.0,0.0,0.0,0.0,0.0,-0.03761627897620201,0.025779597461223602,0.02656622976064682,0.0,0.0,0.0,0.0,0.0,0.0,0.0,0.0,0.0
1606987405156681442,1166279,1606983803311689845,imu_link,0.008064470253884792,0.011921682395040989,0.4905146360397339,0.8713141083717346,0.0,0.0,0.0,0.0,0.0,0.0,0.0,0.0,0.0,58.76499938964844,0.7370490431785583,1.4755878448486328,0.0,0.0,0.0,0.0,0.0,0.0,0.0,0.0,0.0,-0.04227275773882866,0.03756777569651604,0.028880156576633453,0.0,0.0,0.0,0.0,0.0,0.0,0.0,0.0,0.0
1606987405156724472,1166280,1606983803311771479,imu_link,0.008064470253884792,0.011921682395040989,0.4905146360397339,0.8713141083717346,0.0,0.0,0.0,0.0,0.0,0.0,0.0,0.0,0.0,58.76499938964844,0.7370490431785583,1.4755878448486328,0.0,0.0,0.0,0.0,0.0,0.0,0.0,0.0,0.0,-0.04227275773882866,0.03756777569651604,0.028880156576633453,0.0,0.0,0.0,0.0,0.0,0.0,0.0,0.0,0.0
1606987405156733404,1166281,1606983803311862059,imu_link,0.00806421972811222,0.011920294724404812,0.490514874458313,0.8713139891624451,0.0,0.0,0.0,0.0,0.0,0.0,0.0,0.0,0.0,58.7650260925293,0.7369242310523987,1.47548508644104,0.0,0.0,0.0,0.0,0.0,0.0,0.0,0.0,0.0,-0.014705958776175976,0.016120703890919685,0.015412467531859875,0.0,0.0,0.0,0.0,0.0,0.0,0.0,0.0,0.0
1606987405198112673,1166282,1606983803311941072,imu_link,0.00806421972811222,0.011920294724404812,0.490514874458313,0.8713139891624451,0.0,0.0,0.0,0.0,0.0,0.0,0.0,0.0,0.0,58.7650260925293,0.7369242310523987,1.47548508644104,0.0,0.0,0.0,0.0,0.0,0.0,0.0,0.0,0.0,-0.014705958776175976,0.016120703890919685,0.015412467531859875,0.0,0.0,0.0,0.0,0.0,0.0,0.0,0.0,0.0
1606987405198139483,1166283,1606983803312024906,imu_link,0.008063100278377533,0.011919229291379452,0.4905151128768921,0.8713139295578003,0.0,0.0,0.0,0.0,0.0,0.0,0.0,0.0,0.0,58.765052795410156,0.7368804216384888,1.475313425064087,0.0,0.0,0.0,0.0,0.0,0.0,0.0,0.0,0.0,-0.004984826780855656,0.010674702934920788,-0.012631291523575783,0.0,0.0,0.0,0.0,0.0,0.0,0.0,0.0,0.0
1606987405198149773,1166284,1606983803321935001,imu_link,0.008063100278377533,0.011919229291379452,0.4905151128768921,0.8713139295578003,0.0,0.0,0.0,0.0,0.0,0.0,0.0,0.0,0.0,58.765052795410156,0.7368804216384888,1.475313425064087,0.0,0.0,0.0,0.0,0.0,0.0,0.0,0.0,0.0,-0.004984826780855656,0.010674702934920788,-0.012631291523575783,0.0,0.0,0.0,0.0,0.0,0.0,0.0,0.0,0.0
1606987405198161135,1166285,1606983803322076508,imu_link,0.008063039742410183,0.011919134296476841,0.49051380157470703,0.8713146448135376,0.0,0.0,0.0,0.0,0.0,0.0,0.0,0.0,0.0,58.7648811340332,0.7368765473365784,1.4753010272979736,0.0,0.0,0.0,0.0,0.0,0.0,0.0,0.0,0.0,-0.008549374528229237,0.008974467404186726,0.005613218992948532,0.0,0.0,0.0,0.0,0.0,0.0,0.0,0.0,0.0
1606987405198173523,1166286,1606983803322186438,imu_link,0.008063039742410183,0.011919134296476841,0.49051380157470703,0.8713146448135376,0.0,0.0,0.0,0.0,0.0,0.0,0.0,0.0,0.0,58.7648811340332,0.7368765473365784,1.4753010272979736,0.0,0.0,0.0,0.0,0.0,0.0,0.0,0.0,0.0,-0.008549374528229237,0.008974467404186726,0.005613218992948532,0.0,0.0,0.0,0.0,0.0,0.0,0.0,0.0,0.0
