%time,field.header.seq,field.header.stamp,field.header.frame_id,field.orientation.x,field.orientation.y,field.orientation.z,field.orientation.w,field.orientation_covariance0,field.orientation_covariance1,field.orientation_covariance2,field.orientation_covariance3,field.orientation_covariance4,field.orientation_covariance5,field.orientation_covariance6,field.orientation_covariance7,field.orientation_covariance8,field.angular_velocity.x,field.angular_velocity.y,field.angular_velocity.z,field.angular_velocity_covariance0,field.angular_velocity_covariance1,field.angular_velocity_covariance2,field.angular_velocity_covariance3,field.angular_velocity_covariance4,field.angular_velocity_covariance5,field.angular_velocity_covariance6,field.angular_velocity_covariance7,field.angular_velocity_covariance8,field.linear_acceleration.x,field.linear_acceleration.y,field.linear_acceleration.z,field.linear_acceleration_covariance0,field.linear_acceleration_covariance1,field.linear_acceleration_covariance2,field.linear_acceleration_covariance3,field.linear_acceleration_covariance4,field.linear_acceleration_covariance5,field.linear_acceleration_covariance6,field.linear_acceleration_covariance7,field.linear_acceleration_covariance8
1606986330175790594,307308,1606982729591045826,imu_link,0.0006015574908815324,0.005003109108656645,0.5250145196914673,0.8510783910751343,0.0,0.0,0.0,0.0,0.0,0.0,0.0,0.0,0.0,63.34075164794922,0.4517488479614258,0.3596794903278351,0.0,0.0,0.0,0.0,0.0,0.0,0.0,0.0,0.0,-0.003625406650826335,-0.004543043207377195,0.012713059782981873,0.0,0.0,0.0,0.0,0.0,0.0,0.0,0.0,0.0
1606986330175818685,307309,1606982729591080933,imu_link,0.0005997812259010971,0.0050027682445943356,0.525015652179718,0.851077675819397,0.0,0.0,0.0,0.0,0.0,0.0,0.0,0.0,0.0,63.340904235839844,0.4518219530582428,0.35948628187179565,0.0,0.0,0.0,0.0,0.0,0.0,0.0,0.0,0.0,-0.01315482147037983,-0.007361809257417917,0.013915442861616611,0.0,0.0,0.0,0.0,0.0,0.0,0.0,0.0,0.0
1606986330175852044,307310,1606982729591108494,imu_link,0.0005997812259010971,0.0050027682445943356,0.525015652179718,0.851077675819397,0.0,0.0,0.0,0.0,0.0,0.0,0.0,0.0,0.0,63.340904235839844,0.4518219530582428,0.35948628187179565,0.0,0.0,0.0,0.0,0.0,0.0,0.0,0.0,0.0,-0.01315482147037983,-0.007361809257417917,0.013915442861616611,0.0,0.0,0.0,0.0,0.0,0.0,0.0,0.0,0.0
1606986330175861025,307311,1606982729591138010,imu_link,0.0006025211187079549,0.005001444835215807,0.5250160694122314,0.8510774374008179,0.0,0.0,0.0,0.0,0.0,0.0,0.0,0.0,0.0,63.34095764160156,0.4515278935432434,0.3596741259098053,0.0,0.0,0.0,0.0,0.0,0.0,0.0,0.0,0.0,0.002631579292938113,-0.0014162181178107858,0.007044260855764151,0.0,0.0,0.0,0.0,0.0,0.0,0.0,0.0,0.0
1606986330175870910,307312,1606982729591162953,imu_link,0.0006025211187079549,0.005001444835215807,0.5250160694122314,0.8510774374008179,0.0,0.0,0.0,0.0,0.0,0.0,0.0,0.0,0.0,63.34095764160156,0.4515278935432434,0.3596741259098053,0.0,0.0,0.0,0.0,0.0,0.0,0.0,0.0,0.0,0.002631579292938113,-0.0014162181178107858,0.007044260855764151,0.0,0.0,0.0,0.0,0.0,0.0,0.0,0.0,0.0
1606986330175885742,307313,1606982729591190952,imu_link,0.0006040168227627873,0.005002374295145273,0.5250167846679688,0.8510770201683044,0.0,0.0,0.0,0.0,0.0,0.0,0.0,0.0,0.0,63.3410530090332,0.45152825117111206,0.35987627506256104,0.0,0.0,0.0,0.0,0.0,0.0,0.0,0.0,0.0,0.0028260615654289722,-0.001955987187102437,0.014900235459208488,0.0,0.0,0.0,0.0,0.0,0.0,0.0,0.0,0.0
1606986330175908158,307314,1606982729591213792,imu_link,0.0006040168227627873,0.005002374295145273,0.5250167846679688,0.8510770201683044,0.0,0.0,0.0,0.0,0.0,0.0,0.0,0.0,0.0,63.3410530090332,0.45152825117111206,0.35987627506256104,0.0,0.0,0.0,0.0,0.0,0.0,0.0,0.0,0.0,0.0028260615654289722,-0.001955987187102437,0.014900235459208488,0.0,0.0,0.0,0.0,0.0,0.0,0.0,0.0,0.0
1606986330175931341,307315,1606982729591236475,imu_link,0.0006040467415004969,0.005003087222576141,0.5250232815742493,0.8510729670524597,0.0,0.0,0.0,0.0,0.0,0.0,0.0,0.0,0.0,63.34193420410156,0.4515932500362396,0.35992559790611267,0.0,0.0,0.0,0.0,0.0,0.0,0.0,0.0,0.0,0.005023793317377567,0.007822622545063496,-0.0026542164850980043,0.0,0.0,0.0,0.0,0.0,0.0,0.0,0.0,0.0
1606986330176738231,307316,1606982729591260032,imu_link,0.0006040467415004969,0.005003087222576141,0.5250232815742493,0.8510729670524597,0.0,0.0,0.0,0.0,0.0,0.0,0.0,0.0,0.0,63.34193420410156,0.4515932500362396,0.35992559790611267,0.0,0.0,0.0,0.0,0.0,0.0,0.0,0.0,0.0,0.005023793317377567,0.007822622545063496,-0.0026542164850980043,0.0,0.0,0.0,0.0,0.0,0.0,0.0,0.0,0.0
1606986330176754731,307317,1606982729591284327,imu_link,0.000602727523073554,0.0050045279785990715,0.525023877620697,0.8510726094245911,0.0,0.0,0.0,0.0,0.0,0.0,0.0,0.0,0.0,63.342010498046875,0.45181289315223694,0.3598839342594147,0.0,0.0,0.0,0.0,0.0,0.0,0.0,0.0,0.0,0.017475849017500877,0.013353216461837292,-0.02767459861934185,0.0,0.0,0.0,0.0,0.0,0.0,0.0,0.0,0.0
1606986330176777321,307318,1606982729591308458,imu_link,0.000602727523073554,0.0050045279785990715,0.525023877620697,0.8510726094245911,0.0,0.0,0.0,0.0,0.0,0.0,0.0,0.0,0.0,63.342010498046875,0.45181289315223694,0.3598839342594147,0.0,0.0,0.0,0.0,0.0,0.0,0.0,0.0,0.0,0.017475849017500877,0.013353216461837292,-0.02767459861934185,0.0,0.0,0.0,0.0,0.0,0.0,0.0,0.0,0.0
1606986330188193096,307319,1606982729604116215,imu_link,0.0005987882614135742,0.0050057233311235905,0.5250290632247925,0.851069450378418,0.0,0.0,0.0,0.0,0.0,0.0,0.0,0.0,0.0,63.34270477294922,0.45216426253318787,0.3595743477344513,0.0,0.0,0.0,0.0,0.0,0.0,0.0,0.0,0.0,0.023307062685489655,0.010659915395081043,-0.025725988671183586,0.0,0.0,0.0,0.0,0.0,0.0,0.0,0.0,0.0
1606986330188948206,307320,1606982729604183201,imu_link,0.0005987882614135742,0.0050057233311235905,0.5250290632247925,0.851069450378418,0.0,0.0,0.0,0.0,0.0,0.0,0.0,0.0,0.0,63.34270477294922,0.45216426253318787,0.3595743477344513,0.0,0.0,0.0,0.0,0.0,0.0,0.0,0.0,0.0,0.023307062685489655,0.010659915395081043,-0.025725988671183586,0.0,0.0,0.0,0.0,0.0,0.0,0.0,0.0,0.0
1606986330188964347,307321,1606982729604264313,imu_link,0.0005985190509818494,0.005006313789635897,0.5250287652015686,0.8510695695877075,0.0,0.0,0.0,0.0,0.0,0.0,0.0,0.0,0.0,63.34267044067383,0.4522381126880646,0.35958346724510193,0.0,0.0,0.0,0.0,0.0,0.0,0.0,0.0,0.0,0.019206015393137932,0.014208778738975525,-0.002195036271587014,0.0,0.0,0.0,0.0,0.0,0.0,0.0,0.0,0.0
1606986330188979325,307322,1606982729604300622,imu_link,0.0005985190509818494,0.005006313789635897,0.5250287652015686,0.8510695695877075,0.0,0.0,0.0,0.0,0.0,0.0,0.0,0.0,0.0,63.34267044067383,0.4522381126880646,0.35958346724510193,0.0,0.0,0.0,0.0,0.0,0.0,0.0,0.0,0.0,0.019206015393137932,0.014208778738975525,-0.002195036271587014,0.0,0.0,0.0,0.0,0.0,0.0,0.0,0.0,0.0
1606986330189004121,307323,1606982729604335928,imu_link,0.0005948005709797144,0.005005683284252882,0.5250359177589417,0.8510652184486389,0.0,0.0,0.0,0.0,0.0,0.0,0.0,0.0,0.0,63.3436279296875,0.4523974061012268,0.35918667912483215,0.0,0.0,0.0,0.0,0.0,0.0,0.0,0.0,0.0,0.01682060770690441,0.01853349059820175,-0.0016237733652815223,0.0,0.0,0.0,0.0,0.0,0.0,0.0,0.0,0.0
1606986330189027596,307324,1606982729604389175,imu_link,0.0005948005709797144,0.005005683284252882,0.5250359177589417,0.8510652184486389,0.0,0.0,0.0,0.0,0.0,0.0,0.0,0.0,0.0,63.3436279296875,0.4523974061012268,0.35918667912483215,0.0,0.0,0.0,0.0,0.0,0.0,0.0,0.0,0.0,0.01682060770690441,0.01853349059820175,-0.0016237733652815223,0.0,0.0,0.0,0.0,0.0,0.0,0.0,0.0,0.0
1606986330189033759,307325,1606982729604426624,imu_link,0.0005937722744420171,0.005004083272069693,0.5250357985496521,0.8510652780532837,0.0,0.0,0.0,0.0,0.0,0.0,0.0,0.0,0.0,63.3436164855957,0.4523032605648041,0.3589900732040405,0.0,0.0,0.0,0.0,0.0,0.0,0.0,0.0,0.0,0.012622756883502007,0.01421613059937954,-0.005749908741563559,0.0,0.0,0.0,0.0,0.0,0.0,0.0,0.0,0.0
1606986330189050303,307326,1606982729604461006,imu_link,0.0005937722744420171,0.005004083272069693,0.5250357985496521,0.8510652780532837,0.0,0.0,0.0,0.0,0.0,0.0,0.0,0.0,0.0,63.3436164855957,0.4523032605648041,0.3589900732040405,0.0,0.0,0.0,0.0,0.0,0.0,0.0,0.0,0.0,0.012622756883502007,0.01421613059937954,-0.005749908741563559,0.0,0.0,0.0,0.0,0.0,0.0,0.0,0.0,0.0
1606986330189063322,307327,1606982729604511463,imu_link,0.0005905094440095127,0.00500547094270587,0.5250403881072998,0.8510624766349792,0.0,0.0,0.0,0.0,0.0,0.0,0.0,0.0,0.0,63.34423065185547,0.45263299345970154,0.35875776410102844,0.0,0.0,0.0,0.0,0.0,0.0,0.0,0.0,0.0,0.006198627408593893,0.013339389115571976,0.009030581451952457,0.0,0.0,0.0,0.0,0.0,0.0,0.0,0.0,0.0
1606986330190010824,307328,1606982729604550019,imu_link,0.0005905094440095127,0.00500547094270587,0.5250403881072998,0.8510624766349792,0.0,0.0,0.0,0.0,0.0,0.0,0.0,0.0,0.0,63.34423065185547,0.45263299345970154,0.35875776410102844,0.0,0.0,0.0,0.0,0.0,0.0,0.0,0.0,0.0,0.006198627408593893,0.013339389115571976,0.009030581451952457,0.0,0.0,0.0,0.0,0.0,0.0,0.0,0.0,0.0
1606986330202439010,307329,1606982729617530154,imu_link,0.0005918976967222989,0.005005831364542246,0.5250380039215088,0.8510639071464539,0.0,0.0,0.0,0.0,0.0,0.0,0.0,0.0,0.0,63.343910217285156,0.4525856077671051,0.3589136004447937,0.0,0.0,0.0,0.0,0.0,0.0,0.0,0.0,0.0,0.0032400197815150023,0.014067101292312145,0.008701233193278313,0.0,0.0,0.0,0.0,0.0,0.0,0.0,0.0,0.0
1606986330202463722,307330,1606982729617599437,imu_link,0.0005918976967222989,0.005005831364542246,0.5250380039215088,0.8510639071464539,0.0,0.0,0.0,0.0,0.0,0.0,0.0,0.0,0.0,63.343910217285156,0.4525856077671051,0.3589136004447937,0.0,0.0,0.0,0.0,0.0,0.0,0.0,0.0,0.0,0.0032400197815150023,0.014067101292312145,0.008701233193278313,0.0,0.0,0.0,0.0,0.0,0.0,0.0,0.0,0.0
1606986330202479629,307331,1606982729617646238,imu_link,0.0005885420250706375,0.00500344205647707,0.5250415802001953,0.8510617017745972,0.0,0.0,0.0,0.0,0.0,0.0,0.0,0.0,0.0,63.34439468383789,0.4525529444217682,0.358444482088089,0.0,0.0,0.0,0.0,0.0,0.0,0.0,0.0,0.0,-0.005439142696559429,0.004821624141186476,-0.02270878478884697,0.0,0.0,0.0,0.0,0.0,0.0,0.0,0.0,0.0
1606986330202502011,307332,1606982729617681246,imu_link,0.0005885420250706375,0.00500344205647707,0.5250415802001953,0.8510617017745972,0.0,0.0,0.0,0.0,0.0,0.0,0.0,0.0,0.0,63.34439468383789,0.4525529444217682,0.358444482088089,0.0,0.0,0.0,0.0,0.0,0.0,0.0,0.0,0.0,-0.005439142696559429,0.004821624141186476,-0.02270878478884697,0.0,0.0,0.0,0.0,0.0,0.0,0.0,0.0,0.0
1606986330202514652,307333,1606982729617715399,imu_link,0.0005902762059122324,0.005002583377063274,0.5250418782234192,0.8510615229606628,0.0,0.0,0.0,0.0,0.0,0.0,0.0,0.0,0.0,63.34443283081055,0.4523647427558899,0.3585621118545532,0.0,0.0,0.0,0.0,0.0,0.0,0.0,0.0,0.0,0.008693630807101727,-0.01177678257226944,-0.018910178914666176,0.0,0.0,0.0,0.0,0.0,0.0,0.0,0.0,0.0
1606986330202976592,307334,1606982729617770388,imu_link,0.0005902762059122324,0.005002583377063274,0.5250418782234192,0.8510615229606628,0.0,0.0,0.0,0.0,0.0,0.0,0.0,0.0,0.0,63.34443283081055,0.4523647427558899,0.3585621118545532,0.0,0.0,0.0,0.0,0.0,0.0,0.0,0.0,0.0,0.008693630807101727,-0.01177678257226944,-0.018910178914666176,0.0,0.0,0.0,0.0,0.0,0.0,0.0,0.0,0.0
1606986330202991543,307335,1606982729617814849,imu_link,0.0005912460037507117,0.005007941275835037,0.5250436663627625,0.8510603904724121,0.0,0.0,0.0,0.0,0.0,0.0,0.0,0.0,0.0,63.34468078613281,0.45282816886901855,0.35898005962371826,0.0,0.0,0.0,0.0,0.0,0.0,0.0,0.0,0.0,0.01632959023118019,-0.01172813680022955,-0.004973308648914099,0.0,0.0,0.0,0.0,0.0,0.0,0.0,0.0,0.0
1606986330203014464,307336,1606982729617854204,imu_link,0.0005912460037507117,0.005007941275835037,0.5250436663627625,0.8510603904724121,0.0,0.0,0.0,0.0,0.0,0.0,0.0,0.0,0.0,63.34468078613281,0.45282816886901855,0.35898005962371826,0.0,0.0,0.0,0.0,0.0,0.0,0.0,0.0,0.0,0.01632959023118019,-0.01172813680022955,-0.004973308648914099,0.0,0.0,0.0,0.0,0.0,0.0,0.0,0.0,0.0
1606986330203021303,307337,1606982729617888299,imu_link,0.0005902537959627807,0.005006786901503801,0.5250433683395386,0.8510605692863464,0.0,0.0,0.0,0.0,0.0,0.0,0.0,0.0,0.0,63.34463882446289,0.45277538895606995,0.35881364345550537,0.0,0.0,0.0,0.0,0.0,0.0,0.0,0.0,0.0,-0.008518078364431858,0.004497734364122152,0.0009135552681982517,0.0,0.0,0.0,0.0,0.0,0.0,0.0,0.0,0.0
1606986330215819928,307338,1606982729617924280,imu_link,0.0005902537959627807,0.005006786901503801,0.5250433683395386,0.8510605692863464,0.0,0.0,0.0,0.0,0.0,0.0,0.0,0.0,0.0,63.34463882446289,0.45277538895606995,0.35881364345550537,0.0,0.0,0.0,0.0,0.0,0.0,0.0,0.0,0.0,-0.008518078364431858,0.004497734364122152,0.0009135552681982517,0.0,0.0,0.0,0.0,0.0,0.0,0.0,0.0,0.0
1606986330215848141,307339,1606982729617963190,imu_link,0.0005901647382415831,0.005003862548619509,0.5250499248504639,0.8510565161705017,0.0,0.0,0.0,0.0,0.0,0.0,0.0,0.0,0.0,63.34552001953125,0.4524928033351898,0.35863253474235535,0.0,0.0,0.0,0.0,0.0,0.0,0.0,0.0,0.0,-0.011386984959244728,0.0029694242402911186,0.010968970134854317,0.0,0.0,0.0,0.0,0.0,0.0,0.0,0.0,0.0
1606986330215858283,307340,1606982729631287764,imu_link,0.0005901647382415831,0.005003862548619509,0.5250499248504639,0.8510565161705017,0.0,0.0,0.0,0.0,0.0,0.0,0.0,0.0,0.0,63.34552001953125,0.4524928033351898,0.35863253474235535,0.0,0.0,0.0,0.0,0.0,0.0,0.0,0.0,0.0,-0.011386984959244728,0.0029694242402911186,0.010968970134854317,0.0,0.0,0.0,0.0,0.0,0.0,0.0,0.0,0.0
1606986330215867003,307341,1606982729631392226,imu_link,0.0005905759753659368,0.0050052679143846035,0.5250504016876221,0.8510562181472778,0.0,0.0,0.0,0.0,0.0,0.0,0.0,0.0,0.0,63.3455810546875,0.45260491967201233,0.3587574362754822,0.0,0.0,0.0,0.0,0.0,0.0,0.0,0.0,0.0,-0.011187001131474972,-0.007887362502515316,0.0012609368422999978,0.0,0.0,0.0,0.0,0.0,0.0,0.0,0.0,0.0
1606986330215933647,307342,1606982729631478626,imu_link,0.0005905759753659368,0.0050052679143846035,0.5250504016876221,0.8510562181472778,0.0,0.0,0.0,0.0,0.0,0.0,0.0,0.0,0.0,63.3455810546875,0.45260491967201233,0.3587574362754822,0.0,0.0,0.0,0.0,0.0,0.0,0.0,0.0,0.0,-0.011187001131474972,-0.007887362502515316,0.0012609368422999978,0.0,0.0,0.0,0.0,0.0,0.0,0.0,0.0,0.0
1606986330216218771,307343,1606982729631537044,imu_link,0.0005934074870310724,0.0050060381181538105,0.5250568985939026,0.8510521650314331,0.0,0.0,0.0,0.0,0.0,0.0,0.0,0.0,0.0,63.34646224975586,0.4525068998336792,0.3590834438800812,0.0,0.0,0.0,0.0,0.0,0.0,0.0,0.0,0.0,-0.006237452384084463,-0.010272354818880558,-0.0029929254669696093,0.0,0.0,0.0,0.0,0.0,0.0,0.0,0.0,0.0
1606986330216231408,307344,1606982729631590488,imu_link,0.0005934074870310724,0.0050060381181538105,0.5250568985939026,0.8510521650314331,0.0,0.0,0.0,0.0,0.0,0.0,0.0,0.0,0.0,63.34646224975586,0.4525068998336792,0.3590834438800812,0.0,0.0,0.0,0.0,0.0,0.0,0.0,0.0,0.0,-0.006237452384084463,-0.010272354818880558,-0.0029929254669696093,0.0,0.0,0.0,0.0,0.0,0.0,0.0,0.0,0.0
1606986330216260403,307345,1606982729631638344,imu_link,0.0005942893913015723,0.005006696097552776,0.5250570774078369,0.8510521650314331,0.0,0.0,0.0,0.0,0.0,0.0,0.0,0.0,0.0,63.34647750854492,0.4525179862976074,0.3592090606689453,0.0,0.0,0.0,0.0,0.0,0.0,0.0,0.0,0.0,0.00317306537181139,-0.001114501734264195,-0.00579138332977891,0.0,0.0,0.0,0.0,0.0,0.0,0.0,0.0,0.0
1606986330216279429,307346,1606982729631707229,imu_link,0.0005942893913015723,0.005006696097552776,0.5250570774078369,0.8510521650314331,0.0,0.0,0.0,0.0,0.0,0.0,0.0,0.0,0.0,63.34647750854492,0.4525179862976074,0.3592090606689453,0.0,0.0,0.0,0.0,0.0,0.0,0.0,0.0,0.0,0.00317306537181139,-0.001114501734264195,-0.00579138332977891,0.0,0.0,0.0,0.0,0.0,0.0,0.0,0.0,0.0
1606986330219631606,307347,1606982729631758310,imu_link,0.0005948583711870015,0.005008458159863949,0.5250566601753235,0.8510524034500122,0.0,0.0,0.0,0.0,0.0,0.0,0.0,0.0,0.0,63.34642791748047,0.45265576243400574,0.3593703508377075,0.0,0.0,0.0,0.0,0.0,0.0,0.0,0.0,0.0,-0.0077476464211940765,0.01156238280236721,0.0014179731952026486,0.0,0.0,0.0,0.0,0.0,0.0,0.0,0.0,0.0
1606986330219650357,307348,1606982729631802928,imu_link,0.0005948583711870015,0.005008458159863949,0.5250566601753235,0.8510524034500122,0.0,0.0,0.0,0.0,0.0,0.0,0.0,0.0,0.0,63.34642791748047,0.45265576243400574,0.3593703508377075,0.0,0.0,0.0,0.0,0.0,0.0,0.0,0.0,0.0,-0.0077476464211940765,0.01156238280236721,0.0014179731952026486,0.0,0.0,0.0,0.0,0.0,0.0,0.0,0.0,0.0
1606986330219660003,307349,1606982729631850002,imu_link,0.0005951532511971891,0.00501006655395031,0.525056004524231,0.8510527610778809,0.0,0.0,0.0,0.0,0.0,0.0,0.0,0.0,0.0,63.34634017944336,0.4527950882911682,0.3594955503940582,0.0,0.0,0.0,0.0,0.0,0.0,0.0,0.0,0.0,-0.01147607434540987,-0.006058995146304369,0.015282231383025646,0.0,0.0,0.0,0.0,0.0,0.0,0.0,0.0,0.0
1606986330219672272,307350,1606982729631897189,imu_link,0.0005951532511971891,0.00501006655395031,0.525056004524231,0.8510527610778809,0.0,0.0,0.0,0.0,0.0,0.0,0.0,0.0,0.0,63.34634017944336,0.4527950882911682,0.3594955503940582,0.0,0.0,0.0,0.0,0.0,0.0,0.0,0.0,0.0,-0.01147607434540987,-0.006058995146304369,0.015282231383025646,0.0,0.0,0.0,0.0,0.0,0.0,0.0,0.0,0.0
1606986330229229445,307351,1606982729644985075,imu_link,0.0005973296356387436,0.005008324049413204,0.5250554084777832,0.8510531187057495,0.0,0.0,0.0,0.0,0.0,0.0,0.0,0.0,0.0,63.34626388549805,0.4524945020675659,0.3596026599407196,0.0,0.0,0.0,0.0,0.0,0.0,0.0,0.0,0.0,0.009728615172207355,-0.010115941986441612,0.01522345282137394,0.0,0.0,0.0,0.0,0.0,0.0,0.0,0.0,0.0
1606986330229631056,307352,1606982729645088880,imu_link,0.0005973296356387436,0.005008324049413204,0.5250554084777832,0.8510531187057495,0.0,0.0,0.0,0.0,0.0,0.0,0.0,0.0,0.0,63.34626388549805,0.4524945020675659,0.3596026599407196,0.0,0.0,0.0,0.0,0.0,0.0,0.0,0.0,0.0,0.009728615172207355,-0.010115941986441612,0.01522345282137394,0.0,0.0,0.0,0.0,0.0,0.0,0.0,0.0,0.0
1606986330229646329,307353,1606982729645222377,imu_link,0.0005969290505163372,0.005010143853724003,0.5250558853149414,0.8510528206825256,0.0,0.0,0.0,0.0,0.0,0.0,0.0,0.0,0.0,63.3463249206543,0.4526958465576172,0.3596733510494232,0.0,0.0,0.0,0.0,0.0,0.0,0.0,0.0,0.0,0.017769742757081985,0.00569149712100625,0.0038556684739887714,0.0,0.0,0.0,0.0,0.0,0.0,0.0,0.0,0.0
1606986330229665144,307354,1606982729645281758,imu_link,0.0005969290505163372,0.005010143853724003,0.5250558853149414,0.8510528206825256,0.0,0.0,0.0,0.0,0.0,0.0,0.0,0.0,0.0,63.3463249206543,0.4526958465576172,0.3596733510494232,0.0,0.0,0.0,0.0,0.0,0.0,0.0,0.0,0.0,0.017769742757081985,0.00569149712100625,0.0038556684739887714,0.0,0.0,0.0,0.0,0.0,0.0,0.0,0.0,0.0
1606986330229685256,307355,1606982729645337418,imu_link,0.000592827913351357,0.005013255402445793,0.5250535011291504,0.851054310798645,0.0,0.0,0.0,0.0,0.0,0.0,0.0,0.0,0.0,63.346004486083984,0.45324715971946716,0.3594593107700348,0.0,0.0,0.0,0.0,0.0,0.0,0.0,0.0,0.0,-0.01016360055655241,0.005225471220910549,0.01659413054585457,0.0,0.0,0.0,0.0,0.0,0.0,0.0,0.0,0.0
1606986330230545664,307356,1606982729645411317,imu_link,0.000592827913351357,0.005013255402445793,0.5250535011291504,0.851054310798645,0.0,0.0,0.0,0.0,0.0,0.0,0.0,0.0,0.0,63.346004486083984,0.45324715971946716,0.3594593107700348,0.0,0.0,0.0,0.0,0.0,0.0,0.0,0.0,0.0,-0.01016360055655241,0.005225471220910549,0.01659413054585457,0.0,0.0,0.0,0.0,0.0,0.0,0.0,0.0,0.0
1606986330230574364,307357,1606982729645475593,imu_link,0.0005937816458754241,0.00501264026388526,0.5250545144081116,0.8510536551475525,0.0,0.0,0.0,0.0,0.0,0.0,0.0,0.0,0.0,63.34614181518555,0.4531293511390686,0.35951587557792664,0.0,0.0,0.0,0.0,0.0,0.0,0.0,0.0,0.0,-0.01991913467645645,0.0029926777351647615,0.0303189754486084,0.0,0.0,0.0,0.0,0.0,0.0,0.0,0.0,0.0
1606986330230581505,307358,1606982729645532269,imu_link,0.0005937816458754241,0.00501264026388526,0.5250545144081116,0.8510536551475525,0.0,0.0,0.0,0.0,0.0,0.0,0.0,0.0,0.0,63.34614181518555,0.4531293511390686,0.35951587557792664,0.0,0.0,0.0,0.0,0.0,0.0,0.0,0.0,0.0,-0.01991913467645645,0.0029926777351647615,0.0303189754486084,0.0,0.0,0.0,0.0,0.0,0.0,0.0,0.0,0.0
1606986330230599775,307359,1606982729645612018,imu_link,0.0005933647626079619,0.005008507054299116,0.5250509977340698,0.8510558605194092,0.0,0.0,0.0,0.0,0.0,0.0,0.0,0.0,0.0,63.345664978027344,0.4527527391910553,0.3592246174812317,0.0,0.0,0.0,0.0,0.0,0.0,0.0,0.0,0.0,-0.007461593486368656,0.0017035877099260688,0.026608847081661224,0.0,0.0,0.0,0.0,0.0,0.0,0.0,0.0,0.0
1606986330230612047,307360,1606982729645666879,imu_link,0.0005933647626079619,0.005008507054299116,0.5250509977340698,0.8510558605194092,0.0,0.0,0.0,0.0,0.0,0.0,0.0,0.0,0.0,63.345664978027344,0.4527527391910553,0.3592246174812317,0.0,0.0,0.0,0.0,0.0,0.0,0.0,0.0,0.0,-0.007461593486368656,0.0017035877099260688,0.026608847081661224,0.0,0.0,0.0,0.0,0.0,0.0,0.0,0.0,0.0
1606986330230624003,307361,1606982729645726810,imu_link,0.0005914666107855737,0.00500950962305069,0.5250479578971863,0.8510577082633972,0.0,0.0,0.0,0.0,0.0,0.0,0.0,0.0,0.0,63.345252990722656,0.4529660642147064,0.3590982258319855,0.0,0.0,0.0,0.0,0.0,0.0,0.0,0.0,0.0,-0.010017448104918003,0.006698384881019592,-0.0010119581129401922,0.0,0.0,0.0,0.0,0.0,0.0,0.0,0.0,0.0
1606986330242023151,307362,1606982729657845200,imu_link,0.0005914666107855737,0.00500950962305069,0.5250479578971863,0.8510577082633972,0.0,0.0,0.0,0.0,0.0,0.0,0.0,0.0,0.0,63.345252990722656,0.4529660642147064,0.3590982258319855,0.0,0.0,0.0,0.0,0.0,0.0,0.0,0.0,0.0,-0.010017448104918003,0.006698384881019592,-0.0010119581129401922,0.0,0.0,0.0,0.0,0.0,0.0,0.0,0.0,0.0
1606986330242508939,307363,1606982729657960085,imu_link,0.0005933471256867051,0.0050063785165548325,0.5250434279441833,0.8510605096817017,0.0,0.0,0.0,0.0,0.0,0.0,0.0,0.0,0.0,63.34464645385742,0.45254942774772644,0.35909080505371094,0.0,0.0,0.0,0.0,0.0,0.0,0.0,0.0,0.0,-0.022200634703040123,0.01382346823811531,-0.0051469639874994755,0.0,0.0,0.0,0.0,0.0,0.0,0.0,0.0,0.0
1606986330242526602,307364,1606982729658093638,imu_link,0.0005933471256867051,0.0050063785165548325,0.5250434279441833,0.8510605096817017,0.0,0.0,0.0,0.0,0.0,0.0,0.0,0.0,0.0,63.34464645385742,0.45254942774772644,0.35909080505371094,0.0,0.0,0.0,0.0,0.0,0.0,0.0,0.0,0.0,-0.022200634703040123,0.01382346823811531,-0.0051469639874994755,0.0,0.0,0.0,0.0,0.0,0.0,0.0,0.0,0.0
1606986330242538162,307365,1606982729658159960,imu_link,0.0005924716824665666,0.005005142651498318,0.5250434875488281,0.8510604500770569,0.0,0.0,0.0,0.0,0.0,0.0,0.0,0.0,0.0,63.34465408325195,0.45248153805732727,0.3589310944080353,0.0,0.0,0.0,0.0,0.0,0.0,0.0,0.0,0.0,-0.018653111532330513,0.010205968283116817,0.01966528408229351,0.0,0.0,0.0,0.0,0.0,0.0,0.0,0.0,0.0
1606986330242546861,307366,1606982729658222930,imu_link,0.0005924716824665666,0.005005142651498318,0.5250434875488281,0.8510604500770569,0.0,0.0,0.0,0.0,0.0,0.0,0.0,0.0,0.0,63.34465408325195,0.45248153805732727,0.3589310944080353,0.0,0.0,0.0,0.0,0.0,0.0,0.0,0.0,0.0,-0.018653111532330513,0.010205968283116817,0.01966528408229351,0.0,0.0,0.0,0.0,0.0,0.0,0.0,0.0,0.0
1606986330243509481,307367,1606982729658302506,imu_link,0.0005919363466091454,0.00499842269346118,0.5250398516654968,0.8510628342628479,0.0,0.0,0.0,0.0,0.0,0.0,0.0,0.0,0.0,63.344154357910156,0.4518600106239319,0.3584725558757782,0.0,0.0,0.0,0.0,0.0,0.0,0.0,0.0,0.0,-0.012261559255421162,-0.005284121260046959,0.011048180982470512,0.0,0.0,0.0,0.0,0.0,0.0,0.0,0.0,0.0
1606986330243529132,307368,1606982729658371774,imu_link,0.0005919363466091454,0.00499842269346118,0.5250398516654968,0.8510628342628479,0.0,0.0,0.0,0.0,0.0,0.0,0.0,0.0,0.0,63.344154357910156,0.4518600106239319,0.3584725558757782,0.0,0.0,0.0,0.0,0.0,0.0,0.0,0.0,0.0,-0.012261559255421162,-0.005284121260046959,0.011048180982470512,0.0,0.0,0.0,0.0,0.0,0.0,0.0,0.0,0.0
1606986330243561163,307369,1606982729658433216,imu_link,0.0005923763965256512,0.004997602663934231,0.5250403881072998,0.8510624766349792,0.0,0.0,0.0,0.0,0.0,0.0,0.0,0.0,0.0,63.34422302246094,0.45175328850746155,0.35846641659736633,0.0,0.0,0.0,0.0,0.0,0.0,0.0,0.0,0.0,0.005574696697294712,0.0009549101232551038,0.014063428156077862,0.0,0.0,0.0,0.0,0.0,0.0,0.0,0.0,0.0
1606986330243593339,307370,1606982729658519684,imu_link,0.0005923763965256512,0.004997602663934231,0.5250403881072998,0.8510624766349792,0.0,0.0,0.0,0.0,0.0,0.0,0.0,0.0,0.0,63.34422302246094,0.45175328850746155,0.35846641659736633,0.0,0.0,0.0,0.0,0.0,0.0,0.0,0.0,0.0,0.005574696697294712,0.0009549101232551038,0.014063428156077862,0.0,0.0,0.0,0.0,0.0,0.0,0.0,0.0,0.0
1606986330243604908,307371,1606982729658578894,imu_link,0.0005919131217524409,0.004996666684746742,0.5250457525253296,0.8510591983795166,0.0,0.0,0.0,0.0,0.0,0.0,0.0,0.0,0.0,63.344947814941406,0.45168763399124146,0.35836780071258545,0.0,0.0,0.0,0.0,0.0,0.0,0.0,0.0,0.0,0.011426372453570366,0.012900599278509617,0.04675515741109848,0.0,0.0,0.0,0.0,0.0,0.0,0.0,0.0,0.0
1606986330255727145,307372,1606982729671608436,imu_link,0.0005919131217524409,0.004996666684746742,0.5250457525253296,0.8510591983795166,0.0,0.0,0.0,0.0,0.0,0.0,0.0,0.0,0.0,63.344947814941406,0.45168763399124146,0.35836780071258545,0.0,0.0,0.0,0.0,0.0,0.0,0.0,0.0,0.0,0.011426372453570366,0.012900599278509617,0.04675515741109848,0.0,0.0,0.0,0.0,0.0,0.0,0.0,0.0,0.0
1606986330256938962,307373,1606982729671708184,imu_link,0.0005917474627494812,0.004996838979423046,0.5250462293624878,0.851058840751648,0.0,0.0,0.0,0.0,0.0,0.0,0.0,0.0,0.0,63.34501647949219,0.4517142176628113,0.3583623170852661,0.0,0.0,0.0,0.0,0.0,0.0,0.0,0.0,0.0,0.0038614890072494745,0.01243046298623085,0.058264248073101044,0.0,0.0,0.0,0.0,0.0,0.0,0.0,0.0,0.0
1606986330256959550,307374,1606982729671834456,imu_link,0.0005917474627494812,0.004996838979423046,0.5250462293624878,0.851058840751648,0.0,0.0,0.0,0.0,0.0,0.0,0.0,0.0,0.0,63.34501647949219,0.4517142176628113,0.3583623170852661,0.0,0.0,0.0,0.0,0.0,0.0,0.0,0.0,0.0,0.0038614890072494745,0.01243046298623085,0.058264248073101044,0.0,0.0,0.0,0.0,0.0,0.0,0.0,0.0,0.0
1606986330256971954,307375,1606982729671904569,imu_link,0.0005921910051256418,0.004997336771339178,0.5250518321990967,0.8510554432868958,0.0,0.0,0.0,0.0,0.0,0.0,0.0,0.0,0.0,63.345767974853516,0.4517337381839752,0.3584384024143219,0.0,0.0,0.0,0.0,0.0,0.0,0.0,0.0,0.0,-0.0036581892054528,0.010872682556509972,0.02210294082760811,0.0,0.0,0.0,0.0,0.0,0.0,0.0,0.0,0.0
1606986330256995208,307376,1606982729671956809,imu_link,0.0005921910051256418,0.004997336771339178,0.5250518321990967,0.8510554432868958,0.0,0.0,0.0,0.0,0.0,0.0,0.0,0.0,0.0,63.345767974853516,0.4517337381839752,0.3584384024143219,0.0,0.0,0.0,0.0,0.0,0.0,0.0,0.0,0.0,-0.0036581892054528,0.010872682556509972,0.02210294082760811,0.0,0.0,0.0,0.0,0.0,0.0,0.0,0.0,0.0
1606986330257005413,307377,1606982729672008088,imu_link,0.0005915556685067713,0.0049995058216154575,0.5250505805015564,0.8510561585426331,0.0,0.0,0.0,0.0,0.0,0.0,0.0,0.0,0.0,63.345603942871094,0.4519840180873871,0.35850635170936584,0.0,0.0,0.0,0.0,0.0,0.0,0.0,0.0,0.0,-0.013841627165675163,0.0065580145455896854,-0.0007844559731893241,0.0,0.0,0.0,0.0,0.0,0.0,0.0,0.0,0.0
1606986330257034622,307378,1606982729672078935,imu_link,0.0005915556685067713,0.0049995058216154575,0.5250505805015564,0.8510561585426331,0.0,0.0,0.0,0.0,0.0,0.0,0.0,0.0,0.0,63.345603942871094,0.4519840180873871,0.35850635170936584,0.0,0.0,0.0,0.0,0.0,0.0,0.0,0.0,0.0,-0.013841627165675163,0.0065580145455896854,-0.0007844559731893241,0.0,0.0,0.0,0.0,0.0,0.0,0.0,0.0,0.0
1606986330257043130,307379,1606982729672130815,imu_link,0.0005909880273975432,0.004998878110200167,0.5250486135482788,0.8510574102401733,0.0,0.0,0.0,0.0,0.0,0.0,0.0,0.0,0.0,63.3453369140625,0.4519577622413635,0.35841211676597595,0.0,0.0,0.0,0.0,0.0,0.0,0.0,0.0,0.0,-0.017199451103806496,-0.00939179491251707,0.0026259238366037607,0.0,0.0,0.0,0.0,0.0,0.0,0.0,0.0,0.0
1606986330257054380,307380,1606982729672182191,imu_link,0.0005909880273975432,0.004998878110200167,0.5250486135482788,0.8510574102401733,0.0,0.0,0.0,0.0,0.0,0.0,0.0,0.0,0.0,63.3453369140625,0.4519577622413635,0.35841211676597595,0.0,0.0,0.0,0.0,0.0,0.0,0.0,0.0,0.0,-0.017199451103806496,-0.00939179491251707,0.0026259238366037607,0.0,0.0,0.0,0.0,0.0,0.0,0.0,0.0,0.0
1606986330257059061,307381,1606982729672237649,imu_link,0.0005918435635976493,0.0049981484189629555,0.5250473022460938,0.8510581851005554,0.0,0.0,0.0,0.0,0.0,0.0,0.0,0.0,0.0,63.345157623291016,0.45183566212654114,0.3584510385990143,0.0,0.0,0.0,0.0,0.0,0.0,0.0,0.0,0.0,0.007899496704339981,-0.02788497321307659,-0.005040194373577833,0.0,0.0,0.0,0.0,0.0,0.0,0.0,0.0,0.0
1606986330257065107,307382,1606982729672293014,imu_link,0.0005918435635976493,0.0049981484189629555,0.5250473022460938,0.8510581851005554,0.0,0.0,0.0,0.0,0.0,0.0,0.0,0.0,0.0,63.345157623291016,0.45183566212654114,0.3584510385990143,0.0,0.0,0.0,0.0,0.0,0.0,0.0,0.0,0.0,0.007899496704339981,-0.02788497321307659,-0.005040194373577833,0.0,0.0,0.0,0.0,0.0,0.0,0.0,0.0,0.0
1606986330275538440,307383,1606982729684997974,imu_link,0.0005926672019995749,0.004998702555894852,0.5250459909439087,0.8510590195655823,0.0,0.0,0.0,0.0,0.0,0.0,0.0,0.0,0.0,63.3449821472168,0.45184066891670227,0.35856392979621887,0.0,0.0,0.0,0.0,0.0,0.0,0.0,0.0,0.0,0.01853375881910324,-0.015028866939246655,0.003266381099820137,0.0,0.0,0.0,0.0,0.0,0.0,0.0,0.0,0.0
1606986330275571735,307384,1606982729685087204,imu_link,0.0005926672019995749,0.004998702555894852,0.5250459909439087,0.8510590195655823,0.0,0.0,0.0,0.0,0.0,0.0,0.0,0.0,0.0,63.3449821472168,0.45184066891670227,0.35856392979621887,0.0,0.0,0.0,0.0,0.0,0.0,0.0,0.0,0.0,0.01853375881910324,-0.015028866939246655,0.003266381099820137,0.0,0.0,0.0,0.0,0.0,0.0,0.0,0.0,0.0
1606986330275618278,307385,1606982729685154102,imu_link,0.0005914423381909728,0.005000620149075985,0.5250459313392639,0.8510590195655823,0.0,0.0,0.0,0.0,0.0,0.0,0.0,0.0,0.0,63.344974517822266,0.4521014094352722,0.35855987668037415,0.0,0.0,0.0,0.0,0.0,0.0,0.0,0.0,0.0,-0.005614695604890585,0.0014257855946198106,0.004734459798783064,0.0,0.0,0.0,0.0,0.0,0.0,0.0,0.0,0.0
1606986330275633594,307386,1606982729685205618,imu_link,0.0005914423381909728,0.005000620149075985,0.5250459313392639,0.8510590195655823,0.0,0.0,0.0,0.0,0.0,0.0,0.0,0.0,0.0,63.344974517822266,0.4521014094352722,0.35855987668037415,0.0,0.0,0.0,0.0,0.0,0.0,0.0,0.0,0.0,-0.005614695604890585,0.0014257855946198106,0.004734459798783064,0.0,0.0,0.0,0.0,0.0,0.0,0.0,0.0,0.0
1606986330275650039,307387,1606982729685257264,imu_link,0.0005906525766476989,0.005000867415219545,0.5250495672225952,0.8510568141937256,0.0,0.0,0.0,0.0,0.0,0.0,0.0,0.0,0.0,63.34546661376953,0.4521715044975281,0.358499675989151,0.0,0.0,0.0,0.0,0.0,0.0,0.0,0.0,0.0,-0.016206756234169006,-0.0032383936922997236,-0.009185178205370903,0.0,0.0,0.0,0.0,0.0,0.0,0.0,0.0,0.0
1606986330276004386,307388,1606982729685309328,imu_link,0.0005906525766476989,0.005000867415219545,0.5250495672225952,0.8510568141937256,0.0,0.0,0.0,0.0,0.0,0.0,0.0,0.0,0.0,63.34546661376953,0.4521715044975281,0.358499675989151,0.0,0.0,0.0,0.0,0.0,0.0,0.0,0.0,0.0,-0.016206756234169006,-0.0032383936922997236,-0.009185178205370903,0.0,0.0,0.0,0.0,0.0,0.0,0.0,0.0,0.0
1606986330276023382,307389,1606982729685372213,imu_link,0.0005919551476836205,0.005000220146030188,0.5250491499900818,0.8510569930076599,0.0,0.0,0.0,0.0,0.0,0.0,0.0,0.0,0.0,63.34540939331055,0.45203015208244324,0.3585875928401947,0.0,0.0,0.0,0.0,0.0,0.0,0.0,0.0,0.0,-0.019937431439757347,-0.005339760798960924,-0.013339615426957607,0.0,0.0,0.0,0.0,0.0,0.0,0.0,0.0,0.0
1606986330276036153,307390,1606982729685424210,imu_link,0.0005919551476836205,0.005000220146030188,0.5250491499900818,0.8510569930076599,0.0,0.0,0.0,0.0,0.0,0.0,0.0,0.0,0.0,63.34540939331055,0.45203015208244324,0.3585875928401947,0.0,0.0,0.0,0.0,0.0,0.0,0.0,0.0,0.0,-0.019937431439757347,-0.005339760798960924,-0.013339615426957607,0.0,0.0,0.0,0.0,0.0,0.0,0.0,0.0,0.0
1606986330276046288,307391,1606982729685475572,imu_link,0.00059220235561952,0.004998645279556513,0.5250535607337952,0.851054310798645,0.0,0.0,0.0,0.0,0.0,0.0,0.0,0.0,0.0,63.346004486083984,0.45185989141464233,0.35851922631263733,0.0,0.0,0.0,0.0,0.0,0.0,0.0,0.0,0.0,-0.01978982426226139,0.000680888129863888,0.0010165555868297815,0.0,0.0,0.0,0.0,0.0,0.0,0.0,0.0,0.0
1606986330283095955,307392,1606982729685530870,imu_link,0.00059220235561952,0.004998645279556513,0.5250535607337952,0.851054310798645,0.0,0.0,0.0,0.0,0.0,0.0,0.0,0.0,0.0,63.346004486083984,0.45185989141464233,0.35851922631263733,0.0,0.0,0.0,0.0,0.0,0.0,0.0,0.0,0.0,-0.01978982426226139,0.000680888129863888,0.0010165555868297815,0.0,0.0,0.0,0.0,0.0,0.0,0.0,0.0,0.0
1606986330283113864,307393,1606982729685587074,imu_link,0.0005931112100370228,0.004999177064746618,0.5250535607337952,0.851054310798645,0.0,0.0,0.0,0.0,0.0,0.0,0.0,0.0,0.0,63.346004486083984,0.4518570601940155,0.35863983631134033,0.0,0.0,0.0,0.0,0.0,0.0,0.0,0.0,0.0,-0.01853960193693638,0.0041190399788320065,-0.01354700606316328,0.0,0.0,0.0,0.0,0.0,0.0,0.0,0.0,0.0
1606986330284317672,307394,1606982729698866475,imu_link,0.0005931112100370228,0.004999177064746618,0.5250535607337952,0.851054310798645,0.0,0.0,0.0,0.0,0.0,0.0,0.0,0.0,0.0,63.346004486083984,0.4518570601940155,0.35863983631134033,0.0,0.0,0.0,0.0,0.0,0.0,0.0,0.0,0.0,-0.01853960193693638,0.0041190399788320065,-0.01354700606316328,0.0,0.0,0.0,0.0,0.0,0.0,0.0,0.0,0.0
1606986330284399248,307395,1606982729699044230,imu_link,0.0005915273213759065,0.004997250624001026,0.5250423550605774,0.851061224937439,0.0,0.0,0.0,0.0,0.0,0.0,0.0,0.0,0.0,63.34449768066406,0.4517691731452942,0.358363538980484,0.0,0.0,0.0,0.0,0.0,0.0,0.0,0.0,0.0,-0.012252931483089924,0.012297884561121464,-0.019282322376966476,0.0,0.0,0.0,0.0,0.0,0.0,0.0,0.0,0.0
1606986330284438188,307396,1606982729699113319,imu_link,0.0005915273213759065,0.004997250624001026,0.5250423550605774,0.851061224937439,0.0,0.0,0.0,0.0,0.0,0.0,0.0,0.0,0.0,63.34449768066406,0.4517691731452942,0.358363538980484,0.0,0.0,0.0,0.0,0.0,0.0,0.0,0.0,0.0,-0.012252931483089924,0.012297884561121464,-0.019282322376966476,0.0,0.0,0.0,0.0,0.0,0.0,0.0,0.0,0.0
1606986330284476557,307397,1606982729699180189,imu_link,0.0005906321457587183,0.004996742587536573,0.5250426530838013,0.8510611057281494,0.0,0.0,0.0,0.0,0.0,0.0,0.0,0.0,0.0,63.34452819824219,0.45177343487739563,0.3582457900047302,0.0,0.0,0.0,0.0,0.0,0.0,0.0,0.0,0.0,-0.01660769432783127,0.019969217479228973,-0.008257550187408924,0.0,0.0,0.0,0.0,0.0,0.0,0.0,0.0,0.0
1606986330284572743,307398,1606982729699249910,imu_link,0.0005906321457587183,0.004996742587536573,0.5250426530838013,0.8510611057281494,0.0,0.0,0.0,0.0,0.0,0.0,0.0,0.0,0.0,63.34452819824219,0.45177343487739563,0.3582457900047302,0.0,0.0,0.0,0.0,0.0,0.0,0.0,0.0,0.0,-0.01660769432783127,0.019969217479228973,-0.008257550187408924,0.0,0.0,0.0,0.0,0.0,0.0,0.0,0.0,0.0
1606986330284596121,307399,1606982729699312070,imu_link,0.0005899203242734075,0.004994757939130068,0.5250322818756104,0.8510674238204956,0.0,0.0,0.0,0.0,0.0,0.0,0.0,0.0,0.0,63.343135833740234,0.4516270160675049,0.35805147886276245,0.0,0.0,0.0,0.0,0.0,0.0,0.0,0.0,0.0,-0.019567284733057022,-0.002379416720941663,-0.022837970405817032,0.0,0.0,0.0,0.0,0.0,0.0,0.0,0.0,0.0
1606986330284609117,307400,1606982729699391186,imu_link,0.0005899203242734075,0.004994757939130068,0.5250322818756104,0.8510674238204956,0.0,0.0,0.0,0.0,0.0,0.0,0.0,0.0,0.0,63.343135833740234,0.4516270160675049,0.35805147886276245,0.0,0.0,0.0,0.0,0.0,0.0,0.0,0.0,0.0,-0.019567284733057022,-0.002379416720941663,-0.022837970405817032,0.0,0.0,0.0,0.0,0.0,0.0,0.0,0.0,0.0
1606986330284640650,307401,1606982729699460306,imu_link,0.0005895557696931064,0.004994407296180725,0.5250310301780701,0.8510681986808777,0.0,0.0,0.0,0.0,0.0,0.0,0.0,0.0,0.0,63.34296417236328,0.45161527395248413,0.3579941391944885,0.0,0.0,0.0,0.0,0.0,0.0,0.0,0.0,0.0,-0.008591965772211552,-0.018189899623394012,-0.0017365781823173165,0.0,0.0,0.0,0.0,0.0,0.0,0.0,0.0,0.0
1606986330284647900,307402,1606982729699524169,imu_link,0.0005895557696931064,0.004994407296180725,0.5250310301780701,0.8510681986808777,0.0,0.0,0.0,0.0,0.0,0.0,0.0,0.0,0.0,63.34296417236328,0.45161527395248413,0.3579941391944885,0.0,0.0,0.0,0.0,0.0,0.0,0.0,0.0,0.0,-0.008591965772211552,-0.018189899623394012,-0.0017365781823173165,0.0,0.0,0.0,0.0,0.0,0.0,0.0,0.0,0.0
1606986330284657828,307403,1606982729699590162,imu_link,0.0005925058503635228,0.00499351043254137,0.5250280499458313,0.8510701656341553,0.0,0.0,0.0,0.0,0.0,0.0,0.0,0.0,0.0,63.34255599975586,0.4513516426086426,0.3582262694835663,0.0,0.0,0.0,0.0,0.0,0.0,0.0,0.0,0.0,0.0018417886458337307,-0.010624896734952927,0.04342095926403999,0.0,0.0,0.0,0.0,0.0,0.0,0.0,0.0,0.0
1606986330284667047,307404,1606982729699650867,imu_link,0.0005925058503635228,0.00499351043254137,0.5250280499458313,0.8510701656341553,0.0,0.0,0.0,0.0,0.0,0.0,0.0,0.0,0.0,63.34255599975586,0.4513516426086426,0.3582262694835663,0.0,0.0,0.0,0.0,0.0,0.0,0.0,0.0,0.0,0.0018417886458337307,-0.010624896734952927,0.04342095926403999,0.0,0.0,0.0,0.0,0.0,0.0,0.0,0.0,0.0
1606986330296674928,307405,1606982729712421285,imu_link,0.0005927638849243522,0.004995264112949371,0.5250284075737,0.8510699272155762,0.0,0.0,0.0,0.0,0.0,0.0,0.0,0.0,0.0,63.34260940551758,0.45150700211524963,0.35835713148117065,0.0,0.0,0.0,0.0,0.0,0.0,0.0,0.0,0.0,-0.003084717318415642,-0.012547665275633335,0.04166699945926666,0.0,0.0,0.0,0.0,0.0,0.0,0.0,0.0,0.0
1606986330297114403,307406,1606982729712537117,imu_link,0.0005927638849243522,0.004995264112949371,0.5250284075737,0.8510699272155762,0.0,0.0,0.0,0.0,0.0,0.0,0.0,0.0,0.0,63.34260940551758,0.45150700211524963,0.35835713148117065,0.0,0.0,0.0,0.0,0.0,0.0,0.0,0.0,0.0,-0.003084717318415642,-0.012547665275633335,0.04166699945926666,0.0,0.0,0.0,0.0,0.0,0.0,0.0,0.0,0.0
1606986330297168933,307407,1606982729712669896,imu_link,0.0005930790794081986,0.004996760282665491,0.525026798248291,0.8510708808898926,0.0,0.0,0.0,0.0,0.0,0.0,0.0,0.0,0.0,63.34239196777344,0.45163461565971375,0.35847705602645874,0.0,0.0,0.0,0.0,0.0,0.0,0.0,0.0,0.0,-0.000978201045654714,0.00044206265010870993,0.0034467680379748344,0.0,0.0,0.0,0.0,0.0,0.0,0.0,0.0,0.0
1606986330297181374,307408,1606982729712737064,imu_link,0.0005930790794081986,0.004996760282665491,0.525026798248291,0.8510708808898926,0.0,0.0,0.0,0.0,0.0,0.0,0.0,0.0,0.0,63.34239196777344,0.45163461565971375,0.35847705602645874,0.0,0.0,0.0,0.0,0.0,0.0,0.0,0.0,0.0,-0.000978201045654714,0.00044206265010870993,0.0034467680379748344,0.0,0.0,0.0,0.0,0.0,0.0,0.0,0.0,0.0
1606986330297200140,307409,1606982729712798991,imu_link,0.0005912687629461288,0.0049967714585363865,0.5250251889228821,0.851071834564209,0.0,0.0,0.0,0.0,0.0,0.0,0.0,0.0,0.0,63.34218215942383,0.45174527168273926,0.3583003580570221,0.0,0.0,0.0,0.0,0.0,0.0,0.0,0.0,0.0,0.009698855690658092,0.00726188812404871,-0.007707445416599512,0.0,0.0,0.0,0.0,0.0,0.0,0.0,0.0,0.0
1606986330297654225,307410,1606982729712879028,imu_link,0.0005912687629461288,0.0049967714585363865,0.5250251889228821,0.851071834564209,0.0,0.0,0.0,0.0,0.0,0.0,0.0,0.0,0.0,63.34218215942383,0.45174527168273926,0.3583003580570221,0.0,0.0,0.0,0.0,0.0,0.0,0.0,0.0,0.0,0.009698855690658092,0.00726188812404871,-0.007707445416599512,0.0,0.0,0.0,0.0,0.0,0.0,0.0,0.0,0.0
1606986330297669522,307411,1606982729712950201,imu_link,0.0005885696737095714,0.004998003598302603,0.5250189900398254,0.8510756492614746,0.0,0.0,0.0,0.0,0.0,0.0,0.0,0.0,0.0,63.341346740722656,0.4520304203033447,0.35810795426368713,0.0,0.0,0.0,0.0,0.0,0.0,0.0,0.0,0.0,0.005252462811768055,-0.0038964031264185905,-0.018770229071378708,0.0,0.0,0.0,0.0,0.0,0.0,0.0,0.0,0.0
1606986330297679998,307412,1606982729713011832,imu_link,0.0005885696737095714,0.004998003598302603,0.5250189900398254,0.8510756492614746,0.0,0.0,0.0,0.0,0.0,0.0,0.0,0.0,0.0,63.341346740722656,0.4520304203033447,0.35810795426368713,0.0,0.0,0.0,0.0,0.0,0.0,0.0,0.0,0.0,0.005252462811768055,-0.0038964031264185905,-0.018770229071378708,0.0,0.0,0.0,0.0,0.0,0.0,0.0,0.0,0.0
1606986330297690370,307413,1606982729713097366,imu_link,0.0005874127382412553,0.0049966261722147465,0.5250178575515747,0.8510764241218567,0.0,0.0,0.0,0.0,0.0,0.0,0.0,0.0,0.0,63.341190338134766,0.45196619629859924,0.357911616563797,0.0,0.0,0.0,0.0,0.0,0.0,0.0,0.0,0.0,-0.01708166114985943,-0.00931252259761095,-0.023266343399882317,0.0,0.0,0.0,0.0,0.0,0.0,0.0,0.0,0.0
1606986330301131162,307414,1606982729713156454,imu_link,0.0005874127382412553,0.0049966261722147465,0.5250178575515747,0.8510764241218567,0.0,0.0,0.0,0.0,0.0,0.0,0.0,0.0,0.0,63.341190338134766,0.45196619629859924,0.357911616563797,0.0,0.0,0.0,0.0,0.0,0.0,0.0,0.0,0.0,-0.01708166114985943,-0.00931252259761095,-0.023266343399882317,0.0,0.0,0.0,0.0,0.0,0.0,0.0,0.0,0.0
1606986330301139697,307415,1606982729713223169,imu_link,0.0005890123429708183,0.004994193557649851,0.5250146985054016,0.8510783314704895,0.0,0.0,0.0,0.0,0.0,0.0,0.0,0.0,0.0,63.34076690673828,0.45163407921791077,0.3579195737838745,0.0,0.0,0.0,0.0,0.0,0.0,0.0,0.0,0.0,-0.01917644962668419,-0.010867233388125896,-0.0033211654517799616,0.0,0.0,0.0,0.0,0.0,0.0,0.0,0.0,0.0
1606986330309598563,307416,1606982729725339150,imu_link,0.0005890123429708183,0.004994193557649851,0.5250146985054016,0.8510783314704895,0.0,0.0,0.0,0.0,0.0,0.0,0.0,0.0,0.0,63.34076690673828,0.45163407921791077,0.3579195737838745,0.0,0.0,0.0,0.0,0.0,0.0,0.0,0.0,0.0,-0.01917644962668419,-0.010867233388125896,-0.0033211654517799616,0.0,0.0,0.0,0.0,0.0,0.0,0.0,0.0,0.0
1606986330310070066,307417,1606982729725461087,imu_link,0.0005885781138204038,0.004993499722331762,0.5250152349472046,0.8510779738426208,0.0,0.0,0.0,0.0,0.0,0.0,0.0,0.0,0.0,63.340843200683594,0.4515922963619232,0.3578357994556427,0.0,0.0,0.0,0.0,0.0,0.0,0.0,0.0,0.0,-0.0011437369976192713,0.001830091467127204,0.024701951071619987,0.0,0.0,0.0,0.0,0.0,0.0,0.0,0.0,0.0
1606986330310094193,307418,1606982729725631114,imu_link,0.0005885781138204038,0.004993499722331762,0.5250152349472046,0.8510779738426208,0.0,0.0,0.0,0.0,0.0,0.0,0.0,0.0,0.0,63.340843200683594,0.4515922963619232,0.3578357994556427,0.0,0.0,0.0,0.0,0.0,0.0,0.0,0.0,0.0,-0.0011437369976192713,0.001830091467127204,0.024701951071619987,0.0,0.0,0.0,0.0,0.0,0.0,0.0,0.0,0.0
1606986330310107567,307419,1606982729725713123,imu_link,0.000587805756367743,0.004992316477000713,0.5250134468078613,0.8510791063308716,0.0,0.0,0.0,0.0,0.0,0.0,0.0,0.0,0.0,63.34059524536133,0.4515240788459778,0.357688307762146,0.0,0.0,0.0,0.0,0.0,0.0,0.0,0.0,0.0,0.0020693934056907892,0.021248212084174156,0.019330060109496117,0.0,0.0,0.0,0.0,0.0,0.0,0.0,0.0,0.0
1606986330310122502,307420,1606982729725802646,imu_link,0.000587805756367743,0.004992316477000713,0.5250134468078613,0.8510791063308716,0.0,0.0,0.0,0.0,0.0,0.0,0.0,0.0,0.0,63.34059524536133,0.4515240788459778,0.357688307762146,0.0,0.0,0.0,0.0,0.0,0.0,0.0,0.0,0.0,0.0020693934056907892,0.021248212084174156,0.019330060109496117,0.0,0.0,0.0,0.0,0.0,0.0,0.0,0.0,0.0
1606986330313354264,307421,1606982729725892118,imu_link,0.0005905961152166128,0.0049922773614525795,0.5250154137611389,0.8510778546333313,0.0,0.0,0.0,0.0,0.0,0.0,0.0,0.0,0.0,63.34086227416992,0.45135146379470825,0.357959121465683,0.0,0.0,0.0,0.0,0.0,0.0,0.0,0.0,0.0,-0.00462308619171381,0.020090721547603607,0.007229409646242857,0.0,0.0,0.0,0.0,0.0,0.0,0.0,0.0,0.0
1606986330313381941,307422,1606982729725964857,imu_link,0.0005905961152166128,0.0049922773614525795,0.5250154137611389,0.8510778546333313,0.0,0.0,0.0,0.0,0.0,0.0,0.0,0.0,0.0,63.34086227416992,0.45135146379470825,0.357959121465683,0.0,0.0,0.0,0.0,0.0,0.0,0.0,0.0,0.0,-0.00462308619171381,0.020090721547603607,0.007229409646242857,0.0,0.0,0.0,0.0,0.0,0.0,0.0,0.0,0.0
1606986330313391668,307423,1606982729726035589,imu_link,0.0005912157939746976,0.004989645443856716,0.5250133872032166,0.8510791063308716,0.0,0.0,0.0,0.0,0.0,0.0,0.0,0.0,0.0,63.3405876159668,0.45105841755867004,0.35786017775535583,0.0,0.0,0.0,0.0,0.0,0.0,0.0,0.0,0.0,-0.020365029573440552,0.008909814059734344,0.01448088325560093,0.0,0.0,0.0,0.0,0.0,0.0,0.0,0.0,0.0
1606986330313407137,307424,1606982729726107168,imu_link,0.0005912157939746976,0.004989645443856716,0.5250133872032166,0.8510791063308716,0.0,0.0,0.0,0.0,0.0,0.0,0.0,0.0,0.0,63.3405876159668,0.45105841755867004,0.35786017775535583,0.0,0.0,0.0,0.0,0.0,0.0,0.0,0.0,0.0,-0.020365029573440552,0.008909814059734344,0.01448088325560093,0.0,0.0,0.0,0.0,0.0,0.0,0.0,0.0,0.0
1606986330345019872,307425,1606982729726176716,imu_link,0.0005886325961910188,0.004990683402866125,0.5250150561332703,0.8510781526565552,0.0,0.0,0.0,0.0,0.0,0.0,0.0,0.0,0.0,63.3408088684082,0.45131438970565796,0.3576715290546417,0.0,0.0,0.0,0.0,0.0,0.0,0.0,0.0,0.0,-0.008129152469336987,0.002779107540845871,-0.006769840605556965,0.0,0.0,0.0,0.0,0.0,0.0,0.0,0.0,0.0
1606986330345064736,307426,1606982729739141988,imu_link,0.0005886325961910188,0.004990683402866125,0.5250150561332703,0.8510781526565552,0.0,0.0,0.0,0.0,0.0,0.0,0.0,0.0,0.0,63.3408088684082,0.45131438970565796,0.3576715290546417,0.0,0.0,0.0,0.0,0.0,0.0,0.0,0.0,0.0,-0.008129152469336987,0.002779107540845871,-0.006769840605556965,0.0,0.0,0.0,0.0,0.0,0.0,0.0,0.0,0.0
1606986330345090133,307427,1606982729739268169,imu_link,0.0005889612948521972,0.00498834066092968,0.5250199437141418,0.8510751724243164,0.0,0.0,0.0,0.0,0.0,0.0,0.0,0.0,0.0,63.34146499633789,0.4510641098022461,0.3575652241706848,0.0,0.0,0.0,0.0,0.0,0.0,0.0,0.0,0.0,0.007127818185836077,0.002883697859942913,-0.02862696535885334,0.0,0.0,0.0,0.0,0.0,0.0,0.0,0.0,0.0
1606986330345120638,307428,1606982729739430722,imu_link,0.0005889612948521972,0.00498834066092968,0.5250199437141418,0.8510751724243164,0.0,0.0,0.0,0.0,0.0,0.0,0.0,0.0,0.0,63.34146499633789,0.4510641098022461,0.3575652241706848,0.0,0.0,0.0,0.0,0.0,0.0,0.0,0.0,0.0,0.007127818185836077,0.002883697859942913,-0.02862696535885334,0.0,0.0,0.0,0.0,0.0,0.0,0.0,0.0,0.0
1606986330345139241,307429,1606982729739514440,imu_link,0.0005879329401068389,0.0049873595125973225,0.5250198245048523,0.8510752320289612,0.0,0.0,0.0,0.0,0.0,0.0,0.0,0.0,0.0,63.34144973754883,0.45103028416633606,0.35740581154823303,0.0,0.0,0.0,0.0,0.0,0.0,0.0,0.0,0.0,0.013300825841724873,0.017821863293647766,-0.03085557371377945,0.0,0.0,0.0,0.0,0.0,0.0,0.0,0.0,0.0
1606986330345148874,307430,1606982729739584710,imu_link,0.0005879329401068389,0.0049873595125973225,0.5250198245048523,0.8510752320289612,0.0,0.0,0.0,0.0,0.0,0.0,0.0,0.0,0.0,63.34144973754883,0.45103028416633606,0.35740581154823303,0.0,0.0,0.0,0.0,0.0,0.0,0.0,0.0,0.0,0.013300825841724873,0.017821863293647766,-0.03085557371377945,0.0,0.0,0.0,0.0,0.0,0.0,0.0,0.0,0.0
1606986330345158515,307431,1606982729739650013,imu_link,0.0005854712799191475,0.004986762069165707,0.5250261425971985,0.8510713577270508,0.0,0.0,0.0,0.0,0.0,0.0,0.0,0.0,0.0,63.3422966003418,0.45111754536628723,0.3571331202983856,0.0,0.0,0.0,0.0,0.0,0.0,0.0,0.0,0.0,0.0173740703612566,0.018047066405415535,-0.010375081561505795,0.0,0.0,0.0,0.0,0.0,0.0,0.0,0.0,0.0
1606986330345177392,307432,1606982729739737713,imu_link,0.0005854712799191475,0.004986762069165707,0.5250261425971985,0.8510713577270508,0.0,0.0,0.0,0.0,0.0,0.0,0.0,0.0,0.0,63.3422966003418,0.45111754536628723,0.3571331202983856,0.0,0.0,0.0,0.0,0.0,0.0,0.0,0.0,0.0,0.0173740703612566,0.018047066405415535,-0.010375081561505795,0.0,0.0,0.0,0.0,0.0,0.0,0.0,0.0,0.0
1606986330345188842,307433,1606982729739807483,imu_link,0.0005859479424543679,0.0049855755642056465,0.5250261425971985,0.8510712385177612,0.0,0.0,0.0,0.0,0.0,0.0,0.0,0.0,0.0,63.34230422973633,0.4509730339050293,0.35710832476615906,0.0,0.0,0.0,0.0,0.0,0.0,0.0,0.0,0.0,0.010633201338350773,0.0010026190429925919,-0.005860426928848028,0.0,0.0,0.0,0.0,0.0,0.0,0.0,0.0,0.0
1606986330345197302,307434,1606982729739886716,imu_link,0.0005859479424543679,0.0049855755642056465,0.5250261425971985,0.8510712385177612,0.0,0.0,0.0,0.0,0.0,0.0,0.0,0.0,0.0,63.34230422973633,0.4509730339050293,0.35710832476615906,0.0,0.0,0.0,0.0,0.0,0.0,0.0,0.0,0.0,0.010633201338350773,0.0010026190429925919,-0.005860426928848028,0.0,0.0,0.0,0.0,0.0,0.0,0.0,0.0,0.0
1606986330345206782,307435,1606982729739955024,imu_link,0.0005852990434505045,0.004987228661775589,0.5250352621078491,0.8510656356811523,0.0,0.0,0.0,0.0,0.0,0.0,0.0,0.0,0.0,63.34353256225586,0.45116952061653137,0.35714930295944214,0.0,0.0,0.0,0.0,0.0,0.0,0.0,0.0,0.0,0.0216363612562418,0.0009431972284801304,-0.0023237611167132854,0.0,0.0,0.0,0.0,0.0,0.0,0.0,0.0,0.0
1606986330345247217,307436,1606982729740023789,imu_link,0.0005852990434505045,0.004987228661775589,0.5250352621078491,0.8510656356811523,0.0,0.0,0.0,0.0,0.0,0.0,0.0,0.0,0.0,63.34353256225586,0.45116952061653137,0.35714930295944214,0.0,0.0,0.0,0.0,0.0,0.0,0.0,0.0,0.0,0.0216363612562418,0.0009431972284801304,-0.0023237611167132854,0.0,0.0,0.0,0.0,0.0,0.0,0.0,0.0,0.0
1606986330345263967,307437,1606982729752590517,imu_link,0.0005836395430378616,0.004985470324754715,0.5250344276428223,0.8510662317276001,0.0,0.0,0.0,0.0,0.0,0.0,0.0,0.0,0.0,63.34341049194336,0.4510982632637024,0.35688114166259766,0.0,0.0,0.0,0.0,0.0,0.0,0.0,0.0,0.0,0.018619298934936523,0.00925387442111969,0.02017149142920971,0.0,0.0,0.0,0.0,0.0,0.0,0.0,0.0,0.0
1606986330345335317,307438,1606982729752713798,imu_link,0.0005836395430378616,0.004985470324754715,0.5250344276428223,0.8510662317276001,0.0,0.0,0.0,0.0,0.0,0.0,0.0,0.0,0.0,63.34341049194336,0.4510982632637024,0.35688114166259766,0.0,0.0,0.0,0.0,0.0,0.0,0.0,0.0,0.0,0.018619298934936523,0.00925387442111969,0.02017149142920971,0.0,0.0,0.0,0.0,0.0,0.0,0.0,0.0,0.0
1606986330345353188,307439,1606982729752875813,imu_link,0.0005807163543067873,0.004986121319234371,0.5250411629676819,0.851061999797821,0.0,0.0,0.0,0.0,0.0,0.0,0.0,0.0,0.0,63.34432601928711,0.45133471488952637,0.3566388487815857,0.0,0.0,0.0,0.0,0.0,0.0,0.0,0.0,0.0,0.002371815964579582,0.01076838094741106,0.023521950468420982,0.0,0.0,0.0,0.0,0.0,0.0,0.0,0.0,0.0
1606986330345372647,307440,1606982729752966992,imu_link,0.0005807163543067873,0.004986121319234371,0.5250411629676819,0.851061999797821,0.0,0.0,0.0,0.0,0.0,0.0,0.0,0.0,0.0,63.34432601928711,0.45133471488952637,0.3566388487815857,0.0,0.0,0.0,0.0,0.0,0.0,0.0,0.0,0.0,0.002371815964579582,0.01076838094741106,0.023521950468420982,0.0,0.0,0.0,0.0,0.0,0.0,0.0,0.0,0.0
1606986330345423682,307441,1606982729753043244,imu_link,0.0005791055737063289,0.0049873096868395805,0.525040328502655,0.851062536239624,0.0,0.0,0.0,0.0,0.0,0.0,0.0,0.0,0.0,63.344207763671875,0.4515479505062103,0.3565528094768524,0.0,0.0,0.0,0.0,0.0,0.0,0.0,0.0,0.0,-0.014766774140298367,0.0024223066866397858,0.02501152642071247,0.0,0.0,0.0,0.0,0.0,0.0,0.0,0.0,0.0
1606986330345488962,307442,1606982729753116925,imu_link,0.0005791055737063289,0.0049873096868395805,0.525040328502655,0.851062536239624,0.0,0.0,0.0,0.0,0.0,0.0,0.0,0.0,0.0,63.344207763671875,0.4515479505062103,0.3565528094768524,0.0,0.0,0.0,0.0,0.0,0.0,0.0,0.0,0.0,-0.014766774140298367,0.0024223066866397858,0.02501152642071247,0.0,0.0,0.0,0.0,0.0,0.0,0.0,0.0,0.0
1606986330350792234,307443,1606982729753219666,imu_link,0.0005797534831799567,0.004986167419701815,0.5250388979911804,0.8510634303092957,0.0,0.0,0.0,0.0,0.0,0.0,0.0,0.0,0.0,63.344017028808594,0.45139822363853455,0.3565465211868286,0.0,0.0,0.0,0.0,0.0,0.0,0.0,0.0,0.0,-0.023571394383907318,-0.008003922179341316,0.018338652327656746,0.0,0.0,0.0,0.0,0.0,0.0,0.0,0.0,0.0
1606986330350823635,307444,1606982729753299273,imu_link,0.0005797534831799567,0.004986167419701815,0.5250388979911804,0.8510634303092957,0.0,0.0,0.0,0.0,0.0,0.0,0.0,0.0,0.0,63.344017028808594,0.45139822363853455,0.3565465211868286,0.0,0.0,0.0,0.0,0.0,0.0,0.0,0.0,0.0,-0.023571394383907318,-0.008003922179341316,0.018338652327656746,0.0,0.0,0.0,0.0,0.0,0.0,0.0,0.0,0.0
1606986330350861849,307445,1606982729753371934,imu_link,0.0005796314217150211,0.004986090119928122,0.525037944316864,0.8510640263557434,0.0,0.0,0.0,0.0,0.0,0.0,0.0,0.0,0.0,63.34388732910156,0.45139843225479126,0.35652944445610046,0.0,0.0,0.0,0.0,0.0,0.0,0.0,0.0,0.0,-0.0012930282391607761,-0.018716691061854362,-0.004048134200274944,0.0,0.0,0.0,0.0,0.0,0.0,0.0,0.0,0.0
1606986330350877101,307446,1606982729753445812,imu_link,0.0005796314217150211,0.004986090119928122,0.525037944316864,0.8510640263557434,0.0,0.0,0.0,0.0,0.0,0.0,0.0,0.0,0.0,63.34388732910156,0.45139843225479126,0.35652944445610046,0.0,0.0,0.0,0.0,0.0,0.0,0.0,0.0,0.0,-0.0012930282391607761,-0.018716691061854362,-0.004048134200274944,0.0,0.0,0.0,0.0,0.0,0.0,0.0,0.0,0.0
1606986330350942959,307447,1606982729753519431,imu_link,0.0005832779570482671,0.004984676372259855,0.525035560131073,0.8510655760765076,0.0,0.0,0.0,0.0,0.0,0.0,0.0,0.0,0.0,63.34355926513672,0.45104214549064636,0.3567987084388733,0.0,0.0,0.0,0.0,0.0,0.0,0.0,0.0,0.0,0.017096007242798805,-0.015329219400882721,-0.002665452193468809,0.0,0.0,0.0,0.0,0.0,0.0,0.0,0.0,0.0
1606986330359710818,307448,1606982729766471076,imu_link,0.0005832779570482671,0.004984676372259855,0.525035560131073,0.8510655760765076,0.0,0.0,0.0,0.0,0.0,0.0,0.0,0.0,0.0,63.34355926513672,0.45104214549064636,0.3567987084388733,0.0,0.0,0.0,0.0,0.0,0.0,0.0,0.0,0.0,0.017096007242798805,-0.015329219400882721,-0.002665452193468809,0.0,0.0,0.0,0.0,0.0,0.0,0.0,0.0,0.0
1606986330359738923,307449,1606982729766596326,imu_link,0.0005829427391290665,0.004984627477824688,0.5250357389450073,0.8510653972625732,0.0,0.0,0.0,0.0,0.0,0.0,0.0,0.0,0.0,63.34358596801758,0.45105746388435364,0.35676318407058716,0.0,0.0,0.0,0.0,0.0,0.0,0.0,0.0,0.0,0.014196730218827724,-0.0038121347315609455,0.011461911723017693,0.0,0.0,0.0,0.0,0.0,0.0,0.0,0.0,0.0
1606986330359755577,307450,1606982729766765142,imu_link,0.0005829427391290665,0.004984627477824688,0.5250357389450073,0.8510653972625732,0.0,0.0,0.0,0.0,0.0,0.0,0.0,0.0,0.0,63.34358596801758,0.45105746388435364,0.35676318407058716,0.0,0.0,0.0,0.0,0.0,0.0,0.0,0.0,0.0,0.014196730218827724,-0.0038121347315609455,0.011461911723017693,0.0,0.0,0.0,0.0,0.0,0.0,0.0,0.0,0.0
1606986330359765611,307451,1606982729766839065,imu_link,0.0005814106552861631,0.004985166247934103,0.5250436663627625,0.8510605096817017,0.0,0.0,0.0,0.0,0.0,0.0,0.0,0.0,0.0,63.34465408325195,0.4511988162994385,0.35665038228034973,0.0,0.0,0.0,0.0,0.0,0.0,0.0,0.0,0.0,-0.0059760925360023975,-0.0054322583600878716,0.02521938644349575,0.0,0.0,0.0,0.0,0.0,0.0,0.0,0.0,0.0
1606986330359774418,307452,1606982729766907752,imu_link,0.0005814106552861631,0.004985166247934103,0.5250436663627625,0.8510605096817017,0.0,0.0,0.0,0.0,0.0,0.0,0.0,0.0,0.0,63.34465408325195,0.4511988162994385,0.35665038228034973,0.0,0.0,0.0,0.0,0.0,0.0,0.0,0.0,0.0,-0.0059760925360023975,-0.0054322583600878716,0.02521938644349575,0.0,0.0,0.0,0.0,0.0,0.0,0.0,0.0,0.0
1606986330359781384,307453,1606982729767060520,imu_link,0.0005802256055176258,0.004985111765563488,0.5250450968742371,0.85105961561203,0.0,0.0,0.0,0.0,0.0,0.0,0.0,0.0,0.0,63.344852447509766,0.45126423239707947,0.35653233528137207,0.0,0.0,0.0,0.0,0.0,0.0,0.0,0.0,0.0,-0.02161184884607792,-0.015323561616241932,0.025199729949235916,0.0,0.0,0.0,0.0,0.0,0.0,0.0,0.0,0.0
1606986330359787674,307454,1606982729767163673,imu_link,0.0005802256055176258,0.004985111765563488,0.5250450968742371,0.85105961561203,0.0,0.0,0.0,0.0,0.0,0.0,0.0,0.0,0.0,63.344852447509766,0.45126423239707947,0.35653233528137207,0.0,0.0,0.0,0.0,0.0,0.0,0.0,0.0,0.0,-0.02161184884607792,-0.015323561616241932,0.025199729949235916,0.0,0.0,0.0,0.0,0.0,0.0,0.0,0.0,0.0
1606986330359805640,307455,1606982729767238621,imu_link,0.000583225570153445,0.004985136445611715,0.5250517129898071,0.8510555624961853,0.0,0.0,0.0,0.0,0.0,0.0,0.0,0.0,0.0,63.34573745727539,0.45108333230018616,0.3568298816680908,0.0,0.0,0.0,0.0,0.0,0.0,0.0,0.0,0.0,-0.012813664972782135,-0.013637645170092583,0.019019396975636482,0.0,0.0,0.0,0.0,0.0,0.0,0.0,0.0,0.0
1606986330359810702,307456,1606982729767315336,imu_link,0.000583225570153445,0.004985136445611715,0.5250517129898071,0.8510555624961853,0.0,0.0,0.0,0.0,0.0,0.0,0.0,0.0,0.0,63.34573745727539,0.45108333230018616,0.3568298816680908,0.0,0.0,0.0,0.0,0.0,0.0,0.0,0.0,0.0,-0.012813664972782135,-0.013637645170092583,0.019019396975636482,0.0,0.0,0.0,0.0,0.0,0.0,0.0,0.0,0.0
1606986330359817708,307457,1606982729767385365,imu_link,0.0005845433915965259,0.004985112696886063,0.5250503420829773,0.8510563969612122,0.0,0.0,0.0,0.0,0.0,0.0,0.0,0.0,0.0,63.34555435180664,0.4510023295879364,0.35695624351501465,0.0,0.0,0.0,0.0,0.0,0.0,0.0,0.0,0.0,-0.005703421775251627,-0.0018468115013092756,0.013872836716473103,0.0,0.0,0.0,0.0,0.0,0.0,0.0,0.0,0.0
1606986330359837586,307458,1606982729767457720,imu_link,0.0005845433915965259,0.004985112696886063,0.5250503420829773,0.8510563969612122,0.0,0.0,0.0,0.0,0.0,0.0,0.0,0.0,0.0,63.34555435180664,0.4510023295879364,0.35695624351501465,0.0,0.0,0.0,0.0,0.0,0.0,0.0,0.0,0.0,-0.005703421775251627,-0.0018468115013092756,0.013872836716473103,0.0,0.0,0.0,0.0,0.0,0.0,0.0,0.0,0.0
1606986330364602090,307459,1606982729779969149,imu_link,0.0005843823892064393,0.0049854665994644165,0.5250502228736877,0.8510564565658569,0.0,0.0,0.0,0.0,0.0,0.0,0.0,0.0,0.0,63.34553909301758,0.45104649662971497,0.35696175694465637,0.0,0.0,0.0,0.0,0.0,0.0,0.0,0.0,0.0,0.002096121199429035,0.00029230330255813897,-0.0008512992644682527,0.0,0.0,0.0,0.0,0.0,0.0,0.0,0.0,0.0
1606986330364614530,307460,1606982729780114425,imu_link,0.0005843823892064393,0.0049854665994644165,0.5250502228736877,0.8510564565658569,0.0,0.0,0.0,0.0,0.0,0.0,0.0,0.0,0.0,63.34553909301758,0.45104649662971497,0.35696175694465637,0.0,0.0,0.0,0.0,0.0,0.0,0.0,0.0,0.0,0.002096121199429035,0.00029230330255813897,-0.0008512992644682527,0.0,0.0,0.0,0.0,0.0,0.0,0.0,0.0,0.0
1606986330364623117,307461,1606982729780295875,imu_link,0.0005831109592691064,0.004986664280295372,0.5250491499900818,0.8510571122169495,0.0,0.0,0.0,0.0,0.0,0.0,0.0,0.0,0.0,63.34539794921875,0.45124027132987976,0.3569093346595764,0.0,0.0,0.0,0.0,0.0,0.0,0.0,0.0,0.0,-0.003007275052368641,0.002341560088098049,-0.0065455189906060696,0.0,0.0,0.0,0.0,0.0,0.0,0.0,0.0,0.0
1606986330364632969,307462,1606982729780382210,imu_link,0.0005831109592691064,0.004986664280295372,0.5250491499900818,0.8510571122169495,0.0,0.0,0.0,0.0,0.0,0.0,0.0,0.0,0.0,63.34539794921875,0.45124027132987976,0.3569093346595764,0.0,0.0,0.0,0.0,0.0,0.0,0.0,0.0,0.0,-0.003007275052368641,0.002341560088098049,-0.0065455189906060696,0.0,0.0,0.0,0.0,0.0,0.0,0.0,0.0,0.0
1606986330365157760,307463,1606982729780471782,imu_link,0.0005830418085679412,0.004986276384443045,0.5250507593154907,0.8510560989379883,0.0,0.0,0.0,0.0,0.0,0.0,0.0,0.0,0.0,63.34561538696289,0.45120593905448914,0.3568800687789917,0.0,0.0,0.0,0.0,0.0,0.0,0.0,0.0,0.0,-0.0002398155047558248,0.004193292930722237,0.0014159278944134712,0.0,0.0,0.0,0.0,0.0,0.0,0.0,0.0,0.0
1606986330365170701,307464,1606982729780573999,imu_link,0.0005830418085679412,0.004986276384443045,0.5250507593154907,0.8510560989379883,0.0,0.0,0.0,0.0,0.0,0.0,0.0,0.0,0.0,63.34561538696289,0.45120593905448914,0.3568800687789917,0.0,0.0,0.0,0.0,0.0,0.0,0.0,0.0,0.0,-0.0002398155047558248,0.004193292930722237,0.0014159278944134712,0.0,0.0,0.0,0.0,0.0,0.0,0.0,0.0,0.0
1606986330365182513,307465,1606982729780653107,imu_link,0.0005844518891535699,0.004986776039004326,0.5250490307807922,0.8510571718215942,0.0,0.0,0.0,0.0,0.0,0.0,0.0,0.0,0.0,63.34538269042969,0.45117053389549255,0.3570467233657837,0.0,0.0,0.0,0.0,0.0,0.0,0.0,0.0,0.0,-0.006079148501157761,-0.004784280899912119,-0.008993539027869701,0.0,0.0,0.0,0.0,0.0,0.0,0.0,0.0,0.0
1606986330365190382,307466,1606982729780732020,imu_link,0.0005844518891535699,0.004986776039004326,0.5250490307807922,0.8510571718215942,0.0,0.0,0.0,0.0,0.0,0.0,0.0,0.0,0.0,63.34538269042969,0.45117053389549255,0.3570467233657837,0.0,0.0,0.0,0.0,0.0,0.0,0.0,0.0,0.0,-0.006079148501157761,-0.004784280899912119,-0.008993539027869701,0.0,0.0,0.0,0.0,0.0,0.0,0.0,0.0,0.0
1606986330371075778,307467,1606982729780825325,imu_link,0.0005838521756231785,0.004988281987607479,0.5250467658042908,0.8510586023330688,0.0,0.0,0.0,0.0,0.0,0.0,0.0,0.0,0.0,63.34507751464844,0.4513545036315918,0.3570776581764221,0.0,0.0,0.0,0.0,0.0,0.0,0.0,0.0,0.0,-0.028566718101501465,-0.0023915923666208982,0.0032280278392136097,0.0,0.0,0.0,0.0,0.0,0.0,0.0,0.0,0.0
1606986330371094500,307468,1606982729780914041,imu_link,0.0005838521756231785,0.004988281987607479,0.5250467658042908,0.8510586023330688,0.0,0.0,0.0,0.0,0.0,0.0,0.0,0.0,0.0,63.34507751464844,0.4513545036315918,0.3570776581764221,0.0,0.0,0.0,0.0,0.0,0.0,0.0,0.0,0.0,-0.028566718101501465,-0.0023915923666208982,0.0032280278392136097,0.0,0.0,0.0,0.0,0.0,0.0,0.0,0.0,0.0
1606986330371100426,307469,1606982729780999769,imu_link,0.0005820760852657259,0.004988284781575203,0.5250468254089355,0.8510586023330688,0.0,0.0,0.0,0.0,0.0,0.0,0.0,0.0,0.0,63.34508514404297,0.45146167278289795,0.3569045662879944,0.0,0.0,0.0,0.0,0.0,0.0,0.0,0.0,0.0,-0.02362341247498989,0.008311562240123749,0.01258392259478569,0.0,0.0,0.0,0.0,0.0,0.0,0.0,0.0,0.0
1606986330393433066,307470,1606982729792744971,imu_link,0.0005820760852657259,0.004988284781575203,0.5250468254089355,0.8510586023330688,0.0,0.0,0.0,0.0,0.0,0.0,0.0,0.0,0.0,63.34508514404297,0.45146167278289795,0.3569045662879944,0.0,0.0,0.0,0.0,0.0,0.0,0.0,0.0,0.0,-0.02362341247498989,0.008311562240123749,0.01258392259478569,0.0,0.0,0.0,0.0,0.0,0.0,0.0,0.0,0.0
1606986330393467895,307471,1606982729792882414,imu_link,0.0005830765585415065,0.004987733904272318,0.5250442624092102,0.8510600924491882,0.0,0.0,0.0,0.0,0.0,0.0,0.0,0.0,0.0,63.34474182128906,0.4513486921787262,0.3569677174091339,0.0,0.0,0.0,0.0,0.0,0.0,0.0,0.0,0.0,-0.018190912902355194,0.01205103937536478,-0.01372500415891409,0.0,0.0,0.0,0.0,0.0,0.0,0.0,0.0,0.0
1606986330393509168,307472,1606982729793037819,imu_link,0.0005830765585415065,0.004987733904272318,0.5250442624092102,0.8510600924491882,0.0,0.0,0.0,0.0,0.0,0.0,0.0,0.0,0.0,63.34474182128906,0.4513486921787262,0.3569677174091339,0.0,0.0,0.0,0.0,0.0,0.0,0.0,0.0,0.0,-0.018190912902355194,0.01205103937536478,-0.01372500415891409,0.0,0.0,0.0,0.0,0.0,0.0,0.0,0.0,0.0
1606986330393522459,307473,1606982729793143719,imu_link,0.0005819041398353875,0.004986980929970741,0.5250447988510132,0.8510597944259644,0.0,0.0,0.0,0.0,0.0,0.0,0.0,0.0,0.0,63.344810485839844,0.4513455927371979,0.3568083345890045,0.0,0.0,0.0,0.0,0.0,0.0,0.0,0.0,0.0,-0.013681495562195778,0.011796287260949612,0.013947201892733574,0.0,0.0,0.0,0.0,0.0,0.0,0.0,0.0,0.0
1606986330393536374,307474,1606982729793222366,imu_link,0.0005819041398353875,0.004986980929970741,0.5250447988510132,0.8510597944259644,0.0,0.0,0.0,0.0,0.0,0.0,0.0,0.0,0.0,63.344810485839844,0.4513455927371979,0.3568083345890045,0.0,0.0,0.0,0.0,0.0,0.0,0.0,0.0,0.0,-0.013681495562195778,0.011796287260949612,0.013947201892733574,0.0,0.0,0.0,0.0,0.0,0.0,0.0,0.0,0.0
1606986330393543206,307475,1606982729793334054,imu_link,0.0005814829492010176,0.004985133185982704,0.5250508189201355,0.8510560989379883,0.0,0.0,0.0,0.0,0.0,0.0,0.0,0.0,0.0,63.34561538696289,0.45118823647499084,0.3566592335700989,0.0,0.0,0.0,0.0,0.0,0.0,0.0,0.0,0.0,-0.008451881818473339,0.005954408552497625,0.007010191213339567,0.0,0.0,0.0,0.0,0.0,0.0,0.0,0.0,0.0
1606986330393562964,307476,1606982729793418405,imu_link,0.0005814829492010176,0.004985133185982704,0.5250508189201355,0.8510560989379883,0.0,0.0,0.0,0.0,0.0,0.0,0.0,0.0,0.0,63.34561538696289,0.45118823647499084,0.3566592335700989,0.0,0.0,0.0,0.0,0.0,0.0,0.0,0.0,0.0,-0.008451881818473339,0.005954408552497625,0.007010191213339567,0.0,0.0,0.0,0.0,0.0,0.0,0.0,0.0,0.0
1606986330393571804,307477,1606982729793495984,imu_link,0.0005809221765957773,0.0049825613386929035,0.5250497460365295,0.8510567545890808,0.0,0.0,0.0,0.0,0.0,0.0,0.0,0.0,0.0,63.34547424316406,0.4509716033935547,0.3564492464065552,0.0,0.0,0.0,0.0,0.0,0.0,0.0,0.0,0.0,0.000948204891756177,0.0024719377979636192,-0.023838574066758156,0.0,0.0,0.0,0.0,0.0,0.0,0.0,0.0,0.0
1606986330393579194,307478,1606982729793580139,imu_link,0.0005809221765957773,0.0049825613386929035,0.5250497460365295,0.8510567545890808,0.0,0.0,0.0,0.0,0.0,0.0,0.0,0.0,0.0,63.34547424316406,0.4509716033935547,0.3564492464065552,0.0,0.0,0.0,0.0,0.0,0.0,0.0,0.0,0.0,0.000948204891756177,0.0024719377979636192,-0.023838574066758156,0.0,0.0,0.0,0.0,0.0,0.0,0.0,0.0,0.0
1606986330393596230,307479,1606982729793664379,imu_link,0.0005805834662169218,0.004982477519661188,0.5250557661056519,0.8510530591011047,0.0,0.0,0.0,0.0,0.0,0.0,0.0,0.0,0.0,63.34628677368164,0.4509813189506531,0.3564143776893616,0.0,0.0,0.0,0.0,0.0,0.0,0.0,0.0,0.0,0.005342498421669006,0.005054227076470852,-0.005469476338475943,0.0,0.0,0.0,0.0,0.0,0.0,0.0,0.0,0.0
1606986330393624567,307480,1606982729806722294,imu_link,0.0005805834662169218,0.004982477519661188,0.5250557661056519,0.8510530591011047,0.0,0.0,0.0,0.0,0.0,0.0,0.0,0.0,0.0,63.34628677368164,0.4509813189506531,0.3564143776893616,0.0,0.0,0.0,0.0,0.0,0.0,0.0,0.0,0.0,0.005342498421669006,0.005054227076470852,-0.005469476338475943,0.0,0.0,0.0,0.0,0.0,0.0,0.0,0.0,0.0
1606986330393640600,307481,1606982729806869459,imu_link,0.0005805834662169218,0.004982477519661188,0.5250557661056519,0.8510530591011047,0.0,0.0,0.0,0.0,0.0,0.0,0.0,0.0,0.0,63.34628677368164,0.4509813189506531,0.3564143776893616,0.0,0.0,0.0,0.0,0.0,0.0,0.0,0.0,0.0,-0.002564644906669855,0.021331388503313065,-0.0067421505227684975,0.0,0.0,0.0,0.0,0.0,0.0,0.0,0.0,0.0
1606986330393648942,307482,1606982729807100634,imu_link,0.0005805834662169218,0.004982477519661188,0.5250557661056519,0.8510530591011047,0.0,0.0,0.0,0.0,0.0,0.0,0.0,0.0,0.0,63.34628677368164,0.4509813189506531,0.3564143776893616,0.0,0.0,0.0,0.0,0.0,0.0,0.0,0.0,0.0,-0.002564644906669855,0.021331388503313065,-0.0067421505227684975,0.0,0.0,0.0,0.0,0.0,0.0,0.0,0.0,0.0
1606986330393661163,307483,1606982729807200831,imu_link,0.000576768652535975,0.004977992735803127,0.525050938129425,0.8510560989379883,0.0,0.0,0.0,0.0,0.0,0.0,0.0,0.0,0.0,63.34562301635742,0.45077550411224365,0.3557698726654053,0.0,0.0,0.0,0.0,0.0,0.0,0.0,0.0,0.0,-0.010075455531477928,0.028636207804083824,-0.015136108733713627,0.0,0.0,0.0,0.0,0.0,0.0,0.0,0.0,0.0
1606986330393987056,307484,1606982729807288073,imu_link,0.000576768652535975,0.004977992735803127,0.525050938129425,0.8510560989379883,0.0,0.0,0.0,0.0,0.0,0.0,0.0,0.0,0.0,63.34562301635742,0.45077550411224365,0.3557698726654053,0.0,0.0,0.0,0.0,0.0,0.0,0.0,0.0,0.0,-0.010075455531477928,0.028636207804083824,-0.015136108733713627,0.0,0.0,0.0,0.0,0.0,0.0,0.0,0.0,0.0
1606986330393998902,307485,1606982729807373837,imu_link,0.0005755700403824449,0.004978307988494635,0.5250502228736877,0.8510564565658569,0.0,0.0,0.0,0.0,0.0,0.0,0.0,0.0,0.0,63.34553527832031,0.45087864995002747,0.35567164421081543,0.0,0.0,0.0,0.0,0.0,0.0,0.0,0.0,0.0,-0.0005480841500684619,0.006589361000806093,-0.015490748919546604,0.0,0.0,0.0,0.0,0.0,0.0,0.0,0.0,0.0
1606986330394009228,307486,1606982729807474279,imu_link,0.0005755700403824449,0.004978307988494635,0.5250502228736877,0.8510564565658569,0.0,0.0,0.0,0.0,0.0,0.0,0.0,0.0,0.0,63.34553527832031,0.45087864995002747,0.35567164421081543,0.0,0.0,0.0,0.0,0.0,0.0,0.0,0.0,0.0,-0.0005480841500684619,0.006589361000806093,-0.015490748919546604,0.0,0.0,0.0,0.0,0.0,0.0,0.0,0.0,0.0
1606986330394040456,307487,1606982729807605072,imu_link,0.0005752212600782514,0.004977663513273001,0.5250450968742371,0.8510596752166748,0.0,0.0,0.0,0.0,0.0,0.0,0.0,0.0,0.0,63.3448371887207,0.45083892345428467,0.3555960953235626,0.0,0.0,0.0,0.0,0.0,0.0,0.0,0.0,0.0,0.004199919756501913,-0.011837737634778023,-0.01056181825697422,0.0,0.0,0.0,0.0,0.0,0.0,0.0,0.0,0.0
1606986330402588085,307488,1606982729807698533,imu_link,0.0005752212600782514,0.004977663513273001,0.5250450968742371,0.8510596752166748,0.0,0.0,0.0,0.0,0.0,0.0,0.0,0.0,0.0,63.3448371887207,0.45083892345428467,0.3555960953235626,0.0,0.0,0.0,0.0,0.0,0.0,0.0,0.0,0.0,0.004199919756501913,-0.011837737634778023,-0.01056181825697422,0.0,0.0,0.0,0.0,0.0,0.0,0.0,0.0,0.0
1606986330402608530,307489,1606982729807780152,imu_link,0.0005760271451435983,0.004975961986929178,0.5250434279441833,0.8510607481002808,0.0,0.0,0.0,0.0,0.0,0.0,0.0,0.0,0.0,63.34461212158203,0.4506252408027649,0.3555713891983032,0.0,0.0,0.0,0.0,0.0,0.0,0.0,0.0,0.0,0.008112890645861626,-0.00605192594230175,0.008213728666305542,0.0,0.0,0.0,0.0,0.0,0.0,0.0,0.0,0.0
1606986330402632946,307490,1606982729807855351,imu_link,0.0005760271451435983,0.004975961986929178,0.5250434279441833,0.8510607481002808,0.0,0.0,0.0,0.0,0.0,0.0,0.0,0.0,0.0,63.34461212158203,0.4506252408027649,0.3555713891983032,0.0,0.0,0.0,0.0,0.0,0.0,0.0,0.0,0.0,0.008112890645861626,-0.00605192594230175,0.008213728666305542,0.0,0.0,0.0,0.0,0.0,0.0,0.0,0.0,0.0
1606986330406442790,307491,1606982729820021753,imu_link,0.0005761627107858658,0.004977083299309015,0.5250452756881714,0.85105961561203,0.0,0.0,0.0,0.0,0.0,0.0,0.0,0.0,0.0,63.34485626220703,0.4507257044315338,0.3556530177593231,0.0,0.0,0.0,0.0,0.0,0.0,0.0,0.0,0.0,0.0067769624292850494,0.004101497121155262,0.009973270818591118,0.0,0.0,0.0,0.0,0.0,0.0,0.0,0.0,0.0
1606986330406459078,307492,1606982729820162884,imu_link,0.0005761627107858658,0.004977083299309015,0.5250452756881714,0.85105961561203,0.0,0.0,0.0,0.0,0.0,0.0,0.0,0.0,0.0,63.34485626220703,0.4507257044315338,0.3556530177593231,0.0,0.0,0.0,0.0,0.0,0.0,0.0,0.0,0.0,0.0067769624292850494,0.004101497121155262,0.009973270818591118,0.0,0.0,0.0,0.0,0.0,0.0,0.0,0.0,0.0
1606986330406468600,307493,1606982729820348855,imu_link,0.0005759937921538949,0.004978449549525976,0.5250447988510132,0.8510599136352539,0.0,0.0,0.0,0.0,0.0,0.0,0.0,0.0,0.0,63.34479522705078,0.45086923241615295,0.35571855306625366,0.0,0.0,0.0,0.0,0.0,0.0,0.0,0.0,0.0,0.004595425445586443,0.004626688081771135,0.0008467141888104379,0.0,0.0,0.0,0.0,0.0,0.0,0.0,0.0,0.0
1606986330406480856,307494,1606982729820436042,imu_link,0.0005759937921538949,0.004978449549525976,0.5250447988510132,0.8510599136352539,0.0,0.0,0.0,0.0,0.0,0.0,0.0,0.0,0.0,63.34479522705078,0.45086923241615295,0.35571855306625366,0.0,0.0,0.0,0.0,0.0,0.0,0.0,0.0,0.0,0.004595425445586443,0.004626688081771135,0.0008467141888104379,0.0,0.0,0.0,0.0,0.0,0.0,0.0,0.0,0.0
1606986330406490695,307495,1606982729820511416,imu_link,0.0005728863761760294,0.004979308694601059,0.5250465273857117,0.851058840751648,0.0,0.0,0.0,0.0,0.0,0.0,0.0,0.0,0.0,63.345027923583984,0.45113930106163025,0.3554680645465851,0.0,0.0,0.0,0.0,0.0,0.0,0.0,0.0,0.0,0.007351565174758434,-0.006808438338339329,0.0006361202104017138,0.0,0.0,0.0,0.0,0.0,0.0,0.0,0.0,0.0
1606986330407198968,307496,1606982729820612355,imu_link,0.0005728863761760294,0.004979308694601059,0.5250465273857117,0.851058840751648,0.0,0.0,0.0,0.0,0.0,0.0,0.0,0.0,0.0,63.345027923583984,0.45113930106163025,0.3554680645465851,0.0,0.0,0.0,0.0,0.0,0.0,0.0,0.0,0.0,0.007351565174758434,-0.006808438338339329,0.0006361202104017138,0.0,0.0,0.0,0.0,0.0,0.0,0.0,0.0,0.0
1606986330407214015,307497,1606982729820712481,imu_link,0.0005741954664699733,0.0049804882146418095,0.5250453948974609,0.8510595560073853,0.0,0.0,0.0,0.0,0.0,0.0,0.0,0.0,0.0,63.344879150390625,0.4511760175228119,0.3556661009788513,0.0,0.0,0.0,0.0,0.0,0.0,0.0,0.0,0.0,0.01214552205055952,-0.0025481816846877337,0.004384138621389866,0.0,0.0,0.0,0.0,0.0,0.0,0.0,0.0,0.0
1606986330407220539,307498,1606982729820798916,imu_link,0.0005741954664699733,0.0049804882146418095,0.5250453948974609,0.8510595560073853,0.0,0.0,0.0,0.0,0.0,0.0,0.0,0.0,0.0,63.344879150390625,0.4511760175228119,0.3556661009788513,0.0,0.0,0.0,0.0,0.0,0.0,0.0,0.0,0.0,0.01214552205055952,-0.0025481816846877337,0.004384138621389866,0.0,0.0,0.0,0.0,0.0,0.0,0.0,0.0,0.0
1606986330407233516,307499,1606982729820882861,imu_link,0.000575451587792486,0.004981366451829672,0.525044322013855,0.8510600924491882,0.0,0.0,0.0,0.0,0.0,0.0,0.0,0.0,0.0,63.34474182128906,0.45118647813796997,0.3558409512042999,0.0,0.0,0.0,0.0,0.0,0.0,0.0,0.0,0.0,0.021954191848635674,0.0007322667515836656,0.011192417703568935,0.0,0.0,0.0,0.0,0.0,0.0,0.0,0.0,0.0
1606986330407246091,307500,1606982729820967266,imu_link,0.000575451587792486,0.004981366451829672,0.525044322013855,0.8510600924491882,0.0,0.0,0.0,0.0,0.0,0.0,0.0,0.0,0.0,63.34474182128906,0.45118647813796997,0.3558409512042999,0.0,0.0,0.0,0.0,0.0,0.0,0.0,0.0,0.0,0.021954191848635674,0.0007322667515836656,0.011192417703568935,0.0,0.0,0.0,0.0,0.0,0.0,0.0,0.0,0.0
1606986330407256773,307501,1606982729821043798,imu_link,0.0005743912770412862,0.004981762729585171,0.5250439643859863,0.8510603308677673,0.0,0.0,0.0,0.0,0.0,0.0,0.0,0.0,0.0,63.34469223022461,0.4512890875339508,0.35576122999191284,0.0,0.0,0.0,0.0,0.0,0.0,0.0,0.0,0.0,0.017248408868908882,0.014942899346351624,0.01794063113629818,0.0,0.0,0.0,0.0,0.0,0.0,0.0,0.0,0.0
1606986330417995389,307502,1606982729833807678,imu_link,0.0005743912770412862,0.004981762729585171,0.5250439643859863,0.8510603308677673,0.0,0.0,0.0,0.0,0.0,0.0,0.0,0.0,0.0,63.34469223022461,0.4512890875339508,0.35576122999191284,0.0,0.0,0.0,0.0,0.0,0.0,0.0,0.0,0.0,0.017248408868908882,0.014942899346351624,0.01794063113629818,0.0,0.0,0.0,0.0,0.0,0.0,0.0,0.0,0.0
1606986330419174755,307503,1606982729833953390,imu_link,0.000571429030969739,0.004985445644706488,0.5250454545021057,0.8510593771934509,0.0,0.0,0.0,0.0,0.0,0.0,0.0,0.0,0.0,63.34489822387695,0.451825886964798,0.3556947410106659,0.0,0.0,0.0,0.0,0.0,0.0,0.0,0.0,0.0,0.01622965559363365,0.024941381067037582,0.0008419915102422237,0.0,0.0,0.0,0.0,0.0,0.0,0.0,0.0,0.0
1606986330419193119,307504,1606982729834096316,imu_link,0.000571429030969739,0.004985445644706488,0.5250454545021057,0.8510593771934509,0.0,0.0,0.0,0.0,0.0,0.0,0.0,0.0,0.0,63.34489822387695,0.451825886964798,0.3556947410106659,0.0,0.0,0.0,0.0,0.0,0.0,0.0,0.0,0.0,0.01622965559363365,0.024941381067037582,0.0008419915102422237,0.0,0.0,0.0,0.0,0.0,0.0,0.0,0.0,0.0
1606986330419212234,307505,1606982729834176135,imu_link,0.0005724428337998688,0.0049870614893734455,0.5250435471534729,0.8510605692863464,0.0,0.0,0.0,0.0,0.0,0.0,0.0,0.0,0.0,63.34463882446289,0.45192328095436096,0.35588979721069336,0.0,0.0,0.0,0.0,0.0,0.0,0.0,0.0,0.0,0.011319552548229694,0.006081463769078255,-0.012475631199777126,0.0,0.0,0.0,0.0,0.0,0.0,0.0,0.0,0.0
1606986330419299497,307506,1606982729834252758,imu_link,0.0005724428337998688,0.0049870614893734455,0.5250435471534729,0.8510605692863464,0.0,0.0,0.0,0.0,0.0,0.0,0.0,0.0,0.0,63.34463882446289,0.45192328095436096,0.35588979721069336,0.0,0.0,0.0,0.0,0.0,0.0,0.0,0.0,0.0,0.011319552548229694,0.006081463769078255,-0.012475631199777126,0.0,0.0,0.0,0.0,0.0,0.0,0.0,0.0,0.0
1606986330419312390,307507,1606982729834351802,imu_link,0.000570633914321661,0.0049874200485646725,0.5250476002693176,0.8510580658912659,0.0,0.0,0.0,0.0,0.0,0.0,0.0,0.0,0.0,63.345184326171875,0.45206543803215027,0.3557371199131012,0.0,0.0,0.0,0.0,0.0,0.0,0.0,0.0,0.0,0.006001205183565617,0.0006594217848032713,-0.022538980469107628,0.0,0.0,0.0,0.0,0.0,0.0,0.0,0.0,0.0
1606986330419319804,307508,1606982729834441324,imu_link,0.000570633914321661,0.0049874200485646725,0.5250476002693176,0.8510580658912659,0.0,0.0,0.0,0.0,0.0,0.0,0.0,0.0,0.0,63.345184326171875,0.45206543803215027,0.3557371199131012,0.0,0.0,0.0,0.0,0.0,0.0,0.0,0.0,0.0,0.006001205183565617,0.0006594217848032713,-0.022538980469107628,0.0,0.0,0.0,0.0,0.0,0.0,0.0,0.0,0.0
1606986330419326825,307509,1606982729834567767,imu_link,0.00057075364748016,0.004987048916518688,0.5250452160835266,0.85105961561203,0.0,0.0,0.0,0.0,0.0,0.0,0.0,0.0,0.0,63.34485626220703,0.4520230293273926,0.35572516918182373,0.0,0.0,0.0,0.0,0.0,0.0,0.0,0.0,0.0,0.0020127964671701193,0.008216110989451408,-0.008056891150772572,0.0,0.0,0.0,0.0,0.0,0.0,0.0,0.0,0.0
1606986330420297770,307510,1606982729834712898,imu_link,0.00057075364748016,0.004987048916518688,0.5250452160835266,0.85105961561203,0.0,0.0,0.0,0.0,0.0,0.0,0.0,0.0,0.0,63.34485626220703,0.4520230293273926,0.35572516918182373,0.0,0.0,0.0,0.0,0.0,0.0,0.0,0.0,0.0,0.0020127964671701193,0.008216110989451408,-0.008056891150772572,0.0,0.0,0.0,0.0,0.0,0.0,0.0,0.0,0.0
1606986330420308493,307511,1606982729834828841,imu_link,0.0005690655088983476,0.004988628439605236,0.5250526070594788,0.8510550260543823,0.0,0.0,0.0,0.0,0.0,0.0,0.0,0.0,0.0,63.345855712890625,0.4522755742073059,0.35565951466560364,0.0,0.0,0.0,0.0,0.0,0.0,0.0,0.0,0.0,0.0041823917999863625,0.011417402885854244,0.023759426549077034,0.0,0.0,0.0,0.0,0.0,0.0,0.0,0.0,0.0
1606986330420327656,307512,1606982729834909538,imu_link,0.0005690655088983476,0.004988628439605236,0.5250526070594788,0.8510550260543823,0.0,0.0,0.0,0.0,0.0,0.0,0.0,0.0,0.0,63.345855712890625,0.4522755742073059,0.35565951466560364,0.0,0.0,0.0,0.0,0.0,0.0,0.0,0.0,0.0,0.0041823917999863625,0.011417402885854244,0.023759426549077034,0.0,0.0,0.0,0.0,0.0,0.0,0.0,0.0,0.0
1606986330431080385,307513,1606982729846796112,imu_link,0.0005702355410903692,0.004989574663341045,0.5250529646873474,0.8510547876358032,0.0,0.0,0.0,0.0,0.0,0.0,0.0,0.0,0.0,63.34590148925781,0.45229730010032654,0.35583075881004333,0.0,0.0,0.0,0.0,0.0,0.0,0.0,0.0,0.0,-0.009717962704598904,0.0042208838276565075,0.007591702044010162,0.0,0.0,0.0,0.0,0.0,0.0,0.0,0.0,0.0
1606986330432212020,307514,1606982729846973572,imu_link,0.0005702355410903692,0.004989574663341045,0.5250529646873474,0.8510547876358032,0.0,0.0,0.0,0.0,0.0,0.0,0.0,0.0,0.0,63.34590148925781,0.45229730010032654,0.35583075881004333,0.0,0.0,0.0,0.0,0.0,0.0,0.0,0.0,0.0,-0.009717962704598904,0.0042208838276565075,0.007591702044010162,0.0,0.0,0.0,0.0,0.0,0.0,0.0,0.0,0.0
1606986330432233393,307515,1606982729847148267,imu_link,0.0005718219326809049,0.004988137166947126,0.5250598192214966,0.8510505557060242,0.0,0.0,0.0,0.0,0.0,0.0,0.0,0.0,0.0,63.346832275390625,0.4520587623119354,0.3559025824069977,0.0,0.0,0.0,0.0,0.0,0.0,0.0,0.0,0.0,-0.027393223717808723,-0.0017813476733863354,-0.011859562247991562,0.0,0.0,0.0,0.0,0.0,0.0,0.0,0.0,0.0
1606986330432282678,307516,1606982729847231374,imu_link,0.0005718219326809049,0.004988137166947126,0.5250598192214966,0.8510505557060242,0.0,0.0,0.0,0.0,0.0,0.0,0.0,0.0,0.0,63.346832275390625,0.4520587623119354,0.3559025824069977,0.0,0.0,0.0,0.0,0.0,0.0,0.0,0.0,0.0,-0.027393223717808723,-0.0017813476733863354,-0.011859562247991562,0.0,0.0,0.0,0.0,0.0,0.0,0.0,0.0,0.0
1606986330432296311,307517,1606982729847305491,imu_link,0.0005726145463995636,0.004985741805285215,0.5250601768493652,0.8510503768920898,0.0,0.0,0.0,0.0,0.0,0.0,0.0,0.0,0.0,63.34687423706055,0.4517773389816284,0.3558359444141388,0.0,0.0,0.0,0.0,0.0,0.0,0.0,0.0,0.0,-0.012922248803079128,-0.0072717731818556786,-0.0009618166950531304,0.0,0.0,0.0,0.0,0.0,0.0,0.0,0.0,0.0
1606986330432305844,307518,1606982729847420186,imu_link,0.0005726145463995636,0.004985741805285215,0.5250601768493652,0.8510503768920898,0.0,0.0,0.0,0.0,0.0,0.0,0.0,0.0,0.0,63.34687423706055,0.4517773389816284,0.3558359444141388,0.0,0.0,0.0,0.0,0.0,0.0,0.0,0.0,0.0,-0.012922248803079128,-0.0072717731818556786,-0.0009618166950531304,0.0,0.0,0.0,0.0,0.0,0.0,0.0,0.0,0.0
1606986330432316079,307519,1606982729847504431,imu_link,0.0005753010045737028,0.0049845208413898945,0.5250673294067383,0.8510458469390869,0.0,0.0,0.0,0.0,0.0,0.0,0.0,0.0,0.0,63.347843170166016,0.4514935612678528,0.356028288602829,0.0,0.0,0.0,0.0,0.0,0.0,0.0,0.0,0.0,-0.0073391650803387165,-0.004245075862854719,0.019170787185430527,0.0,0.0,0.0,0.0,0.0,0.0,0.0,0.0,0.0
1606986330432342955,307520,1606982729847581605,imu_link,0.0005753010045737028,0.0049845208413898945,0.5250673294067383,0.8510458469390869,0.0,0.0,0.0,0.0,0.0,0.0,0.0,0.0,0.0,63.347843170166016,0.4514935612678528,0.356028288602829,0.0,0.0,0.0,0.0,0.0,0.0,0.0,0.0,0.0,-0.0073391650803387165,-0.004245075862854719,0.019170787185430527,0.0,0.0,0.0,0.0,0.0,0.0,0.0,0.0,0.0
1606986330432355248,307521,1606982729847711866,imu_link,0.0005746767274104059,0.004984566476196051,0.5250675082206726,0.8510457277297974,0.0,0.0,0.0,0.0,0.0,0.0,0.0,0.0,0.0,63.347869873046875,0.45153555274009705,0.3559702932834625,0.0,0.0,0.0,0.0,0.0,0.0,0.0,0.0,0.0,0.0016304696910083294,0.0005842422833666205,0.023541361093521118,0.0,0.0,0.0,0.0,0.0,0.0,0.0,0.0,0.0
1606986330433441317,307522,1606982729847800336,imu_link,0.0005746767274104059,0.004984566476196051,0.5250675082206726,0.8510457277297974,0.0,0.0,0.0,0.0,0.0,0.0,0.0,0.0,0.0,63.347869873046875,0.45153555274009705,0.3559702932834625,0.0,0.0,0.0,0.0,0.0,0.0,0.0,0.0,0.0,0.0016304696910083294,0.0005842422833666205,0.023541361093521118,0.0,0.0,0.0,0.0,0.0,0.0,0.0,0.0,0.0
1606986330444504931,307523,1606982729860170379,imu_link,0.0005747440154664218,0.0049852835945785046,0.5250648260116577,0.8510474562644958,0.0,0.0,0.0,0.0,0.0,0.0,0.0,0.0,0.0,63.34749984741211,0.451602578163147,0.3560184836387634,0.0,0.0,0.0,0.0,0.0,0.0,0.0,0.0,0.0,0.013769620098173618,0.0029684887267649174,0.0015759897651150823,0.0,0.0,0.0,0.0,0.0,0.0,0.0,0.0,0.0
1606986330445752215,307524,1606982729860316071,imu_link,0.0005747440154664218,0.0049852835945785046,0.5250648260116577,0.8510474562644958,0.0,0.0,0.0,0.0,0.0,0.0,0.0,0.0,0.0,63.34749984741211,0.451602578163147,0.3560184836387634,0.0,0.0,0.0,0.0,0.0,0.0,0.0,0.0,0.0,0.013769620098173618,0.0029684887267649174,0.0015759897651150823,0.0,0.0,0.0,0.0,0.0,0.0,0.0,0.0,0.0
1606986330445773728,307525,1606982729860483609,imu_link,0.0005757965845987201,0.004984245169907808,0.5250635743141174,0.8510482311248779,0.0,0.0,0.0,0.0,0.0,0.0,0.0,0.0,0.0,63.34733200073242,0.4514384865760803,0.3560580015182495,0.0,0.0,0.0,0.0,0.0,0.0,0.0,0.0,0.0,0.0044816336594522,0.005201709922403097,-0.014825488440692425,0.0,0.0,0.0,0.0,0.0,0.0,0.0,0.0,0.0
1606986330445812492,307526,1606982729860570871,imu_link,0.0005757965845987201,0.004984245169907808,0.5250635743141174,0.8510482311248779,0.0,0.0,0.0,0.0,0.0,0.0,0.0,0.0,0.0,63.34733200073242,0.4514384865760803,0.3560580015182495,0.0,0.0,0.0,0.0,0.0,0.0,0.0,0.0,0.0,0.0044816336594522,0.005201709922403097,-0.014825488440692425,0.0,0.0,0.0,0.0,0.0,0.0,0.0,0.0,0.0
1606986330445833528,307527,1606982729860648906,imu_link,0.0005733103025704622,0.004983772523701191,0.5250627994537354,0.8510487079620361,0.0,0.0,0.0,0.0,0.0,0.0,0.0,0.0,0.0,63.34722900390625,0.45154228806495667,0.3557867109775543,0.0,0.0,0.0,0.0,0.0,0.0,0.0,0.0,0.0,0.003929241094738245,-0.0076721408404409885,-0.005451073404401541,0.0,0.0,0.0,0.0,0.0,0.0,0.0,0.0,0.0
1606986330445844723,307528,1606982729860725448,imu_link,0.0005733103025704622,0.004983772523701191,0.5250627994537354,0.8510487079620361,0.0,0.0,0.0,0.0,0.0,0.0,0.0,0.0,0.0,63.34722900390625,0.45154228806495667,0.3557867109775543,0.0,0.0,0.0,0.0,0.0,0.0,0.0,0.0,0.0,0.003929241094738245,-0.0076721408404409885,-0.005451073404401541,0.0,0.0,0.0,0.0,0.0,0.0,0.0,0.0,0.0
1606986330445878522,307529,1606982729860840029,imu_link,0.0005718031316064298,0.004984863568097353,0.5250610709190369,0.8510497808456421,0.0,0.0,0.0,0.0,0.0,0.0,0.0,0.0,0.0,63.34699630737305,0.4517401456832886,0.3557044267654419,0.0,0.0,0.0,0.0,0.0,0.0,0.0,0.0,0.0,0.013111164793372154,-0.02480829320847988,-0.0004970000591129065,0.0,0.0,0.0,0.0,0.0,0.0,0.0,0.0,0.0
1606986330445886959,307530,1606982729860926804,imu_link,0.0005718031316064298,0.004984863568097353,0.5250610709190369,0.8510497808456421,0.0,0.0,0.0,0.0,0.0,0.0,0.0,0.0,0.0,63.34699630737305,0.4517401456832886,0.3557044267654419,0.0,0.0,0.0,0.0,0.0,0.0,0.0,0.0,0.0,0.013111164793372154,-0.02480829320847988,-0.0004970000591129065,0.0,0.0,0.0,0.0,0.0,0.0,0.0,0.0,0.0
1606986330445895602,307531,1606982729861005071,imu_link,0.0005740519263781607,0.004986100364476442,0.5250558853149414,0.85105299949646,0.0,0.0,0.0,0.0,0.0,0.0,0.0,0.0,0.0,63.34629821777344,0.45172759890556335,0.35599538683891296,0.0,0.0,0.0,0.0,0.0,0.0,0.0,0.0,0.0,0.01078058686107397,-0.014555155299603939,0.00018401908164378256,0.0,0.0,0.0,0.0,0.0,0.0,0.0,0.0,0.0
1606986330445908984,307532,1606982729861085777,imu_link,0.0005740519263781607,0.004986100364476442,0.5250558853149414,0.85105299949646,0.0,0.0,0.0,0.0,0.0,0.0,0.0,0.0,0.0,63.34629821777344,0.45172759890556335,0.35599538683891296,0.0,0.0,0.0,0.0,0.0,0.0,0.0,0.0,0.0,0.01078058686107397,-0.014555155299603939,0.00018401908164378256,0.0,0.0,0.0,0.0,0.0,0.0,0.0,0.0,0.0
1606986330445916388,307533,1606982729861168118,imu_link,0.0005736069870181382,0.0049862428568303585,0.5250568389892578,0.8510524034500122,0.0,0.0,0.0,0.0,0.0,0.0,0.0,0.0,0.0,63.34642791748047,0.4517678916454315,0.3559610843658447,0.0,0.0,0.0,0.0,0.0,0.0,0.0,0.0,0.0,0.0019301901338621974,0.006733933463692665,-0.0014457555953413248,0.0,0.0,0.0,0.0,0.0,0.0,0.0,0.0,0.0
1606986330458341697,307534,1606982729874001468,imu_link,0.0005736069870181382,0.0049862428568303585,0.5250568389892578,0.8510524034500122,0.0,0.0,0.0,0.0,0.0,0.0,0.0,0.0,0.0,63.34642791748047,0.4517678916454315,0.3559610843658447,0.0,0.0,0.0,0.0,0.0,0.0,0.0,0.0,0.0,0.0019301901338621974,0.006733933463692665,-0.0014457555953413248,0.0,0.0,0.0,0.0,0.0,0.0,0.0,0.0,0.0
1606986330459500264,307535,1606982729874151009,imu_link,0.0005730011034756899,0.004984574392437935,0.5250545740127563,0.8510538339614868,0.0,0.0,0.0,0.0,0.0,0.0,0.0,0.0,0.0,63.34612274169922,0.45164260268211365,0.35580042004585266,0.0,0.0,0.0,0.0,0.0,0.0,0.0,0.0,0.0,-0.002809400437399745,0.014792563393712044,-0.002765356097370386,0.0,0.0,0.0,0.0,0.0,0.0,0.0,0.0,0.0
1606986330459528920,307536,1606982729874307431,imu_link,0.0005730011034756899,0.004984574392437935,0.5250545740127563,0.8510538339614868,0.0,0.0,0.0,0.0,0.0,0.0,0.0,0.0,0.0,63.34612274169922,0.45164260268211365,0.35580042004585266,0.0,0.0,0.0,0.0,0.0,0.0,0.0,0.0,0.0,-0.002809400437399745,0.014792563393712044,-0.002765356097370386,0.0,0.0,0.0,0.0,0.0,0.0,0.0,0.0,0.0
1606986330459547038,307537,1606982729874392488,imu_link,0.0005733703728765249,0.004983835853636265,0.5250526666641235,0.8510549664497375,0.0,0.0,0.0,0.0,0.0,0.0,0.0,0.0,0.0,63.34586715698242,0.45154911279678345,0.35579103231430054,0.0,0.0,0.0,0.0,0.0,0.0,0.0,0.0,0.0,-0.01524582039564848,-0.008881176821887493,0.0019225504947826266,0.0,0.0,0.0,0.0,0.0,0.0,0.0,0.0,0.0
1606986330459561635,307538,1606982729874470664,imu_link,0.0005733703728765249,0.004983835853636265,0.5250526666641235,0.8510549664497375,0.0,0.0,0.0,0.0,0.0,0.0,0.0,0.0,0.0,63.34586715698242,0.45154911279678345,0.35579103231430054,0.0,0.0,0.0,0.0,0.0,0.0,0.0,0.0,0.0,-0.01524582039564848,-0.008881176821887493,0.0019225504947826266,0.0,0.0,0.0,0.0,0.0,0.0,0.0,0.0,0.0
1606986330459577234,307539,1606982729874563644,imu_link,0.0005765282548964024,0.004981934558600187,0.5250552296638489,0.8510534167289734,0.0,0.0,0.0,0.0,0.0,0.0,0.0,0.0,0.0,63.34621047973633,0.4511725902557373,0.3559858798980713,0.0,0.0,0.0,0.0,0.0,0.0,0.0,0.0,0.0,-0.002081669634208083,-0.011657346040010452,0.01603088527917862,0.0,0.0,0.0,0.0,0.0,0.0,0.0,0.0,0.0
1606986330459669327,307540,1606982729874670141,imu_link,0.0005765282548964024,0.004981934558600187,0.5250552296638489,0.8510534167289734,0.0,0.0,0.0,0.0,0.0,0.0,0.0,0.0,0.0,63.34621047973633,0.4511725902557373,0.3559858798980713,0.0,0.0,0.0,0.0,0.0,0.0,0.0,0.0,0.0,-0.002081669634208083,-0.011657346040010452,0.01603088527917862,0.0,0.0,0.0,0.0,0.0,0.0,0.0,0.0,0.0
1606986330459715749,307541,1606982729874760826,imu_link,0.0005748918047174811,0.004982220474630594,0.5250549912452698,0.8510535359382629,0.0,0.0,0.0,0.0,0.0,0.0,0.0,0.0,0.0,63.34617614746094,0.45129895210266113,0.3558434545993805,0.0,0.0,0.0,0.0,0.0,0.0,0.0,0.0,0.0,0.005317836068570614,0.009384388104081154,0.01804901286959648,0.0,0.0,0.0,0.0,0.0,0.0,0.0,0.0,0.0
1606986330459740240,307542,1606982729874849365,imu_link,0.0005748918047174811,0.004982220474630594,0.5250549912452698,0.8510535359382629,0.0,0.0,0.0,0.0,0.0,0.0,0.0,0.0,0.0,63.34617614746094,0.45129895210266113,0.3558434545993805,0.0,0.0,0.0,0.0,0.0,0.0,0.0,0.0,0.0,0.005317836068570614,0.009384388104081154,0.01804901286959648,0.0,0.0,0.0,0.0,0.0,0.0,0.0,0.0,0.0
1606986330459764884,307543,1606982729874933134,imu_link,0.0005755468737334013,0.004980968311429024,0.5250583291053772,0.8510515093803406,0.0,0.0,0.0,0.0,0.0,0.0,0.0,0.0,0.0,63.34661865234375,0.45113611221313477,0.3558337390422821,0.0,0.0,0.0,0.0,0.0,0.0,0.0,0.0,0.0,-0.0019859177991747856,0.005878678523004055,-0.011924082413315773,0.0,0.0,0.0,0.0,0.0,0.0,0.0,0.0,0.0
1606986330461831947,307544,1606982729875086950,imu_link,0.0005755468737334013,0.004980968311429024,0.5250583291053772,0.8510515093803406,0.0,0.0,0.0,0.0,0.0,0.0,0.0,0.0,0.0,63.34661865234375,0.45113611221313477,0.3558337390422821,0.0,0.0,0.0,0.0,0.0,0.0,0.0,0.0,0.0,-0.0019859177991747856,0.005878678523004055,-0.011924082413315773,0.0,0.0,0.0,0.0,0.0,0.0,0.0,0.0,0.0
1606986330471544440,307545,1606982729887423696,imu_link,0.0005746607203036547,0.004981627222150564,0.5250585079193115,0.851051390171051,0.0,0.0,0.0,0.0,0.0,0.0,0.0,0.0,0.0,63.346649169921875,0.45125359296798706,0.3557870388031006,0.0,0.0,0.0,0.0,0.0,0.0,0.0,0.0,0.0,0.00815622415393591,-0.0070817614905536175,-0.04094476252794266,0.0,0.0,0.0,0.0,0.0,0.0,0.0,0.0,0.0
1606986330473678483,307546,1606982729887555531,imu_link,0.0005746607203036547,0.004981627222150564,0.5250585079193115,0.851051390171051,0.0,0.0,0.0,0.0,0.0,0.0,0.0,0.0,0.0,63.346649169921875,0.45125359296798706,0.3557870388031006,0.0,0.0,0.0,0.0,0.0,0.0,0.0,0.0,0.0,0.00815622415393591,-0.0070817614905536175,-0.04094476252794266,0.0,0.0,0.0,0.0,0.0,0.0,0.0,0.0,0.0
1606986330473690611,307547,1606982729887728837,imu_link,0.0005734174628742039,0.0049841925501823425,0.5250495672225952,0.8510568737983704,0.0,0.0,0.0,0.0,0.0,0.0,0.0,0.0,0.0,63.34544372558594,0.4515823721885681,0.35581544041633606,0.0,0.0,0.0,0.0,0.0,0.0,0.0,0.0,0.0,0.0020664818584918976,-0.011394603177905083,-0.026910921558737755,0.0,0.0,0.0,0.0,0.0,0.0,0.0,0.0,0.0
1606986330473700359,307548,1606982729887850293,imu_link,0.0005734174628742039,0.0049841925501823425,0.5250495672225952,0.8510568737983704,0.0,0.0,0.0,0.0,0.0,0.0,0.0,0.0,0.0,63.34544372558594,0.4515823721885681,0.35581544041633606,0.0,0.0,0.0,0.0,0.0,0.0,0.0,0.0,0.0,0.0020664818584918976,-0.011394603177905083,-0.026910921558737755,0.0,0.0,0.0,0.0,0.0,0.0,0.0,0.0,0.0
1606986330473715547,307549,1606982729887945093,imu_link,0.000574122357647866,0.004985283128917217,0.5250492095947266,0.8510571122169495,0.0,0.0,0.0,0.0,0.0,0.0,0.0,0.0,0.0,63.34540557861328,0.45164644718170166,0.3559495508670807,0.0,0.0,0.0,0.0,0.0,0.0,0.0,0.0,0.0,-0.010541858151555061,0.0009373353095725179,0.0005672359257005155,0.0,0.0,0.0,0.0,0.0,0.0,0.0,0.0,0.0
1606986330473726625,307550,1606982729888022071,imu_link,0.000574122357647866,0.004985283128917217,0.5250492095947266,0.8510571122169495,0.0,0.0,0.0,0.0,0.0,0.0,0.0,0.0,0.0,63.34540557861328,0.45164644718170166,0.3559495508670807,0.0,0.0,0.0,0.0,0.0,0.0,0.0,0.0,0.0,-0.010541858151555061,0.0009373353095725179,0.0005672359257005155,0.0,0.0,0.0,0.0,0.0,0.0,0.0,0.0,0.0
1606986330473738308,307551,1606982729888125561,imu_link,0.0005748450639657676,0.004983966238796711,0.5250398516654968,0.8510628938674927,0.0,0.0,0.0,0.0,0.0,0.0,0.0,0.0,0.0,63.34413528442383,0.4514784812927246,0.35593584179878235,0.0,0.0,0.0,0.0,0.0,0.0,0.0,0.0,0.0,-0.0069135213270783424,0.008110644295811653,-0.016579465940594673,0.0,0.0,0.0,0.0,0.0,0.0,0.0,0.0,0.0
1606986330473761762,307552,1606982729888204759,imu_link,0.0005748450639657676,0.004983966238796711,0.5250398516654968,0.8510628938674927,0.0,0.0,0.0,0.0,0.0,0.0,0.0,0.0,0.0,63.34413528442383,0.4514784812927246,0.35593584179878235,0.0,0.0,0.0,0.0,0.0,0.0,0.0,0.0,0.0,-0.0069135213270783424,0.008110644295811653,-0.016579465940594673,0.0,0.0,0.0,0.0,0.0,0.0,0.0,0.0,0.0
1606986330473770341,307553,1606982729888281466,imu_link,0.0005733718862757087,0.004984662402421236,0.5250406265258789,0.8510624170303345,0.0,0.0,0.0,0.0,0.0,0.0,0.0,0.0,0.0,63.344242095947266,0.45163464546203613,0.3558345139026642,0.0,0.0,0.0,0.0,0.0,0.0,0.0,0.0,0.0,0.01907636784017086,-0.005503662396222353,-0.027447642758488655,0.0,0.0,0.0,0.0,0.0,0.0,0.0,0.0,0.0
1606986330473777683,307554,1606982729888362744,imu_link,0.0005733718862757087,0.004984662402421236,0.5250406265258789,0.8510624170303345,0.0,0.0,0.0,0.0,0.0,0.0,0.0,0.0,0.0,63.344242095947266,0.45163464546203613,0.3558345139026642,0.0,0.0,0.0,0.0,0.0,0.0,0.0,0.0,0.0,0.01907636784017086,-0.005503662396222353,-0.027447642758488655,0.0,0.0,0.0,0.0,0.0,0.0,0.0,0.0,0.0
1606986330473782893,307555,1606982729888447471,imu_link,0.0005741841159760952,0.004988900385797024,0.5250358581542969,0.8510652780532837,0.0,0.0,0.0,0.0,0.0,0.0,0.0,0.0,0.0,63.34360885620117,0.45200109481811523,0.35616618394851685,0.0,0.0,0.0,0.0,0.0,0.0,0.0,0.0,0.0,0.03763957694172859,-0.006426851265132427,-0.012184523046016693,0.0,0.0,0.0,0.0,0.0,0.0,0.0,0.0,0.0
1606986330485524797,307556,1606982729901275083,imu_link,0.0005741841159760952,0.004988900385797024,0.5250358581542969,0.8510652780532837,0.0,0.0,0.0,0.0,0.0,0.0,0.0,0.0,0.0,63.34360885620117,0.45200109481811523,0.35616618394851685,0.0,0.0,0.0,0.0,0.0,0.0,0.0,0.0,0.0,0.03763957694172859,-0.006426851265132427,-0.012184523046016693,0.0,0.0,0.0,0.0,0.0,0.0,0.0,0.0,0.0
1606986330487341173,307557,1606982729901401270,imu_link,0.0005740298074670136,0.004988591652363539,0.5250377058982849,0.8510642051696777,0.0,0.0,0.0,0.0,0.0,0.0,0.0,0.0,0.0,63.34385299682617,0.45197951793670654,0.35613352060317993,0.0,0.0,0.0,0.0,0.0,0.0,0.0,0.0,0.0,0.02810543216764927,0.00913957878947258,-0.006232661195099354,0.0,0.0,0.0,0.0,0.0,0.0,0.0,0.0,0.0
1606986330487376954,307558,1606982729901543941,imu_link,0.0005740298074670136,0.004988591652363539,0.5250377058982849,0.8510642051696777,0.0,0.0,0.0,0.0,0.0,0.0,0.0,0.0,0.0,63.34385299682617,0.45197951793670654,0.35613352060317993,0.0,0.0,0.0,0.0,0.0,0.0,0.0,0.0,0.0,0.02810543216764927,0.00913957878947258,-0.006232661195099354,0.0,0.0,0.0,0.0,0.0,0.0,0.0,0.0,0.0
1606986330487402593,307559,1606982729901620172,imu_link,0.000572314893361181,0.004988811444491148,0.5250305533409119,0.8510685563087463,0.0,0.0,0.0,0.0,0.0,0.0,0.0,0.0,0.0,63.342899322509766,0.4521070718765259,0.3559756875038147,0.0,0.0,0.0,0.0,0.0,0.0,0.0,0.0,0.0,0.011007162742316723,0.003622933756560087,0.01770058460533619,0.0,0.0,0.0,0.0,0.0,0.0,0.0,0.0,0.0
1606986330487412140,307560,1606982729901690427,imu_link,0.000572314893361181,0.004988811444491148,0.5250305533409119,0.8510685563087463,0.0,0.0,0.0,0.0,0.0,0.0,0.0,0.0,0.0,63.342899322509766,0.4521070718765259,0.3559756875038147,0.0,0.0,0.0,0.0,0.0,0.0,0.0,0.0,0.0,0.011007162742316723,0.003622933756560087,0.01770058460533619,0.0,0.0,0.0,0.0,0.0,0.0,0.0,0.0,0.0
1606986330487419438,307561,1606982729901778992,imu_link,0.0005716455052606761,0.004988185130059719,0.5250300168991089,0.851068913936615,0.0,0.0,0.0,0.0,0.0,0.0,0.0,0.0,0.0,63.34281539916992,0.4520864486694336,0.35587242245674133,0.0,0.0,0.0,0.0,0.0,0.0,0.0,0.0,0.0,0.0020038732327520847,-0.001476525911130011,0.01499175000935793,0.0,0.0,0.0,0.0,0.0,0.0,0.0,0.0,0.0
1606986330487425767,307562,1606982729901845559,imu_link,0.0005716455052606761,0.004988185130059719,0.5250300168991089,0.851068913936615,0.0,0.0,0.0,0.0,0.0,0.0,0.0,0.0,0.0,63.34281539916992,0.4520864486694336,0.35587242245674133,0.0,0.0,0.0,0.0,0.0,0.0,0.0,0.0,0.0,0.0020038732327520847,-0.001476525911130011,0.01499175000935793,0.0,0.0,0.0,0.0,0.0,0.0,0.0,0.0,0.0
1606986330487433601,307563,1606982729901914221,imu_link,0.0005722229252569377,0.004987181164324284,0.5250358581542969,0.8510653376579285,0.0,0.0,0.0,0.0,0.0,0.0,0.0,0.0,0.0,63.34360885620117,0.45195141434669495,0.3558714687824249,0.0,0.0,0.0,0.0,0.0,0.0,0.0,0.0,0.0,-0.013666481710970402,0.0227871872484684,-0.02588540129363537,0.0,0.0,0.0,0.0,0.0,0.0,0.0,0.0,0.0
1606986330487441533,307564,1606982729901981933,imu_link,0.0005722229252569377,0.004987181164324284,0.5250358581542969,0.8510653376579285,0.0,0.0,0.0,0.0,0.0,0.0,0.0,0.0,0.0,63.34360885620117,0.45195141434669495,0.3558714687824249,0.0,0.0,0.0,0.0,0.0,0.0,0.0,0.0,0.0,-0.013666481710970402,0.0227871872484684,-0.02588540129363537,0.0,0.0,0.0,0.0,0.0,0.0,0.0,0.0,0.0
1606986330487447312,307565,1606982729902049916,imu_link,0.0005718879983760417,0.004986159037798643,0.5250359773635864,0.8510652184486389,0.0,0.0,0.0,0.0,0.0,0.0,0.0,0.0,0.0,63.34362030029297,0.4518718421459198,0.355777382850647,0.0,0.0,0.0,0.0,0.0,0.0,0.0,0.0,0.0,-0.019378134980797768,0.02860414981842041,-0.03466922417283058,0.0,0.0,0.0,0.0,0.0,0.0,0.0,0.0,0.0
1606986330487457469,307566,1606982729902118057,imu_link,0.0005718879983760417,0.004986159037798643,0.5250359773635864,0.8510652184486389,0.0,0.0,0.0,0.0,0.0,0.0,0.0,0.0,0.0,63.34362030029297,0.4518718421459198,0.355777382850647,0.0,0.0,0.0,0.0,0.0,0.0,0.0,0.0,0.0,-0.019378134980797768,0.02860414981842041,-0.03466922417283058,0.0,0.0,0.0,0.0,0.0,0.0,0.0,0.0,0.0
1606986330498393748,307567,1606982729914215796,imu_link,0.0005700939218513668,0.004980102647095919,0.5250407457351685,0.8510622978210449,0.0,0.0,0.0,0.0,0.0,0.0,0.0,0.0,0.0,63.34425735473633,0.4513871669769287,0.35524052381515503,0.0,0.0,0.0,0.0,0.0,0.0,0.0,0.0,0.0,-0.002015903824940324,0.000603940396104008,-0.013679789379239082,0.0,0.0,0.0,0.0,0.0,0.0,0.0,0.0,0.0
1606986330499019073,307568,1606982729914358512,imu_link,0.0005700939218513668,0.004980102647095919,0.5250407457351685,0.8510622978210449,0.0,0.0,0.0,0.0,0.0,0.0,0.0,0.0,0.0,63.34425735473633,0.4513871669769287,0.35524052381515503,0.0,0.0,0.0,0.0,0.0,0.0,0.0,0.0,0.0,-0.002015903824940324,0.000603940396104008,-0.013679789379239082,0.0,0.0,0.0,0.0,0.0,0.0,0.0,0.0,0.0
1606986330499032879,307569,1606982729914540693,imu_link,0.0005687113734893501,0.004979288671165705,0.5250394344329834,0.8510631322860718,0.0,0.0,0.0,0.0,0.0,0.0,0.0,0.0,0.0,63.344078063964844,0.4513914883136749,0.3550559878349304,0.0,0.0,0.0,0.0,0.0,0.0,0.0,0.0,0.0,0.013110993430018425,-0.014924808405339718,0.015397162176668644,0.0,0.0,0.0,0.0,0.0,0.0,0.0,0.0,0.0
1606986330499045938,307570,1606982729914641862,imu_link,0.0005687113734893501,0.004979288671165705,0.5250394344329834,0.8510631322860718,0.0,0.0,0.0,0.0,0.0,0.0,0.0,0.0,0.0,63.344078063964844,0.4513914883136749,0.3550559878349304,0.0,0.0,0.0,0.0,0.0,0.0,0.0,0.0,0.0,0.013110993430018425,-0.014924808405339718,0.015397162176668644,0.0,0.0,0.0,0.0,0.0,0.0,0.0,0.0,0.0
1606986330499053162,307571,1606982729914721291,imu_link,0.0005700765177607536,0.004982569254934788,0.5250416398048401,0.8510618209838867,0.0,0.0,0.0,0.0,0.0,0.0,0.0,0.0,0.0,63.3443717956543,0.4516284167766571,0.3553876578807831,0.0,0.0,0.0,0.0,0.0,0.0,0.0,0.0,0.0,0.002505439566448331,-0.014738677069544792,0.01771879382431507,0.0,0.0,0.0,0.0,0.0,0.0,0.0,0.0,0.0
1606986330501031442,307572,1606982729914832358,imu_link,0.0005700765177607536,0.004982569254934788,0.5250416398048401,0.8510618209838867,0.0,0.0,0.0,0.0,0.0,0.0,0.0,0.0,0.0,63.3443717956543,0.4516284167766571,0.3553876578807831,0.0,0.0,0.0,0.0,0.0,0.0,0.0,0.0,0.0,0.002505439566448331,-0.014738677069544792,0.01771879382431507,0.0,0.0,0.0,0.0,0.0,0.0,0.0,0.0,0.0
1606986330501055760,307573,1606982729914917861,imu_link,0.0005707411910407245,0.004980788566172123,0.5250416994094849,0.8510618209838867,0.0,0.0,0.0,0.0,0.0,0.0,0.0,0.0,0.0,63.34437942504883,0.4514147639274597,0.35534530878067017,0.0,0.0,0.0,0.0,0.0,0.0,0.0,0.0,0.0,-0.013845965266227722,-0.010961947962641716,-0.01396259292960167,0.0,0.0,0.0,0.0,0.0,0.0,0.0,0.0,0.0
1606986330501107151,307574,1606982729915055204,imu_link,0.0005707411910407245,0.004980788566172123,0.5250416994094849,0.8510618209838867,0.0,0.0,0.0,0.0,0.0,0.0,0.0,0.0,0.0,63.34437942504883,0.4514147639274597,0.35534530878067017,0.0,0.0,0.0,0.0,0.0,0.0,0.0,0.0,0.0,-0.013845965266227722,-0.010961947962641716,-0.01396259292960167,0.0,0.0,0.0,0.0,0.0,0.0,0.0,0.0,0.0
1606986330501129711,307575,1606982729915144445,imu_link,0.0005743600777350366,0.004976985976099968,0.525041937828064,0.8510616421699524,0.0,0.0,0.0,0.0,0.0,0.0,0.0,0.0,0.0,63.34441375732422,0.450825959444046,0.35546961426734924,0.0,0.0,0.0,0.0,0.0,0.0,0.0,0.0,0.0,-0.005803399719297886,-0.016917118802666664,-0.02961100824177265,0.0,0.0,0.0,0.0,0.0,0.0,0.0,0.0,0.0
1606986330501173607,307576,1606982729915221293,imu_link,0.0005743600777350366,0.004976985976099968,0.525041937828064,0.8510616421699524,0.0,0.0,0.0,0.0,0.0,0.0,0.0,0.0,0.0,63.34441375732422,0.450825959444046,0.35546961426734924,0.0,0.0,0.0,0.0,0.0,0.0,0.0,0.0,0.0,-0.005803399719297886,-0.016917118802666664,-0.02961100824177265,0.0,0.0,0.0,0.0,0.0,0.0,0.0,0.0,0.0
1606986330511950698,307577,1606982729927623310,imu_link,0.0005752842407673597,0.0049757566303014755,0.5250417590141296,0.8510617017745972,0.0,0.0,0.0,0.0,0.0,0.0,0.0,0.0,0.0,63.34439468383789,0.45065051317214966,0.3554857075214386,0.0,0.0,0.0,0.0,0.0,0.0,0.0,0.0,0.0,-0.0008503787685185671,-0.014324362389743328,-0.007620073854923248,0.0,0.0,0.0,0.0,0.0,0.0,0.0,0.0,0.0
1606986330525499727,307578,1606982729927764447,imu_link,0.0005752842407673597,0.0049757566303014755,0.5250417590141296,0.8510617017745972,0.0,0.0,0.0,0.0,0.0,0.0,0.0,0.0,0.0,63.34439468383789,0.45065051317214966,0.3554857075214386,0.0,0.0,0.0,0.0,0.0,0.0,0.0,0.0,0.0,-0.0008503787685185671,-0.014324362389743328,-0.007620073854923248,0.0,0.0,0.0,0.0,0.0,0.0,0.0,0.0,0.0
1606986330525527788,307579,1606982729928008001,imu_link,0.0005779544007964432,0.004977922420948744,0.5250368714332581,0.8510648012161255,0.0,0.0,0.0,0.0,0.0,0.0,0.0,0.0,0.0,63.34373092651367,0.4507032334804535,0.35587382316589355,0.0,0.0,0.0,0.0,0.0,0.0,0.0,0.0,0.0,-0.013766326010227203,-0.011752714402973652,0.007840543985366821,0.0,0.0,0.0,0.0,0.0,0.0,0.0,0.0,0.0
1606986330525549335,307580,1606982729928100339,imu_link,0.0005779544007964432,0.004977922420948744,0.5250368714332581,0.8510648012161255,0.0,0.0,0.0,0.0,0.0,0.0,0.0,0.0,0.0,63.34373092651367,0.4507032334804535,0.35587382316589355,0.0,0.0,0.0,0.0,0.0,0.0,0.0,0.0,0.0,-0.013766326010227203,-0.011752714402973652,0.007840543985366821,0.0,0.0,0.0,0.0,0.0,0.0,0.0,0.0,0.0
1606986330525567248,307581,1606982729928177979,imu_link,0.0005793410236947238,0.004977233707904816,0.5250343084335327,0.8510662913322449,0.0,0.0,0.0,0.0,0.0,0.0,0.0,0.0,0.0,63.343387603759766,0.45055368542671204,0.3559662699699402,0.0,0.0,0.0,0.0,0.0,0.0,0.0,0.0,0.0,-0.029024217277765274,-0.015585172921419144,0.01278102770447731,0.0,0.0,0.0,0.0,0.0,0.0,0.0,0.0,0.0
1606986330525616499,307582,1606982729928269912,imu_link,0.0005793410236947238,0.004977233707904816,0.5250343084335327,0.8510662913322449,0.0,0.0,0.0,0.0,0.0,0.0,0.0,0.0,0.0,63.343387603759766,0.45055368542671204,0.3559662699699402,0.0,0.0,0.0,0.0,0.0,0.0,0.0,0.0,0.0,-0.029024217277765274,-0.015585172921419144,0.01278102770447731,0.0,0.0,0.0,0.0,0.0,0.0,0.0,0.0,0.0
1606986330525651407,307583,1606982729928372203,imu_link,0.0005859037628397346,0.0049729617312550545,0.5250281691551208,0.8510701060295105,0.0,0.0,0.0,0.0,0.0,0.0,0.0,0.0,0.0,63.34256362915039,0.4497447609901428,0.3563460409641266,0.0,0.0,0.0,0.0,0.0,0.0,0.0,0.0,0.0,-0.019092323258519173,-0.00421179411932826,0.0206855870783329,0.0,0.0,0.0,0.0,0.0,0.0,0.0,0.0,0.0
1606986330525665729,307584,1606982729928450921,imu_link,0.0005859037628397346,0.0049729617312550545,0.5250281691551208,0.8510701060295105,0.0,0.0,0.0,0.0,0.0,0.0,0.0,0.0,0.0,63.34256362915039,0.4497447609901428,0.3563460409641266,0.0,0.0,0.0,0.0,0.0,0.0,0.0,0.0,0.0,-0.019092323258519173,-0.00421179411932826,0.0206855870783329,0.0,0.0,0.0,0.0,0.0,0.0,0.0,0.0,0.0
1606986330525678820,307585,1606982729928538338,imu_link,0.0005853672628290951,0.004973654635250568,0.5250300168991089,0.8510690331459045,0.0,0.0,0.0,0.0,0.0,0.0,0.0,0.0,0.0,63.34280776977539,0.4498438537120819,0.3563363552093506,0.0,0.0,0.0,0.0,0.0,0.0,0.0,0.0,0.0,0.01166482176631689,0.00749170733615756,0.01665215939283371,0.0,0.0,0.0,0.0,0.0,0.0,0.0,0.0,0.0
1606986330525743300,307586,1606982729928625590,imu_link,0.0005853672628290951,0.004973654635250568,0.5250300168991089,0.8510690331459045,0.0,0.0,0.0,0.0,0.0,0.0,0.0,0.0,0.0,63.34280776977539,0.4498438537120819,0.3563363552093506,0.0,0.0,0.0,0.0,0.0,0.0,0.0,0.0,0.0,0.01166482176631689,0.00749170733615756,0.01665215939283371,0.0,0.0,0.0,0.0,0.0,0.0,0.0,0.0,0.0
1606986330525782814,307587,1606982729928710221,imu_link,0.0005821382510475814,0.004973812960088253,0.5250219702720642,0.8510739803314209,0.0,0.0,0.0,0.0,0.0,0.0,0.0,0.0,0.0,63.34172439575195,0.45005694031715393,0.35602667927742004,0.0,0.0,0.0,0.0,0.0,0.0,0.0,0.0,0.0,0.007839009165763855,-0.010168507695198059,0.021044662222266197,0.0,0.0,0.0,0.0,0.0,0.0,0.0,0.0,0.0
1606986330526150159,307588,1606982729941479042,imu_link,0.0005821382510475814,0.004973812960088253,0.5250219702720642,0.8510739803314209,0.0,0.0,0.0,0.0,0.0,0.0,0.0,0.0,0.0,63.34172439575195,0.45005694031715393,0.35602667927742004,0.0,0.0,0.0,0.0,0.0,0.0,0.0,0.0,0.0,0.007839009165763855,-0.010168507695198059,0.021044662222266197,0.0,0.0,0.0,0.0,0.0,0.0,0.0,0.0,0.0
1606986330526170469,307589,1606982729941619692,imu_link,0.0005823019309900701,0.00497438432648778,0.5250229835510254,0.8510733842849731,0.0,0.0,0.0,0.0,0.0,0.0,0.0,0.0,0.0,63.34185791015625,0.45010238885879517,0.35607755184173584,0.0,0.0,0.0,0.0,0.0,0.0,0.0,0.0,0.0,-0.009535899385809898,-0.008548217825591564,0.008069590665400028,0.0,0.0,0.0,0.0,0.0,0.0,0.0,0.0,0.0
1606986330526180961,307590,1606982729941807166,imu_link,0.0005823019309900701,0.00497438432648778,0.5250229835510254,0.8510733842849731,0.0,0.0,0.0,0.0,0.0,0.0,0.0,0.0,0.0,63.34185791015625,0.45010238885879517,0.35607755184173584,0.0,0.0,0.0,0.0,0.0,0.0,0.0,0.0,0.0,-0.009535899385809898,-0.008548217825591564,0.008069590665400028,0.0,0.0,0.0,0.0,0.0,0.0,0.0,0.0,0.0
1606986330526192666,307591,1606982729941903830,imu_link,0.0005844258121214807,0.00497388606891036,0.5250135064125061,0.8510792255401611,0.0,0.0,0.0,0.0,0.0,0.0,0.0,0.0,0.0,63.34058380126953,0.44992998242378235,0.35624971985816956,0.0,0.0,0.0,0.0,0.0,0.0,0.0,0.0,0.0,-0.0016196412034332752,0.015077327378094196,-0.02585887536406517,0.0,0.0,0.0,0.0,0.0,0.0,0.0,0.0,0.0
1606986330529693854,307592,1606982729941986255,imu_link,0.0005844258121214807,0.00497388606891036,0.5250135064125061,0.8510792255401611,0.0,0.0,0.0,0.0,0.0,0.0,0.0,0.0,0.0,63.34058380126953,0.44992998242378235,0.35624971985816956,0.0,0.0,0.0,0.0,0.0,0.0,0.0,0.0,0.0,-0.0016196412034332752,0.015077327378094196,-0.02585887536406517,0.0,0.0,0.0,0.0,0.0,0.0,0.0,0.0,0.0
1606986330529719963,307593,1606982729942080238,imu_link,0.0005830434383824468,0.004976655822247267,0.525014340877533,0.8510786890983582,0.0,0.0,0.0,0.0,0.0,0.0,0.0,0.0,0.0,63.3406982421875,0.4502829313278198,0.3562820255756378,0.0,0.0,0.0,0.0,0.0,0.0,0.0,0.0,0.0,-0.007018359377980232,0.005938502494245768,-0.02011357992887497,0.0,0.0,0.0,0.0,0.0,0.0,0.0,0.0,0.0
1606986330529735619,307594,1606982729942188062,imu_link,0.0005830434383824468,0.004976655822247267,0.525014340877533,0.8510786890983582,0.0,0.0,0.0,0.0,0.0,0.0,0.0,0.0,0.0,63.3406982421875,0.4502829313278198,0.3562820255756378,0.0,0.0,0.0,0.0,0.0,0.0,0.0,0.0,0.0,-0.007018359377980232,0.005938502494245768,-0.02011357992887497,0.0,0.0,0.0,0.0,0.0,0.0,0.0,0.0,0.0
1606986330529771511,307595,1606982729942269290,imu_link,0.0005812267190776765,0.004974473733454943,0.5250164270401001,0.8510773777961731,0.0,0.0,0.0,0.0,0.0,0.0,0.0,0.0,0.0,63.34097671508789,0.4501785337924957,0.3559746742248535,0.0,0.0,0.0,0.0,0.0,0.0,0.0,0.0,0.0,-0.010059868916869164,-0.00214731739833951,7.830882532289252e-05,0.0,0.0,0.0,0.0,0.0,0.0,0.0,0.0,0.0
1606986330529794452,307596,1606982729942352227,imu_link,0.0005812267190776765,0.004974473733454943,0.5250164270401001,0.8510773777961731,0.0,0.0,0.0,0.0,0.0,0.0,0.0,0.0,0.0,63.34097671508789,0.4501785337924957,0.3559746742248535,0.0,0.0,0.0,0.0,0.0,0.0,0.0,0.0,0.0,-0.010059868916869164,-0.00214731739833951,7.830882532289252e-05,0.0,0.0,0.0,0.0,0.0,0.0,0.0,0.0,0.0
1606986330529817560,307597,1606982729942437430,imu_link,0.0005832046736031771,0.004975168965756893,0.5250162482261658,0.8510774970054626,0.0,0.0,0.0,0.0,0.0,0.0,0.0,0.0,0.0,63.34095001220703,0.45012742280960083,0.35620924830436707,0.0,0.0,0.0,0.0,0.0,0.0,0.0,0.0,0.0,0.009399696253240108,0.004474370274692774,0.013887402601540089,0.0,0.0,0.0,0.0,0.0,0.0,0.0,0.0,0.0
1606986330529842606,307598,1606982729942514343,imu_link,0.0005832046736031771,0.004975168965756893,0.5250162482261658,0.8510774970054626,0.0,0.0,0.0,0.0,0.0,0.0,0.0,0.0,0.0,63.34095001220703,0.45012742280960083,0.35620924830436707,0.0,0.0,0.0,0.0,0.0,0.0,0.0,0.0,0.0,0.009399696253240108,0.004474370274692774,0.013887402601540089,0.0,0.0,0.0,0.0,0.0,0.0,0.0,0.0,0.0
1606986330539110689,307599,1606982729954920830,imu_link,0.000581143016461283,0.00497758062556386,0.5250185132026672,0.851076066493988,0.0,0.0,0.0,0.0,0.0,0.0,0.0,0.0,0.0,63.34126663208008,0.4504856467247009,0.35615453124046326,0.0,0.0,0.0,0.0,0.0,0.0,0.0,0.0,0.0,0.013618583790957928,0.0044553871266543865,0.024134166538715363,0.0,0.0,0.0,0.0,0.0,0.0,0.0,0.0,0.0
1606986330542177394,307600,1606982729955101563,imu_link,0.000581143016461283,0.00497758062556386,0.5250185132026672,0.851076066493988,0.0,0.0,0.0,0.0,0.0,0.0,0.0,0.0,0.0,63.34126663208008,0.4504856467247009,0.35615453124046326,0.0,0.0,0.0,0.0,0.0,0.0,0.0,0.0,0.0,0.013618583790957928,0.0044553871266543865,0.024134166538715363,0.0,0.0,0.0,0.0,0.0,0.0,0.0,0.0,0.0
1606986330542193363,307601,1606982729955270564,imu_link,0.0005812034942209721,0.00498024420812726,0.5250185132026672,0.851076066493988,0.0,0.0,0.0,0.0,0.0,0.0,0.0,0.0,0.0,63.34126663208008,0.45074182748794556,0.35632070899009705,0.0,0.0,0.0,0.0,0.0,0.0,0.0,0.0,0.0,0.008652780205011368,0.009838365018367767,0.029220357537269592,0.0,0.0,0.0,0.0,0.0,0.0,0.0,0.0,0.0
1606986330542215177,307602,1606982729955357646,imu_link,0.0005812034942209721,0.00498024420812726,0.5250185132026672,0.851076066493988,0.0,0.0,0.0,0.0,0.0,0.0,0.0,0.0,0.0,63.34126663208008,0.45074182748794556,0.35632070899009705,0.0,0.0,0.0,0.0,0.0,0.0,0.0,0.0,0.0,0.008652780205011368,0.009838365018367767,0.029220357537269592,0.0,0.0,0.0,0.0,0.0,0.0,0.0,0.0,0.0
1606986330542235768,307603,1606982729955454901,imu_link,0.0005790968425571918,0.004979652352631092,0.5250191688537598,0.8510756492614746,0.0,0.0,0.0,0.0,0.0,0.0,0.0,0.0,0.0,63.34135437011719,0.4508105516433716,0.35607996582984924,0.0,0.0,0.0,0.0,0.0,0.0,0.0,0.0,0.0,0.00034327045432291925,0.005538782570511103,0.04780317842960358,0.0,0.0,0.0,0.0,0.0,0.0,0.0,0.0,0.0
1606986330542250021,307604,1606982729955551961,imu_link,0.0005790968425571918,0.004979652352631092,0.5250191688537598,0.8510756492614746,0.0,0.0,0.0,0.0,0.0,0.0,0.0,0.0,0.0,63.34135437011719,0.4508105516433716,0.35607996582984924,0.0,0.0,0.0,0.0,0.0,0.0,0.0,0.0,0.0,0.00034327045432291925,0.005538782570511103,0.04780317842960358,0.0,0.0,0.0,0.0,0.0,0.0,0.0,0.0,0.0
1606986330542278146,307605,1606982729955634727,imu_link,0.0005785406683571637,0.004981821868568659,0.5250183939933777,0.8510761260986328,0.0,0.0,0.0,0.0,0.0,0.0,0.0,0.0,0.0,63.341251373291016,0.45105594396591187,0.3561559021472931,0.0,0.0,0.0,0.0,0.0,0.0,0.0,0.0,0.0,-0.0029240488074719906,-0.012316074222326279,0.030464882031083107,0.0,0.0,0.0,0.0,0.0,0.0,0.0,0.0,0.0
1606986330542289870,307606,1606982729955711795,imu_link,0.0005785406683571637,0.004981821868568659,0.5250183939933777,0.8510761260986328,0.0,0.0,0.0,0.0,0.0,0.0,0.0,0.0,0.0,63.341251373291016,0.45105594396591187,0.3561559021472931,0.0,0.0,0.0,0.0,0.0,0.0,0.0,0.0,0.0,-0.0029240488074719906,-0.012316074222326279,0.030464882031083107,0.0,0.0,0.0,0.0,0.0,0.0,0.0,0.0,0.0
1606986330542303839,307607,1606982729955789014,imu_link,0.0005821538507007062,0.004984048195183277,0.5250203013420105,0.8510749936103821,0.0,0.0,0.0,0.0,0.0,0.0,0.0,0.0,0.0,63.34150314331055,0.4510549306869507,0.3566431999206543,0.0,0.0,0.0,0.0,0.0,0.0,0.0,0.0,0.0,0.00027555867563933134,-0.016290852800011635,-0.015372480265796185,0.0,0.0,0.0,0.0,0.0,0.0,0.0,0.0,0.0
1606986330542344144,307608,1606982729955861256,imu_link,0.0005821538507007062,0.004984048195183277,0.5250203013420105,0.8510749936103821,0.0,0.0,0.0,0.0,0.0,0.0,0.0,0.0,0.0,63.34150314331055,0.4510549306869507,0.3566431999206543,0.0,0.0,0.0,0.0,0.0,0.0,0.0,0.0,0.0,0.00027555867563933134,-0.016290852800011635,-0.015372480265796185,0.0,0.0,0.0,0.0,0.0,0.0,0.0,0.0,0.0
1606986330542367193,307609,1606982729955937458,imu_link,0.0005825479165650904,0.004985155072063208,0.5250200033187866,0.8510751128196716,0.0,0.0,0.0,0.0,0.0,0.0,0.0,0.0,0.0,63.341468811035156,0.4511392414569855,0.3567480742931366,0.0,0.0,0.0,0.0,0.0,0.0,0.0,0.0,0.0,0.004028990864753723,0.0026703907642513514,-0.024693943560123444,0.0,0.0,0.0,0.0,0.0,0.0,0.0,0.0,0.0
1606986330552050194,307610,1606982729967830672,imu_link,0.0005825479165650904,0.004985155072063208,0.5250200033187866,0.8510751128196716,0.0,0.0,0.0,0.0,0.0,0.0,0.0,0.0,0.0,63.341468811035156,0.4511392414569855,0.3567480742931366,0.0,0.0,0.0,0.0,0.0,0.0,0.0,0.0,0.0,0.004028990864753723,0.0026703907642513514,-0.024693943560123444,0.0,0.0,0.0,0.0,0.0,0.0,0.0,0.0,0.0
1606986330553171618,307611,1606982729967969864,imu_link,0.000582949141971767,0.004984766244888306,0.5250137448310852,0.851078987121582,0.0,0.0,0.0,0.0,0.0,0.0,0.0,0.0,0.0,63.34062957763672,0.4510798156261444,0.35676050186157227,0.0,0.0,0.0,0.0,0.0,0.0,0.0,0.0,0.0,0.01557316817343235,0.005140542518347502,-0.011064136400818825,0.0,0.0,0.0,0.0,0.0,0.0,0.0,0.0,0.0
1606986330553190845,307612,1606982729968156075,imu_link,0.000582949141971767,0.004984766244888306,0.5250137448310852,0.851078987121582,0.0,0.0,0.0,0.0,0.0,0.0,0.0,0.0,0.0,63.34062957763672,0.4510798156261444,0.35676050186157227,0.0,0.0,0.0,0.0,0.0,0.0,0.0,0.0,0.0,0.01557316817343235,0.005140542518347502,-0.011064136400818825,0.0,0.0,0.0,0.0,0.0,0.0,0.0,0.0,0.0
1606986330553207823,307613,1606982729968271888,imu_link,0.0005850423476658762,0.0049842954613268375,0.5250159502029419,0.851077675819397,0.0,0.0,0.0,0.0,0.0,0.0,0.0,0.0,0.0,63.34091567993164,0.45090702176094055,0.356937438249588,0.0,0.0,0.0,0.0,0.0,0.0,0.0,0.0,0.0,0.00847893301397562,-0.005053985398262739,-0.011379835195839405,0.0,0.0,0.0,0.0,0.0,0.0,0.0,0.0,0.0
1606986330553223532,307614,1606982729968350255,imu_link,0.0005850423476658762,0.0049842954613268375,0.5250159502029419,0.851077675819397,0.0,0.0,0.0,0.0,0.0,0.0,0.0,0.0,0.0,63.34091567993164,0.45090702176094055,0.356937438249588,0.0,0.0,0.0,0.0,0.0,0.0,0.0,0.0,0.0,0.00847893301397562,-0.005053985398262739,-0.011379835195839405,0.0,0.0,0.0,0.0,0.0,0.0,0.0,0.0,0.0
1606986330553230332,307615,1606982729968457528,imu_link,0.0005873756599612534,0.0049867331981658936,0.5250091552734375,0.8510818481445312,0.0,0.0,0.0,0.0,0.0,0.0,0.0,0.0,0.0,63.34000778198242,0.45100724697113037,0.3573080897331238,0.0,0.0,0.0,0.0,0.0,0.0,0.0,0.0,0.0,-0.014760496094822884,0.008972917683422565,-0.013999219052493572,0.0,0.0,0.0,0.0,0.0,0.0,0.0,0.0,0.0
1606986330553239263,307616,1606982729968552808,imu_link,0.0005873756599612534,0.0049867331981658936,0.5250091552734375,0.8510818481445312,0.0,0.0,0.0,0.0,0.0,0.0,0.0,0.0,0.0,63.34000778198242,0.45100724697113037,0.3573080897331238,0.0,0.0,0.0,0.0,0.0,0.0,0.0,0.0,0.0,-0.014760496094822884,0.008972917683422565,-0.013999219052493572,0.0,0.0,0.0,0.0,0.0,0.0,0.0,0.0,0.0
1606986330553274899,307617,1606982729968629366,imu_link,0.0005870680906809866,0.004987115506082773,0.5250092148780823,0.8510817885398865,0.0,0.0,0.0,0.0,0.0,0.0,0.0,0.0,0.0,63.34001541137695,0.45106300711631775,0.35730114579200745,0.0,0.0,0.0,0.0,0.0,0.0,0.0,0.0,0.0,-0.01111939549446106,-0.0032270080409944057,-0.00013894638686906546,0.0,0.0,0.0,0.0,0.0,0.0,0.0,0.0,0.0
1606986330553289301,307618,1606982729968722311,imu_link,0.0005870680906809866,0.004987115506082773,0.5250092148780823,0.8510817885398865,0.0,0.0,0.0,0.0,0.0,0.0,0.0,0.0,0.0,63.34001541137695,0.45106300711631775,0.35730114579200745,0.0,0.0,0.0,0.0,0.0,0.0,0.0,0.0,0.0,-0.01111939549446106,-0.0032270080409944057,-0.00013894638686906546,0.0,0.0,0.0,0.0,0.0,0.0,0.0,0.0,0.0
1606986330553312549,307619,1606982729968800091,imu_link,0.0005902423290535808,0.004986230283975601,0.5250148773193359,0.8510783314704895,0.0,0.0,0.0,0.0,0.0,0.0,0.0,0.0,0.0,63.340782165527344,0.4507833421230316,0.35756048560142517,0.0,0.0,0.0,0.0,0.0,0.0,0.0,0.0,0.0,-0.0005762737127952278,-0.012273677624762058,0.004463954363018274,0.0,0.0,0.0,0.0,0.0,0.0,0.0,0.0,0.0
1606986330587073582,307620,1606982729981594115,imu_link,0.0005902423290535808,0.004986230283975601,0.5250148773193359,0.8510783314704895,0.0,0.0,0.0,0.0,0.0,0.0,0.0,0.0,0.0,63.340782165527344,0.4507833421230316,0.35756048560142517,0.0,0.0,0.0,0.0,0.0,0.0,0.0,0.0,0.0,-0.0005762737127952278,-0.012273677624762058,0.004463954363018274,0.0,0.0,0.0,0.0,0.0,0.0,0.0,0.0,0.0
1606986330587109787,307621,1606982729981733162,imu_link,0.0005910297040827572,0.004986470099538565,0.5250158309936523,0.8510777354240417,0.0,0.0,0.0,0.0,0.0,0.0,0.0,0.0,0.0,63.340911865234375,0.4507589638233185,0.3576521873474121,0.0,0.0,0.0,0.0,0.0,0.0,0.0,0.0,0.0,-0.0092195775359869,0.006643856409937143,0.02518443576991558,0.0,0.0,0.0,0.0,0.0,0.0,0.0,0.0,0.0
1606986330587119135,307622,1606982729981918195,imu_link,0.0005910297040827572,0.004986470099538565,0.5250158309936523,0.8510777354240417,0.0,0.0,0.0,0.0,0.0,0.0,0.0,0.0,0.0,63.340911865234375,0.4507589638233185,0.3576521873474121,0.0,0.0,0.0,0.0,0.0,0.0,0.0,0.0,0.0,-0.0092195775359869,0.006643856409937143,0.02518443576991558,0.0,0.0,0.0,0.0,0.0,0.0,0.0,0.0,0.0
1606986330587128937,307623,1606982729982007161,imu_link,0.0005905409343540668,0.004983456805348396,0.5250223278999329,0.8510737419128418,0.0,0.0,0.0,0.0,0.0,0.0,0.0,0.0,0.0,63.3417854309082,0.4504917860031128,0.3574266731739044,0.0,0.0,0.0,0.0,0.0,0.0,0.0,0.0,0.0,0.011302759870886803,0.008898714557290077,0.044860221445560455,0.0,0.0,0.0,0.0,0.0,0.0,0.0,0.0,0.0
1606986330587146595,307624,1606982729982111026,imu_link,0.0005905409343540668,0.004983456805348396,0.5250223278999329,0.8510737419128418,0.0,0.0,0.0,0.0,0.0,0.0,0.0,0.0,0.0,63.3417854309082,0.4504917860031128,0.3574266731739044,0.0,0.0,0.0,0.0,0.0,0.0,0.0,0.0,0.0,0.011302759870886803,0.008898714557290077,0.044860221445560455,0.0,0.0,0.0,0.0,0.0,0.0,0.0,0.0,0.0
1606986330587177617,307625,1606982729982206437,imu_link,0.0005909919273108244,0.004981949459761381,0.5250216722488403,0.8510741591453552,0.0,0.0,0.0,0.0,0.0,0.0,0.0,0.0,0.0,63.34169006347656,0.450317919254303,0.3573795557022095,0.0,0.0,0.0,0.0,0.0,0.0,0.0,0.0,0.0,0.0248254481703043,0.0074232760816812515,0.031143847852945328,0.0,0.0,0.0,0.0,0.0,0.0,0.0,0.0,0.0
1606986330587194546,307626,1606982729982320411,imu_link,0.0005909919273108244,0.004981949459761381,0.5250216722488403,0.8510741591453552,0.0,0.0,0.0,0.0,0.0,0.0,0.0,0.0,0.0,63.34169006347656,0.450317919254303,0.3573795557022095,0.0,0.0,0.0,0.0,0.0,0.0,0.0,0.0,0.0,0.0248254481703043,0.0074232760816812515,0.031143847852945328,0.0,0.0,0.0,0.0,0.0,0.0,0.0,0.0,0.0
1606986330587205739,307627,1606982729982398762,imu_link,0.0005872892797924578,0.004984831903129816,0.5250253677368164,0.8510717749595642,0.0,0.0,0.0,0.0,0.0,0.0,0.0,0.0,0.0,63.342193603515625,0.4508201479911804,0.3571939468383789,0.0,0.0,0.0,0.0,0.0,0.0,0.0,0.0,0.0,0.014941834844648838,0.005010129883885384,0.012567700818181038,0.0,0.0,0.0,0.0,0.0,0.0,0.0,0.0,0.0
1606986330587222385,307628,1606982729982475750,imu_link,0.0005872892797924578,0.004984831903129816,0.5250253677368164,0.8510717749595642,0.0,0.0,0.0,0.0,0.0,0.0,0.0,0.0,0.0,63.342193603515625,0.4508201479911804,0.3571939468383789,0.0,0.0,0.0,0.0,0.0,0.0,0.0,0.0,0.0,0.014941834844648838,0.005010129883885384,0.012567700818181038,0.0,0.0,0.0,0.0,0.0,0.0,0.0,0.0,0.0
1606986330587231965,307629,1606982729982557018,imu_link,0.0005867870640940964,0.004983211867511272,0.525026798248291,0.8510708808898926,0.0,0.0,0.0,0.0,0.0,0.0,0.0,0.0,0.0,63.342384338378906,0.45069175958633423,0.35704824328422546,0.0,0.0,0.0,0.0,0.0,0.0,0.0,0.0,0.0,0.013695009984076023,-0.009571474976837635,0.00829404592514038,0.0,0.0,0.0,0.0,0.0,0.0,0.0,0.0,0.0
1606986330587246175,307630,1606982729982641228,imu_link,0.0005867870640940964,0.004983211867511272,0.525026798248291,0.8510708808898926,0.0,0.0,0.0,0.0,0.0,0.0,0.0,0.0,0.0,63.342384338378906,0.45069175958633423,0.35704824328422546,0.0,0.0,0.0,0.0,0.0,0.0,0.0,0.0,0.0,0.013695009984076023,-0.009571474976837635,0.00829404592514038,0.0,0.0,0.0,0.0,0.0,0.0,0.0,0.0,0.0
1606986330587258190,307631,1606982729994907756,imu_link,0.0005878711235709488,0.004986240994185209,0.5250279307365417,0.8510702252388,0.0,0.0,0.0,0.0,0.0,0.0,0.0,0.0,0.0,63.34253692626953,0.45092153549194336,0.35733678936958313,0.0,0.0,0.0,0.0,0.0,0.0,0.0,0.0,0.0,0.006747274659574032,-0.013470589183270931,-0.0021670768037438393,0.0,0.0,0.0,0.0,0.0,0.0,0.0,0.0,0.0
