%time,field.header.seq,field.header.stamp,field.header.frame_id,field.orientation.x,field.orientation.y,field.orientation.z,field.orientation.w,field.orientation_covariance0,field.orientation_covariance1,field.orientation_covariance2,field.orientation_covariance3,field.orientation_covariance4,field.orientation_covariance5,field.orientation_covariance6,field.orientation_covariance7,field.orientation_covariance8,field.angular_velocity.x,field.angular_velocity.y,field.angular_velocity.z,field.angular_velocity_covariance0,field.angular_velocity_covariance1,field.angular_velocity_covariance2,field.angular_velocity_covariance3,field.angular_velocity_covariance4,field.angular_velocity_covariance5,field.angular_velocity_covariance6,field.angular_velocity_covariance7,field.angular_velocity_covariance8,field.linear_acceleration.x,field.linear_acceleration.y,field.linear_acceleration.z,field.linear_acceleration_covariance0,field.linear_acceleration_covariance1,field.linear_acceleration_covariance2,field.linear_acceleration_covariance3,field.linear_acceleration_covariance4,field.linear_acceleration_covariance5,field.linear_acceleration_covariance6,field.linear_acceleration_covariance7,field.linear_acceleration_covariance8
1606987139816047031,955005,1606983539221791257,imu_link,0.0017232511891052127,0.00552075169980526,-0.8695505261421204,0.4938102662563324,0.0,0.0,0.0,0.0,0.0,0.0,0.0,0.0,0.0,-120.81816864013672,0.4841158986091614,-0.45261314511299133,0.0,0.0,0.0,0.0,0.0,0.0,0.0,0.0,0.0,-0.006801309529691935,-0.011784320697188377,0.031362853944301605,0.0,0.0,0.0,0.0,0.0,0.0,0.0,0.0,0.0
1606987139816085765,955006,1606983539221907342,imu_link,0.0017232511891052127,0.00552075169980526,-0.8695505261421204,0.4938102662563324,0.0,0.0,0.0,0.0,0.0,0.0,0.0,0.0,0.0,-120.81816864013672,0.4841158986091614,-0.45261314511299133,0.0,0.0,0.0,0.0,0.0,0.0,0.0,0.0,0.0,-0.006801309529691935,-0.011784320697188377,0.031362853944301605,0.0,0.0,0.0,0.0,0.0,0.0,0.0,0.0,0.0
1606987139816101480,955007,1606983539222051953,imu_link,0.0017234523547813296,0.005515056662261486,-0.8695508241653442,0.49380970001220703,0.0,0.0,0.0,0.0,0.0,0.0,0.0,0.0,0.0,-120.8182373046875,0.4838133156299591,-0.45203453302383423,0.0,0.0,0.0,0.0,0.0,0.0,0.0,0.0,0.0,-0.0057422099635005,-0.006878097541630268,0.015864726155996323,0.0,0.0,0.0,0.0,0.0,0.0,0.0,0.0,0.0
1606987139816113409,955008,1606983539222132399,imu_link,0.0017234523547813296,0.005515056662261486,-0.8695508241653442,0.49380970001220703,0.0,0.0,0.0,0.0,0.0,0.0,0.0,0.0,0.0,-120.8182373046875,0.4838133156299591,-0.45203453302383423,0.0,0.0,0.0,0.0,0.0,0.0,0.0,0.0,0.0,-0.0057422099635005,-0.006878097541630268,0.015864726155996323,0.0,0.0,0.0,0.0,0.0,0.0,0.0,0.0,0.0
1606987139816120480,955009,1606983539222200625,imu_link,0.0017240529414266348,0.005516057834029198,-0.8695502281188965,0.4938108026981354,0.0,0.0,0.0,0.0,0.0,0.0,0.0,0.0,0.0,-120.8180923461914,0.48393040895462036,-0.45209968090057373,0.0,0.0,0.0,0.0,0.0,0.0,0.0,0.0,0.0,-0.002581016393378377,0.0014891939936205745,0.020923547446727753,0.0,0.0,0.0,0.0,0.0,0.0,0.0,0.0,0.0
1606987139816171839,955010,1606983539222281151,imu_link,0.0017240529414266348,0.005516057834029198,-0.8695502281188965,0.4938108026981354,0.0,0.0,0.0,0.0,0.0,0.0,0.0,0.0,0.0,-120.8180923461914,0.48393040895462036,-0.45209968090057373,0.0,0.0,0.0,0.0,0.0,0.0,0.0,0.0,0.0,-0.002581016393378377,0.0014891939936205745,0.020923547446727753,0.0,0.0,0.0,0.0,0.0,0.0,0.0,0.0,0.0
1606987139816185701,955011,1606983539222348218,imu_link,0.0017244986956939101,0.005514799617230892,-0.8695504665374756,0.49381041526794434,0.0,0.0,0.0,0.0,0.0,0.0,0.0,0.0,0.0,-120.81814575195312,0.4839034676551819,-0.4519493281841278,0.0,0.0,0.0,0.0,0.0,0.0,0.0,0.0,0.0,0.0008982443250715733,0.0033796406351029873,0.032160911709070206,0.0,0.0,0.0,0.0,0.0,0.0,0.0,0.0,0.0
1606987139816193950,955012,1606983539222414159,imu_link,0.0017244986956939101,0.005514799617230892,-0.8695504665374756,0.49381041526794434,0.0,0.0,0.0,0.0,0.0,0.0,0.0,0.0,0.0,-120.81814575195312,0.4839034676551819,-0.4519493281841278,0.0,0.0,0.0,0.0,0.0,0.0,0.0,0.0,0.0,0.0008982443250715733,0.0033796406351029873,0.032160911709070206,0.0,0.0,0.0,0.0,0.0,0.0,0.0,0.0,0.0
1606987139816209469,955013,1606983539222484622,imu_link,0.0017251382814720273,0.005514868069440126,-0.869549572467804,0.49381202459335327,0.0,0.0,0.0,0.0,0.0,0.0,0.0,0.0,0.0,-120.81792449951172,0.4839719235897064,-0.4519190192222595,0.0,0.0,0.0,0.0,0.0,0.0,0.0,0.0,0.0,0.0011706610675901175,0.0019206238212063909,0.01695675030350685,0.0,0.0,0.0,0.0,0.0,0.0,0.0,0.0,0.0
1606987139816223571,955014,1606983539222548073,imu_link,0.0017251382814720273,0.005514868069440126,-0.869549572467804,0.49381202459335327,0.0,0.0,0.0,0.0,0.0,0.0,0.0,0.0,0.0,-120.81792449951172,0.4839719235897064,-0.4519190192222595,0.0,0.0,0.0,0.0,0.0,0.0,0.0,0.0,0.0,0.0011706610675901175,0.0019206238212063909,0.01695675030350685,0.0,0.0,0.0,0.0,0.0,0.0,0.0,0.0,0.0
1606987139834224782,955015,1606983539235215668,imu_link,0.0017247661016881466,0.005514528602361679,-0.8695506453514099,0.49381014704704285,0.0,0.0,0.0,0.0,0.0,0.0,0.0,0.0,0.0,-120.81816864013672,0.4839146137237549,-0.45190733671188354,0.0,0.0,0.0,0.0,0.0,0.0,0.0,0.0,0.0,-0.01426369696855545,-0.007452251389622688,-0.01956303045153618,0.0,0.0,0.0,0.0,0.0,0.0,0.0,0.0,0.0
1606987139836871135,955016,1606983539235330289,imu_link,0.0017247661016881466,0.005514528602361679,-0.8695506453514099,0.49381014704704285,0.0,0.0,0.0,0.0,0.0,0.0,0.0,0.0,0.0,-120.81816864013672,0.4839146137237549,-0.45190733671188354,0.0,0.0,0.0,0.0,0.0,0.0,0.0,0.0,0.0,-0.01426369696855545,-0.007452251389622688,-0.01956303045153618,0.0,0.0,0.0,0.0,0.0,0.0,0.0,0.0,0.0
1606987139836888933,955017,1606983539235460567,imu_link,0.0017268192023038864,0.005516542587429285,-0.8695499897003174,0.49381107091903687,0.0,0.0,0.0,0.0,0.0,0.0,0.0,0.0,0.0,-120.81806182861328,0.4842335879802704,-0.45199137926101685,0.0,0.0,0.0,0.0,0.0,0.0,0.0,0.0,0.0,-0.010821330361068249,-0.019214678555727005,-0.02367638796567917,0.0,0.0,0.0,0.0,0.0,0.0,0.0,0.0,0.0
1606987139836900863,955018,1606983539235527012,imu_link,0.0017268192023038864,0.005516542587429285,-0.8695499897003174,0.49381107091903687,0.0,0.0,0.0,0.0,0.0,0.0,0.0,0.0,0.0,-120.81806182861328,0.4842335879802704,-0.45199137926101685,0.0,0.0,0.0,0.0,0.0,0.0,0.0,0.0,0.0,-0.010821330361068249,-0.019214678555727005,-0.02367638796567917,0.0,0.0,0.0,0.0,0.0,0.0,0.0,0.0,0.0
1606987139836920464,955019,1606983539235591686,imu_link,0.0017291518161073327,0.005512511823326349,-0.869550347328186,0.4938105046749115,0.0,0.0,0.0,0.0,0.0,0.0,0.0,0.0,0.0,-120.81813049316406,0.4842376410961151,-0.45145803689956665,0.0,0.0,0.0,0.0,0.0,0.0,0.0,0.0,0.0,0.007042143028229475,0.0003486060304567218,0.02225479669868946,0.0,0.0,0.0,0.0,0.0,0.0,0.0,0.0,0.0
1606987139842251529,955020,1606983539235671896,imu_link,0.0017291518161073327,0.005512511823326349,-0.869550347328186,0.4938105046749115,0.0,0.0,0.0,0.0,0.0,0.0,0.0,0.0,0.0,-120.81813049316406,0.4842376410961151,-0.45145803689956665,0.0,0.0,0.0,0.0,0.0,0.0,0.0,0.0,0.0,0.007042143028229475,0.0003486060304567218,0.02225479669868946,0.0,0.0,0.0,0.0,0.0,0.0,0.0,0.0,0.0
1606987139842275299,955021,1606983539235757947,imu_link,0.0017269646050408483,0.005512690637260675,-0.8695489764213562,0.4938128888607025,0.0,0.0,0.0,0.0,0.0,0.0,0.0,0.0,0.0,-120.81781768798828,0.484031081199646,-0.45159831643104553,0.0,0.0,0.0,0.0,0.0,0.0,0.0,0.0,0.0,0.010614240542054176,0.013156733475625515,0.026631945744156837,0.0,0.0,0.0,0.0,0.0,0.0,0.0,0.0,0.0
1606987139842313707,955022,1606983539235820936,imu_link,0.0017269646050408483,0.005512690637260675,-0.8695489764213562,0.4938128888607025,0.0,0.0,0.0,0.0,0.0,0.0,0.0,0.0,0.0,-120.81781768798828,0.484031081199646,-0.45159831643104553,0.0,0.0,0.0,0.0,0.0,0.0,0.0,0.0,0.0,0.010614240542054176,0.013156733475625515,0.026631945744156837,0.0,0.0,0.0,0.0,0.0,0.0,0.0,0.0,0.0
1606987139842332526,955023,1606983539235882375,imu_link,0.0017286770744249225,0.0055145202204585075,-0.8695501089096069,0.4938109517097473,0.0,0.0,0.0,0.0,0.0,0.0,0.0,0.0,0.0,-120.81806182861328,0.4843042492866516,-0.4516848027706146,0.0,0.0,0.0,0.0,0.0,0.0,0.0,0.0,0.0,0.010028836317360401,-0.0035675137769430876,-0.008628088049590588,0.0,0.0,0.0,0.0,0.0,0.0,0.0,0.0,0.0
1606987139842345273,955024,1606983539235947758,imu_link,0.0017286770744249225,0.0055145202204585075,-0.8695501089096069,0.4938109517097473,0.0,0.0,0.0,0.0,0.0,0.0,0.0,0.0,0.0,-120.81806182861328,0.4843042492866516,-0.4516848027706146,0.0,0.0,0.0,0.0,0.0,0.0,0.0,0.0,0.0,0.010028836317360401,-0.0035675137769430876,-0.008628088049590588,0.0,0.0,0.0,0.0,0.0,0.0,0.0,0.0,0.0
1606987139842353927,955025,1606983539236014172,imu_link,0.00173110980540514,0.005515240598469973,-0.8695497512817383,0.49381154775619507,0.0,0.0,0.0,0.0,0.0,0.0,0.0,0.0,0.0,-120.8179931640625,0.484587699174881,-0.45161864161491394,0.0,0.0,0.0,0.0,0.0,0.0,0.0,0.0,0.0,0.0019753382075577974,-0.004205332137644291,-0.016312962397933006,0.0,0.0,0.0,0.0,0.0,0.0,0.0,0.0,0.0
1606987139842370572,955026,1606983539249071244,imu_link,0.00173110980540514,0.005515240598469973,-0.8695497512817383,0.49381154775619507,0.0,0.0,0.0,0.0,0.0,0.0,0.0,0.0,0.0,-120.8179931640625,0.484587699174881,-0.45161864161491394,0.0,0.0,0.0,0.0,0.0,0.0,0.0,0.0,0.0,0.0019753382075577974,-0.004205332137644291,-0.016312962397933006,0.0,0.0,0.0,0.0,0.0,0.0,0.0,0.0,0.0
1606987139842388625,955027,1606983539249188511,imu_link,0.0017321720952168107,0.0055154492147266865,-0.8695555329322815,0.49380141496658325,0.0,0.0,0.0,0.0,0.0,0.0,0.0,0.0,0.0,-120.8193359375,0.48470014333724976,-0.45158493518829346,0.0,0.0,0.0,0.0,0.0,0.0,0.0,0.0,0.0,0.00144748215097934,-0.00406845286488533,0.01639687456190586,0.0,0.0,0.0,0.0,0.0,0.0,0.0,0.0,0.0
1606987139842398900,955028,1606983539249345566,imu_link,0.0017321720952168107,0.0055154492147266865,-0.8695555329322815,0.49380141496658325,0.0,0.0,0.0,0.0,0.0,0.0,0.0,0.0,0.0,-120.8193359375,0.48470014333724976,-0.45158493518829346,0.0,0.0,0.0,0.0,0.0,0.0,0.0,0.0,0.0,0.00144748215097934,-0.00406845286488533,0.01639687456190586,0.0,0.0,0.0,0.0,0.0,0.0,0.0,0.0,0.0
1606987139848044919,955029,1606983539249418335,imu_link,0.0017320968909189105,0.00551547622308135,-0.8695552945137024,0.4938018023967743,0.0,0.0,0.0,0.0,0.0,0.0,0.0,0.0,0.0,-120.81927490234375,0.48469436168670654,-0.4515915811061859,0.0,0.0,0.0,0.0,0.0,0.0,0.0,0.0,0.0,0.003785913810133934,-0.010468116961419582,0.05022105202078819,0.0,0.0,0.0,0.0,0.0,0.0,0.0,0.0,0.0
1606987139848074979,955030,1606983539249487435,imu_link,0.0017320968909189105,0.00551547622308135,-0.8695552945137024,0.4938018023967743,0.0,0.0,0.0,0.0,0.0,0.0,0.0,0.0,0.0,-120.81927490234375,0.48469436168670654,-0.4515915811061859,0.0,0.0,0.0,0.0,0.0,0.0,0.0,0.0,0.0,0.003785913810133934,-0.010468116961419582,0.05022105202078819,0.0,0.0,0.0,0.0,0.0,0.0,0.0,0.0,0.0
1606987139848088279,955031,1606983539249548953,imu_link,0.0017333264695480466,0.005514853168278933,-0.8695626258850098,0.4937889277935028,0.0,0.0,0.0,0.0,0.0,0.0,0.0,0.0,0.0,-120.82096862792969,0.48477494716644287,-0.4514671564102173,0.0,0.0,0.0,0.0,0.0,0.0,0.0,0.0,0.0,-0.005615583620965481,-0.00400190195068717,0.05024398863315582,0.0,0.0,0.0,0.0,0.0,0.0,0.0,0.0,0.0
1606987139848101868,955032,1606983539249665106,imu_link,0.0017333264695480466,0.005514853168278933,-0.8695626258850098,0.4937889277935028,0.0,0.0,0.0,0.0,0.0,0.0,0.0,0.0,0.0,-120.82096862792969,0.48477494716644287,-0.4514671564102173,0.0,0.0,0.0,0.0,0.0,0.0,0.0,0.0,0.0,-0.005615583620965481,-0.00400190195068717,0.05024398863315582,0.0,0.0,0.0,0.0,0.0,0.0,0.0,0.0,0.0
1606987139848118898,955033,1606983539249736483,imu_link,0.001732886303216219,0.005516633857041597,-0.8695617914199829,0.49379029870033264,0.0,0.0,0.0,0.0,0.0,0.0,0.0,0.0,0.0,-120.82079315185547,0.4848325252532959,-0.45166873931884766,0.0,0.0,0.0,0.0,0.0,0.0,0.0,0.0,0.0,-0.008060979656875134,0.009191473945975304,0.050099339336156845,0.0,0.0,0.0,0.0,0.0,0.0,0.0,0.0,0.0
1606987139848135347,955034,1606983539249799044,imu_link,0.001732886303216219,0.005516633857041597,-0.8695617914199829,0.49379029870033264,0.0,0.0,0.0,0.0,0.0,0.0,0.0,0.0,0.0,-120.82079315185547,0.4848325252532959,-0.45166873931884766,0.0,0.0,0.0,0.0,0.0,0.0,0.0,0.0,0.0,-0.008060979656875134,0.009191473945975304,0.050099339336156845,0.0,0.0,0.0,0.0,0.0,0.0,0.0,0.0,0.0
1606987139848187524,955035,1606983539249868240,imu_link,0.0017306795343756676,0.005515442229807377,-0.8695592880249023,0.4937947690486908,0.0,0.0,0.0,0.0,0.0,0.0,0.0,0.0,0.0,-120.82020568847656,0.48454752564430237,-0.4516723155975342,0.0,0.0,0.0,0.0,0.0,0.0,0.0,0.0,0.0,0.012432941235601902,0.02156606689095497,0.03773036599159241,0.0,0.0,0.0,0.0,0.0,0.0,0.0,0.0,0.0
1606987139848204293,955036,1606983539249937003,imu_link,0.0017306795343756676,0.005515442229807377,-0.8695592880249023,0.4937947690486908,0.0,0.0,0.0,0.0,0.0,0.0,0.0,0.0,0.0,-120.82020568847656,0.48454752564430237,-0.4516723155975342,0.0,0.0,0.0,0.0,0.0,0.0,0.0,0.0,0.0,0.012432941235601902,0.02156606689095497,0.03773036599159241,0.0,0.0,0.0,0.0,0.0,0.0,0.0,0.0,0.0
1606987139855911097,955037,1606983539262604522,imu_link,0.001730063813738525,0.0055138468742370605,-0.8695592880249023,0.49379482865333557,0.0,0.0,0.0,0.0,0.0,0.0,0.0,0.0,0.0,-120.8201904296875,0.48439592123031616,-0.45154815912246704,0.0,0.0,0.0,0.0,0.0,0.0,0.0,0.0,0.0,0.0018911511870101094,0.02147715911269188,0.03261712193489075,0.0,0.0,0.0,0.0,0.0,0.0,0.0,0.0,0.0
1606987139855946384,955038,1606983539262719035,imu_link,0.001730063813738525,0.0055138468742370605,-0.8695592880249023,0.49379482865333557,0.0,0.0,0.0,0.0,0.0,0.0,0.0,0.0,0.0,-120.8201904296875,0.48439592123031616,-0.45154815912246704,0.0,0.0,0.0,0.0,0.0,0.0,0.0,0.0,0.0,0.0018911511870101094,0.02147715911269188,0.03261712193489075,0.0,0.0,0.0,0.0,0.0,0.0,0.0,0.0,0.0
1606987139855980255,955039,1606983539262867739,imu_link,0.001729773823171854,0.005518370773643255,-0.8695576786994934,0.4937974810600281,0.0,0.0,0.0,0.0,0.0,0.0,0.0,0.0,0.0,-120.81985473632812,0.4846244156360626,-0.45201393961906433,0.0,0.0,0.0,0.0,0.0,0.0,0.0,0.0,0.0,-0.020499909296631813,0.0003434851532801986,0.03715670853853226,0.0,0.0,0.0,0.0,0.0,0.0,0.0,0.0,0.0
1606987139855992862,955040,1606983539262971920,imu_link,0.001729773823171854,0.005518370773643255,-0.8695576786994934,0.4937974810600281,0.0,0.0,0.0,0.0,0.0,0.0,0.0,0.0,0.0,-120.81985473632812,0.4846244156360626,-0.45201393961906433,0.0,0.0,0.0,0.0,0.0,0.0,0.0,0.0,0.0,-0.020499909296631813,0.0003434851532801986,0.03715670853853226,0.0,0.0,0.0,0.0,0.0,0.0,0.0,0.0,0.0
1606987139866569108,955041,1606983539263036774,imu_link,0.001730308635160327,0.005518216174095869,-0.8695570230484009,0.49379870295524597,0.0,0.0,0.0,0.0,0.0,0.0,0.0,0.0,0.0,-120.81968688964844,0.48466959595680237,-0.4519675076007843,0.0,0.0,0.0,0.0,0.0,0.0,0.0,0.0,0.0,-0.02252507209777832,-0.008520817384123802,0.03523368760943413,0.0,0.0,0.0,0.0,0.0,0.0,0.0,0.0,0.0
1606987139866626587,955042,1606983539263124685,imu_link,0.001730308635160327,0.005518216174095869,-0.8695570230484009,0.49379870295524597,0.0,0.0,0.0,0.0,0.0,0.0,0.0,0.0,0.0,-120.81968688964844,0.48466959595680237,-0.4519675076007843,0.0,0.0,0.0,0.0,0.0,0.0,0.0,0.0,0.0,-0.02252507209777832,-0.008520817384123802,0.03523368760943413,0.0,0.0,0.0,0.0,0.0,0.0,0.0,0.0,0.0
1606987139866657408,955043,1606983539263191616,imu_link,0.0017271023243665695,0.005515535827726126,-0.8695539236068726,0.49380427598953247,0.0,0.0,0.0,0.0,0.0,0.0,0.0,0.0,0.0,-120.8189468383789,0.4842013716697693,-0.45187872648239136,0.0,0.0,0.0,0.0,0.0,0.0,0.0,0.0,0.0,-0.023645473644137383,0.00020352311548776925,0.038258399814367294,0.0,0.0,0.0,0.0,0.0,0.0,0.0,0.0,0.0
1606987139866668061,955044,1606983539263260981,imu_link,0.0017271023243665695,0.005515535827726126,-0.8695539236068726,0.49380427598953247,0.0,0.0,0.0,0.0,0.0,0.0,0.0,0.0,0.0,-120.8189468383789,0.4842013716697693,-0.45187872648239136,0.0,0.0,0.0,0.0,0.0,0.0,0.0,0.0,0.0,-0.023645473644137383,0.00020352311548776925,0.038258399814367294,0.0,0.0,0.0,0.0,0.0,0.0,0.0,0.0,0.0
1606987139866689828,955045,1606983539263328858,imu_link,0.0017267682123929262,0.00551557494327426,-0.8695531487464905,0.49380558729171753,0.0,0.0,0.0,0.0,0.0,0.0,0.0,0.0,0.0,-120.81877136230469,0.48417094349861145,-0.45190081000328064,0.0,0.0,0.0,0.0,0.0,0.0,0.0,0.0,0.0,-0.021193131804466248,-0.007288800552487373,0.02254439890384674,0.0,0.0,0.0,0.0,0.0,0.0,0.0,0.0,0.0
1606987139880284331,955046,1606983539263395220,imu_link,0.0017267682123929262,0.00551557494327426,-0.8695531487464905,0.49380558729171753,0.0,0.0,0.0,0.0,0.0,0.0,0.0,0.0,0.0,-120.81877136230469,0.48417094349861145,-0.45190081000328064,0.0,0.0,0.0,0.0,0.0,0.0,0.0,0.0,0.0,-0.021193131804466248,-0.007288800552487373,0.02254439890384674,0.0,0.0,0.0,0.0,0.0,0.0,0.0,0.0,0.0
1606987139880313093,955047,1606983539263457897,imu_link,0.0017269940581172705,0.005514260847121477,-0.869551420211792,0.49380865693092346,0.0,0.0,0.0,0.0,0.0,0.0,0.0,0.0,0.0,-120.81837463378906,0.4841206967830658,-0.45175546407699585,0.0,0.0,0.0,0.0,0.0,0.0,0.0,0.0,0.0,-0.02191741205751896,-0.0024380674585700035,-0.004253042861819267,0.0,0.0,0.0,0.0,0.0,0.0,0.0,0.0,0.0
1606987139880327266,955048,1606983539275446082,imu_link,0.0017269940581172705,0.005514260847121477,-0.869551420211792,0.49380865693092346,0.0,0.0,0.0,0.0,0.0,0.0,0.0,0.0,0.0,-120.81837463378906,0.4841206967830658,-0.45175546407699585,0.0,0.0,0.0,0.0,0.0,0.0,0.0,0.0,0.0,-0.02191741205751896,-0.0024380674585700035,-0.004253042861819267,0.0,0.0,0.0,0.0,0.0,0.0,0.0,0.0,0.0
1606987139880339176,955049,1606983539275563029,imu_link,0.0017288592644035816,0.005514852236956358,-0.8695507645606995,0.4938097298145294,0.0,0.0,0.0,0.0,0.0,0.0,0.0,0.0,0.0,-120.81822967529297,0.48434051871299744,-0.45170822739601135,0.0,0.0,0.0,0.0,0.0,0.0,0.0,0.0,0.0,-0.011873183771967888,0.020448489114642143,-0.0038542533293366432,0.0,0.0,0.0,0.0,0.0,0.0,0.0,0.0,0.0
1606987139880351506,955050,1606983539275693102,imu_link,0.0017288592644035816,0.005514852236956358,-0.8695507645606995,0.4938097298145294,0.0,0.0,0.0,0.0,0.0,0.0,0.0,0.0,0.0,-120.81822967529297,0.48434051871299744,-0.45170822739601135,0.0,0.0,0.0,0.0,0.0,0.0,0.0,0.0,0.0,-0.011873183771967888,0.020448489114642143,-0.0038542533293366432,0.0,0.0,0.0,0.0,0.0,0.0,0.0,0.0,0.0
1606987139880360892,955051,1606983539275771271,imu_link,0.0017269497038796544,0.005515999626368284,-0.8695494532585144,0.4938119947910309,0.0,0.0,0.0,0.0,0.0,0.0,0.0,0.0,0.0,-120.81792449951172,0.4842163622379303,-0.45192936062812805,0.0,0.0,0.0,0.0,0.0,0.0,0.0,0.0,0.0,0.00022422919573727995,0.011736271902918816,0.003213191870599985,0.0,0.0,0.0,0.0,0.0,0.0,0.0,0.0,0.0
1606987139880369329,955052,1606983539275859225,imu_link,0.0017269497038796544,0.005515999626368284,-0.8695494532585144,0.4938119947910309,0.0,0.0,0.0,0.0,0.0,0.0,0.0,0.0,0.0,-120.81792449951172,0.4842163622379303,-0.45192936062812805,0.0,0.0,0.0,0.0,0.0,0.0,0.0,0.0,0.0,0.00022422919573727995,0.011736271902918816,0.003213191870599985,0.0,0.0,0.0,0.0,0.0,0.0,0.0,0.0,0.0
1606987139880400789,955053,1606983539275958362,imu_link,0.001727648195810616,0.005515516735613346,-0.8695493936538696,0.49381223320961,0.0,0.0,0.0,0.0,0.0,0.0,0.0,0.0,0.0,-120.81790161132812,0.484258770942688,-0.4518415331840515,0.0,0.0,0.0,0.0,0.0,0.0,0.0,0.0,0.0,-0.00368702644482255,0.006255676969885826,0.005311416927725077,0.0,0.0,0.0,0.0,0.0,0.0,0.0,0.0,0.0
1606987139886363561,955054,1606983539276029727,imu_link,0.001727648195810616,0.005515516735613346,-0.8695493936538696,0.49381223320961,0.0,0.0,0.0,0.0,0.0,0.0,0.0,0.0,0.0,-120.81790161132812,0.484258770942688,-0.4518415331840515,0.0,0.0,0.0,0.0,0.0,0.0,0.0,0.0,0.0,-0.00368702644482255,0.006255676969885826,0.005311416927725077,0.0,0.0,0.0,0.0,0.0,0.0,0.0,0.0,0.0
1606987139886391126,955055,1606983539276116421,imu_link,0.001728213857859373,0.005515829659998417,-0.8695475459098816,0.49381542205810547,0.0,0.0,0.0,0.0,0.0,0.0,0.0,0.0,0.0,-120.81747436523438,0.4843344986438751,-0.45183897018432617,0.0,0.0,0.0,0.0,0.0,0.0,0.0,0.0,0.0,-0.011871511116623878,0.029358848929405212,0.0018030755454674363,0.0,0.0,0.0,0.0,0.0,0.0,0.0,0.0,0.0
1606987139886410463,955056,1606983539276190449,imu_link,0.001728213857859373,0.005515829659998417,-0.8695475459098816,0.49381542205810547,0.0,0.0,0.0,0.0,0.0,0.0,0.0,0.0,0.0,-120.81747436523438,0.4843344986438751,-0.45183897018432617,0.0,0.0,0.0,0.0,0.0,0.0,0.0,0.0,0.0,-0.011871511116623878,0.029358848929405212,0.0018030755454674363,0.0,0.0,0.0,0.0,0.0,0.0,0.0,0.0,0.0
1606987139886430868,955057,1606983539276270831,imu_link,0.0017298158491030335,0.005517627578228712,-0.8695471286773682,0.49381619691848755,0.0,0.0,0.0,0.0,0.0,0.0,0.0,0.0,0.0,-120.8173828125,0.48459628224372864,-0.4519270062446594,0.0,0.0,0.0,0.0,0.0,0.0,0.0,0.0,0.0,0.011097680777311325,0.024455925449728966,0.01111360639333725,0.0,0.0,0.0,0.0,0.0,0.0,0.0,0.0,0.0
1606987139896051023,955058,1606983539289224969,imu_link,0.0017298158491030335,0.005517627578228712,-0.8695471286773682,0.49381619691848755,0.0,0.0,0.0,0.0,0.0,0.0,0.0,0.0,0.0,-120.8173828125,0.48459628224372864,-0.4519270062446594,0.0,0.0,0.0,0.0,0.0,0.0,0.0,0.0,0.0,0.011097680777311325,0.024455925449728966,0.01111360639333725,0.0,0.0,0.0,0.0,0.0,0.0,0.0,0.0,0.0
1606987139896075363,955059,1606983539289323010,imu_link,0.0017295086290687323,0.005519961006939411,-0.8695507645606995,0.4938097596168518,0.0,0.0,0.0,0.0,0.0,0.0,0.0,0.0,0.0,-120.81822967529297,0.48469430208206177,-0.4521804749965668,0.0,0.0,0.0,0.0,0.0,0.0,0.0,0.0,0.0,0.004787568934261799,0.015095872804522514,0.025383157655596733,0.0,0.0,0.0,0.0,0.0,0.0,0.0,0.0,0.0
1606987139896118615,955060,1606983539289417128,imu_link,0.0017295086290687323,0.005519961006939411,-0.8695507645606995,0.4938097596168518,0.0,0.0,0.0,0.0,0.0,0.0,0.0,0.0,0.0,-120.81822967529297,0.48469430208206177,-0.4521804749965668,0.0,0.0,0.0,0.0,0.0,0.0,0.0,0.0,0.0,0.004787568934261799,0.015095872804522514,0.025383157655596733,0.0,0.0,0.0,0.0,0.0,0.0,0.0,0.0,0.0
1606987139896131204,955061,1606983539289473919,imu_link,0.0017306484514847398,0.005521262995898724,-0.8695509433746338,0.49380946159362793,0.0,0.0,0.0,0.0,0.0,0.0,0.0,0.0,0.0,-120.81826782226562,0.4848814606666565,-0.4522460103034973,0.0,0.0,0.0,0.0,0.0,0.0,0.0,0.0,0.0,-0.01094910129904747,0.01586052216589451,0.011479293927550316,0.0,0.0,0.0,0.0,0.0,0.0,0.0,0.0,0.0
1606987139900163770,955062,1606983539289535091,imu_link,0.0017306484514847398,0.005521262995898724,-0.8695509433746338,0.49380946159362793,0.0,0.0,0.0,0.0,0.0,0.0,0.0,0.0,0.0,-120.81826782226562,0.4848814606666565,-0.4522460103034973,0.0,0.0,0.0,0.0,0.0,0.0,0.0,0.0,0.0,-0.01094910129904747,0.01586052216589451,0.011479293927550316,0.0,0.0,0.0,0.0,0.0,0.0,0.0,0.0,0.0
1606987139900188898,955063,1606983539289592376,imu_link,0.001727880211547017,0.005524103995412588,-0.8695530891418457,0.4938056766986847,0.0,0.0,0.0,0.0,0.0,0.0,0.0,0.0,0.0,-120.81877136230469,0.48476442694664,-0.45268774032592773,0.0,0.0,0.0,0.0,0.0,0.0,0.0,0.0,0.0,0.003050178987905383,0.00920207891613245,0.00965020339936018,0.0,0.0,0.0,0.0,0.0,0.0,0.0,0.0,0.0
1606987139900202656,955064,1606983539289661560,imu_link,0.001727880211547017,0.005524103995412588,-0.8695530891418457,0.4938056766986847,0.0,0.0,0.0,0.0,0.0,0.0,0.0,0.0,0.0,-120.81877136230469,0.48476442694664,-0.45268774032592773,0.0,0.0,0.0,0.0,0.0,0.0,0.0,0.0,0.0,0.003050178987905383,0.00920207891613245,0.00965020339936018,0.0,0.0,0.0,0.0,0.0,0.0,0.0,0.0,0.0
1606987139900218709,955065,1606983539289717305,imu_link,0.001727636787109077,0.0055219572968780994,-0.8695535063743591,0.4938048720359802,0.0,0.0,0.0,0.0,0.0,0.0,0.0,0.0,0.0,-120.8188705444336,0.484618216753006,-0.45248815417289734,0.0,0.0,0.0,0.0,0.0,0.0,0.0,0.0,0.0,0.0028495043516159058,-0.0016365504125133157,0.019145073369145393,0.0,0.0,0.0,0.0,0.0,0.0,0.0,0.0,0.0
1606987139944299436,955066,1606983539289768300,imu_link,0.001727636787109077,0.0055219572968780994,-0.8695535063743591,0.4938048720359802,0.0,0.0,0.0,0.0,0.0,0.0,0.0,0.0,0.0,-120.8188705444336,0.484618216753006,-0.45248815417289734,0.0,0.0,0.0,0.0,0.0,0.0,0.0,0.0,0.0,0.0028495043516159058,-0.0016365504125133157,0.019145073369145393,0.0,0.0,0.0,0.0,0.0,0.0,0.0,0.0,0.0
1606987139944330087,955067,1606983539289819459,imu_link,0.0017281579785048962,0.005521965213119984,-0.8695564866065979,0.49379962682724,0.0,0.0,0.0,0.0,0.0,0.0,0.0,0.0,0.0,-120.81956481933594,0.48466789722442627,-0.452462375164032,0.0,0.0,0.0,0.0,0.0,0.0,0.0,0.0,0.0,0.004552769009023905,0.0043227458372712135,0.0269203819334507,0.0,0.0,0.0,0.0,0.0,0.0,0.0,0.0,0.0
1606987139944353103,955068,1606983539289872685,imu_link,0.0017281579785048962,0.005521965213119984,-0.8695564866065979,0.49379962682724,0.0,0.0,0.0,0.0,0.0,0.0,0.0,0.0,0.0,-120.81956481933594,0.48466789722442627,-0.452462375164032,0.0,0.0,0.0,0.0,0.0,0.0,0.0,0.0,0.0,0.004552769009023905,0.0043227458372712135,0.0269203819334507,0.0,0.0,0.0,0.0,0.0,0.0,0.0,0.0,0.0
1606987139953128510,955069,1606983539302722697,imu_link,0.0017277196748182178,0.005523471161723137,-0.8695563077926636,0.49379995465278625,0.0,0.0,0.0,0.0,0.0,0.0,0.0,0.0,0.0,-120.81952667236328,0.48470962047576904,-0.45263704657554626,0.0,0.0,0.0,0.0,0.0,0.0,0.0,0.0,0.0,0.019646918401122093,-0.01688942313194275,0.03085188940167427,0.0,0.0,0.0,0.0,0.0,0.0,0.0,0.0,0.0
1606987139953163589,955070,1606983539302851044,imu_link,0.0017277196748182178,0.005523471161723137,-0.8695563077926636,0.49379995465278625,0.0,0.0,0.0,0.0,0.0,0.0,0.0,0.0,0.0,-120.81952667236328,0.48470962047576904,-0.45263704657554626,0.0,0.0,0.0,0.0,0.0,0.0,0.0,0.0,0.0,0.019646918401122093,-0.01688942313194275,0.03085188940167427,0.0,0.0,0.0,0.0,0.0,0.0,0.0,0.0,0.0
1606987139953182558,955071,1606983539303020681,imu_link,0.0017317801248282194,0.00552012026309967,-0.8695600628852844,0.49379339814186096,0.0,0.0,0.0,0.0,0.0,0.0,0.0,0.0,0.0,-120.82038116455078,0.4849212169647217,-0.4520770013332367,0.0,0.0,0.0,0.0,0.0,0.0,0.0,0.0,0.0,0.006600197404623032,-0.036299075931310654,0.016112707555294037,0.0,0.0,0.0,0.0,0.0,0.0,0.0,0.0,0.0
1606987139953222367,955072,1606983539303090883,imu_link,0.0017317801248282194,0.00552012026309967,-0.8695600628852844,0.49379339814186096,0.0,0.0,0.0,0.0,0.0,0.0,0.0,0.0,0.0,-120.82038116455078,0.4849212169647217,-0.4520770013332367,0.0,0.0,0.0,0.0,0.0,0.0,0.0,0.0,0.0,0.006600197404623032,-0.036299075931310654,0.016112707555294037,0.0,0.0,0.0,0.0,0.0,0.0,0.0,0.0,0.0
1606987139957731352,955073,1606983539303162569,imu_link,0.0017322484636679292,0.005518495570868254,-0.8695600032806396,0.4937935173511505,0.0,0.0,0.0,0.0,0.0,0.0,0.0,0.0,0.0,-120.82037353515625,0.48487600684165955,-0.4518885016441345,0.0,0.0,0.0,0.0,0.0,0.0,0.0,0.0,0.0,-0.004526448901742697,-0.020320264622569084,0.01219716016203165,0.0,0.0,0.0,0.0,0.0,0.0,0.0,0.0,0.0
1606987139957759502,955074,1606983539303239957,imu_link,0.0017322484636679292,0.005518495570868254,-0.8695600032806396,0.4937935173511505,0.0,0.0,0.0,0.0,0.0,0.0,0.0,0.0,0.0,-120.82037353515625,0.48487600684165955,-0.4518885016441345,0.0,0.0,0.0,0.0,0.0,0.0,0.0,0.0,0.0,-0.004526448901742697,-0.020320264622569084,0.01219716016203165,0.0,0.0,0.0,0.0,0.0,0.0,0.0,0.0,0.0
1606987139957766273,955075,1606983539303337859,imu_link,0.0017336448654532433,0.005516389384865761,-0.8695573210716248,0.49379807710647583,0.0,0.0,0.0,0.0,0.0,0.0,0.0,0.0,0.0,-120.81977081298828,0.48489832878112793,-0.4515971839427948,0.0,0.0,0.0,0.0,0.0,0.0,0.0,0.0,0.0,0.0017753617139533162,-0.017156511545181274,0.030107568949460983,0.0,0.0,0.0,0.0,0.0,0.0,0.0,0.0,0.0
1606987139957787937,955076,1606983539303414369,imu_link,0.0017336448654532433,0.005516389384865761,-0.8695573210716248,0.49379807710647583,0.0,0.0,0.0,0.0,0.0,0.0,0.0,0.0,0.0,-120.81977081298828,0.48489832878112793,-0.4515971839427948,0.0,0.0,0.0,0.0,0.0,0.0,0.0,0.0,0.0,0.0017753617139533162,-0.017156511545181274,0.030107568949460983,0.0,0.0,0.0,0.0,0.0,0.0,0.0,0.0,0.0
1606987140050328354,955077,1606983539303483217,imu_link,0.001734188525006175,0.0055149332620203495,-0.8695565462112427,0.49379962682724,0.0,0.0,0.0,0.0,0.0,0.0,0.0,0.0,0.0,-120.81956481933594,0.48487094044685364,-0.4514203667640686,0.0,0.0,0.0,0.0,0.0,0.0,0.0,0.0,0.0,-0.004565207287669182,0.00044851849088445306,0.02982739359140396,0.0,0.0,0.0,0.0,0.0,0.0,0.0,0.0,0.0
1606987140050338447,955078,1606983539303560178,imu_link,0.001734188525006175,0.0055149332620203495,-0.8695565462112427,0.49379962682724,0.0,0.0,0.0,0.0,0.0,0.0,0.0,0.0,0.0,-120.81956481933594,0.48487094044685364,-0.4514203667640686,0.0,0.0,0.0,0.0,0.0,0.0,0.0,0.0,0.0,-0.004565207287669182,0.00044851849088445306,0.02982739359140396,0.0,0.0,0.0,0.0,0.0,0.0,0.0,0.0,0.0
1606987140050349763,955079,1606983539303632884,imu_link,0.001732962904497981,0.00551510788500309,-0.8695529699325562,0.4938059449195862,0.0,0.0,0.0,0.0,0.0,0.0,0.0,0.0,0.0,-120.81873321533203,0.4847619831562042,-0.4515036642551422,0.0,0.0,0.0,0.0,0.0,0.0,0.0,0.0,0.0,-0.009964041411876678,-0.003928433638066053,0.012098305858671665,0.0,0.0,0.0,0.0,0.0,0.0,0.0,0.0,0.0
1606987140050362855,955080,1606983539316561698,imu_link,0.001732962904497981,0.00551510788500309,-0.8695529699325562,0.4938059449195862,0.0,0.0,0.0,0.0,0.0,0.0,0.0,0.0,0.0,-120.81873321533203,0.4847619831562042,-0.4515036642551422,0.0,0.0,0.0,0.0,0.0,0.0,0.0,0.0,0.0,-0.009964041411876678,-0.003928433638066053,0.012098305858671665,0.0,0.0,0.0,0.0,0.0,0.0,0.0,0.0,0.0
1606987140050377768,955081,1606983539316623957,imu_link,0.0017339505720883608,0.005514605902135372,-0.8695526123046875,0.4938065707683563,0.0,0.0,0.0,0.0,0.0,0.0,0.0,0.0,0.0,-120.81864929199219,0.4848323166370392,-0.4513973593711853,0.0,0.0,0.0,0.0,0.0,0.0,0.0,0.0,0.0,-0.013819403946399689,-0.017023108899593353,0.00514804944396019,0.0,0.0,0.0,0.0,0.0,0.0,0.0,0.0,0.0
1606987140052383194,955082,1606983539316661494,imu_link,0.0017339505720883608,0.005514605902135372,-0.8695526123046875,0.4938065707683563,0.0,0.0,0.0,0.0,0.0,0.0,0.0,0.0,0.0,-120.81864929199219,0.4848323166370392,-0.4513973593711853,0.0,0.0,0.0,0.0,0.0,0.0,0.0,0.0,0.0,-0.013819403946399689,-0.017023108899593353,0.00514804944396019,0.0,0.0,0.0,0.0,0.0,0.0,0.0,0.0,0.0
1606987140052392183,955083,1606983539316693003,imu_link,0.0017346785170957446,0.005510471761226654,-0.8695511817932129,0.4938091039657593,0.0,0.0,0.0,0.0,0.0,0.0,0.0,0.0,0.0,-120.81830596923828,0.4846722185611725,-0.45094284415245056,0.0,0.0,0.0,0.0,0.0,0.0,0.0,0.0,0.0,-0.005713869351893663,-0.013212312944233418,0.0023149943444877863,0.0,0.0,0.0,0.0,0.0,0.0,0.0,0.0,0.0
1606987140052404727,955084,1606983539316723728,imu_link,0.0017346785170957446,0.005510471761226654,-0.8695511817932129,0.4938091039657593,0.0,0.0,0.0,0.0,0.0,0.0,0.0,0.0,0.0,-120.81830596923828,0.4846722185611725,-0.45094284415245056,0.0,0.0,0.0,0.0,0.0,0.0,0.0,0.0,0.0,-0.005713869351893663,-0.013212312944233418,0.0023149943444877863,0.0,0.0,0.0,0.0,0.0,0.0,0.0,0.0,0.0
1606987140052409752,955085,1606983539316754571,imu_link,0.0017343669896945357,0.005510855931788683,-0.8695507645606995,0.4938098192214966,0.0,0.0,0.0,0.0,0.0,0.0,0.0,0.0,0.0,-120.81822967529297,0.4846632480621338,-0.4509982764720917,0.0,0.0,0.0,0.0,0.0,0.0,0.0,0.0,0.0,-0.003175983903929591,-0.0010102982632815838,0.015523509122431278,0.0,0.0,0.0,0.0,0.0,0.0,0.0,0.0,0.0
1606987140058355594,955086,1606983539316796857,imu_link,0.0017343669896945357,0.005510855931788683,-0.8695507645606995,0.4938098192214966,0.0,0.0,0.0,0.0,0.0,0.0,0.0,0.0,0.0,-120.81822967529297,0.4846632480621338,-0.4509982764720917,0.0,0.0,0.0,0.0,0.0,0.0,0.0,0.0,0.0,-0.003175983903929591,-0.0010102982632815838,0.015523509122431278,0.0,0.0,0.0,0.0,0.0,0.0,0.0,0.0,0.0
1606987140058395544,955087,1606983539316830249,imu_link,0.0017350709531456232,0.005511254072189331,-0.8695484399795532,0.4938138723373413,0.0,0.0,0.0,0.0,0.0,0.0,0.0,0.0,0.0,-120.81768035888672,0.48475801944732666,-0.4509958326816559,0.0,0.0,0.0,0.0,0.0,0.0,0.0,0.0,0.0,-0.0031599346548318863,0.02619074285030365,0.023944668471813202,0.0,0.0,0.0,0.0,0.0,0.0,0.0,0.0,0.0
1606987140058406578,955088,1606983539316860977,imu_link,0.0017350709531456232,0.005511254072189331,-0.8695484399795532,0.4938138723373413,0.0,0.0,0.0,0.0,0.0,0.0,0.0,0.0,0.0,-120.81768035888672,0.48475801944732666,-0.4509958326816559,0.0,0.0,0.0,0.0,0.0,0.0,0.0,0.0,0.0,-0.0031599346548318863,0.02619074285030365,0.023944668471813202,0.0,0.0,0.0,0.0,0.0,0.0,0.0,0.0,0.0
1606987140058416145,955089,1606983539316896324,imu_link,0.0017372365109622478,0.005510569550096989,-0.8695490956306458,0.49381279945373535,0.0,0.0,0.0,0.0,0.0,0.0,0.0,0.0,0.0,-120.81783294677734,0.484934538602829,-0.45080575346946716,0.0,0.0,0.0,0.0,0.0,0.0,0.0,0.0,0.0,0.001513856928795576,0.017594192177057266,0.009111616760492325,0.0,0.0,0.0,0.0,0.0,0.0,0.0,0.0,0.0
1606987140058438063,955090,1606983539316927808,imu_link,0.0017372365109622478,0.005510569550096989,-0.8695490956306458,0.49381279945373535,0.0,0.0,0.0,0.0,0.0,0.0,0.0,0.0,0.0,-120.81783294677734,0.484934538602829,-0.45080575346946716,0.0,0.0,0.0,0.0,0.0,0.0,0.0,0.0,0.0,0.001513856928795576,0.017594192177057266,0.009111616760492325,0.0,0.0,0.0,0.0,0.0,0.0,0.0,0.0,0.0
1606987140060604354,955091,1606983539326535802,imu_link,0.001735612633638084,0.005511793773621321,-0.8695522546768188,0.49380719661712646,0.0,0.0,0.0,0.0,0.0,0.0,0.0,0.0,0.0,-120.81856536865234,0.48483914136886597,-0.4510227143764496,0.0,0.0,0.0,0.0,0.0,0.0,0.0,0.0,0.0,-0.00073059624992311,-0.001253953785635531,0.002939580474048853,0.0,0.0,0.0,0.0,0.0,0.0,0.0,0.0,0.0
1606987140060622032,955092,1606983539326734064,imu_link,0.001735612633638084,0.005511793773621321,-0.8695522546768188,0.49380719661712646,0.0,0.0,0.0,0.0,0.0,0.0,0.0,0.0,0.0,-120.81856536865234,0.48483914136886597,-0.4510227143764496,0.0,0.0,0.0,0.0,0.0,0.0,0.0,0.0,0.0,-0.00073059624992311,-0.001253953785635531,0.002939580474048853,0.0,0.0,0.0,0.0,0.0,0.0,0.0,0.0,0.0
1606987140060631453,955093,1606983539326795131,imu_link,0.0017352631548419595,0.005510714370757341,-0.8695527911186218,0.49380621314048767,0.0,0.0,0.0,0.0,0.0,0.0,0.0,0.0,0.0,-120.81868743896484,0.484742671251297,-0.4509355127811432,0.0,0.0,0.0,0.0,0.0,0.0,0.0,0.0,0.0,-0.0023600663989782333,0.00734454533085227,-0.011818080209195614,0.0,0.0,0.0,0.0,0.0,0.0,0.0,0.0,0.0
1606987140060638457,955094,1606983539326837489,imu_link,0.0017352631548419595,0.005510714370757341,-0.8695527911186218,0.49380621314048767,0.0,0.0,0.0,0.0,0.0,0.0,0.0,0.0,0.0,-120.81868743896484,0.484742671251297,-0.4509355127811432,0.0,0.0,0.0,0.0,0.0,0.0,0.0,0.0,0.0,-0.0023600663989782333,0.00734454533085227,-0.011818080209195614,0.0,0.0,0.0,0.0,0.0,0.0,0.0,0.0,0.0
1606987140195734917,955095,1606983539326884795,imu_link,0.0017366573447361588,0.005511987488716841,-0.8695564270019531,0.4937998056411743,0.0,0.0,0.0,0.0,0.0,0.0,0.0,0.0,0.0,-120.81953430175781,0.48495039343833923,-0.4509870111942291,0.0,0.0,0.0,0.0,0.0,0.0,0.0,0.0,0.0,-0.00034196506021544337,0.014818325638771057,-0.02282174676656723,0.0,0.0,0.0,0.0,0.0,0.0,0.0,0.0,0.0
1606987140195809758,955096,1606983539326935418,imu_link,0.0017366573447361588,0.005511987488716841,-0.8695564270019531,0.4937998056411743,0.0,0.0,0.0,0.0,0.0,0.0,0.0,0.0,0.0,-120.81953430175781,0.48495039343833923,-0.4509870111942291,0.0,0.0,0.0,0.0,0.0,0.0,0.0,0.0,0.0,-0.00034196506021544337,0.014818325638771057,-0.02282174676656723,0.0,0.0,0.0,0.0,0.0,0.0,0.0,0.0,0.0
1606987140195828708,955097,1606983539326997442,imu_link,0.0017369987908750772,0.005510572809726,-0.8695551156997681,0.4938020706176758,0.0,0.0,0.0,0.0,0.0,0.0,0.0,0.0,0.0,-120.8192367553711,0.4849054515361786,-0.4508254826068878,0.0,0.0,0.0,0.0,0.0,0.0,0.0,0.0,0.0,-0.010117245838046074,0.03310614079236984,-0.00941973552107811,0.0,0.0,0.0,0.0,0.0,0.0,0.0,0.0,0.0
1606987140195901524,955098,1606983539327045427,imu_link,0.0017369987908750772,0.005510572809726,-0.8695551156997681,0.4938020706176758,0.0,0.0,0.0,0.0,0.0,0.0,0.0,0.0,0.0,-120.8192367553711,0.4849054515361786,-0.4508254826068878,0.0,0.0,0.0,0.0,0.0,0.0,0.0,0.0,0.0,-0.010117245838046074,0.03310614079236984,-0.00941973552107811,0.0,0.0,0.0,0.0,0.0,0.0,0.0,0.0,0.0
1606987140195932189,955099,1606983539339199707,imu_link,0.001733311451971531,0.005511883180588484,-0.8695589900016785,0.49379533529281616,0.0,0.0,0.0,0.0,0.0,0.0,0.0,0.0,0.0,-120.82012176513672,0.4846087396144867,-0.4511684477329254,0.0,0.0,0.0,0.0,0.0,0.0,0.0,0.0,0.0,-0.006036510691046715,0.026853902265429497,-0.0050718048587441444,0.0,0.0,0.0,0.0,0.0,0.0,0.0,0.0,0.0
1606987140195955658,955100,1606983539339291623,imu_link,0.001733311451971531,0.005511883180588484,-0.8695589900016785,0.49379533529281616,0.0,0.0,0.0,0.0,0.0,0.0,0.0,0.0,0.0,-120.82012176513672,0.4846087396144867,-0.4511684477329254,0.0,0.0,0.0,0.0,0.0,0.0,0.0,0.0,0.0,-0.006036510691046715,0.026853902265429497,-0.0050718048587441444,0.0,0.0,0.0,0.0,0.0,0.0,0.0,0.0,0.0
1606987140195981880,955101,1606983539339403794,imu_link,0.0017316294834017754,0.0055114878341555595,-0.8695594072341919,0.49379459023475647,0.0,0.0,0.0,0.0,0.0,0.0,0.0,0.0,0.0,-120.82022094726562,0.4844183325767517,-0.451224684715271,0.0,0.0,0.0,0.0,0.0,0.0,0.0,0.0,0.0,0.007746444083750248,0.006697847042232752,0.010553093627095222,0.0,0.0,0.0,0.0,0.0,0.0,0.0,0.0,0.0
1606987140196037667,955102,1606983539339459955,imu_link,0.0017316294834017754,0.0055114878341555595,-0.8695594072341919,0.49379459023475647,0.0,0.0,0.0,0.0,0.0,0.0,0.0,0.0,0.0,-120.82022094726562,0.4844183325767517,-0.451224684715271,0.0,0.0,0.0,0.0,0.0,0.0,0.0,0.0,0.0,0.007746444083750248,0.006697847042232752,0.010553093627095222,0.0,0.0,0.0,0.0,0.0,0.0,0.0,0.0,0.0
1606987140196062298,955103,1606983539339509424,imu_link,0.0017314280848950148,0.005513010546565056,-0.8695638179779053,0.4937867820262909,0.0,0.0,0.0,0.0,0.0,0.0,0.0,0.0,0.0,-120.82125854492188,0.4844803810119629,-0.45139214396476746,0.0,0.0,0.0,0.0,0.0,0.0,0.0,0.0,0.0,0.0041479854844510555,0.0026288682129234076,0.019672270864248276,0.0,0.0,0.0,0.0,0.0,0.0,0.0,0.0,0.0
1606987140196080442,955104,1606983539339568633,imu_link,0.0017314280848950148,0.005513010546565056,-0.8695638179779053,0.4937867820262909,0.0,0.0,0.0,0.0,0.0,0.0,0.0,0.0,0.0,-120.82125854492188,0.4844803810119629,-0.45139214396476746,0.0,0.0,0.0,0.0,0.0,0.0,0.0,0.0,0.0,0.0041479854844510555,0.0026288682129234076,0.019672270864248276,0.0,0.0,0.0,0.0,0.0,0.0,0.0,0.0,0.0
1606987140196133079,955105,1606983539339618763,imu_link,0.001729693729430437,0.00551487784832716,-0.8695642948150635,0.4937860369682312,0.0,0.0,0.0,0.0,0.0,0.0,0.0,0.0,0.0,-120.82135772705078,0.48441287875175476,-0.45167675614356995,0.0,0.0,0.0,0.0,0.0,0.0,0.0,0.0,0.0,0.018176846206188202,-0.004791198298335075,0.006146402098238468,0.0,0.0,0.0,0.0,0.0,0.0,0.0,0.0,0.0
1606987140196149780,955106,1606983539339666175,imu_link,0.001729693729430437,0.00551487784832716,-0.8695642948150635,0.4937860369682312,0.0,0.0,0.0,0.0,0.0,0.0,0.0,0.0,0.0,-120.82135772705078,0.48441287875175476,-0.45167675614356995,0.0,0.0,0.0,0.0,0.0,0.0,0.0,0.0,0.0,0.018176846206188202,-0.004791198298335075,0.006146402098238468,0.0,0.0,0.0,0.0,0.0,0.0,0.0,0.0,0.0
1606987140196249166,955107,1606983539339718797,imu_link,0.0017339749028906226,0.005517761223018169,-0.8695631623268127,0.493787944316864,0.0,0.0,0.0,0.0,0.0,0.0,0.0,0.0,0.0,-120.82110595703125,0.48500365018844604,-0.4517207741737366,0.0,0.0,0.0,0.0,0.0,0.0,0.0,0.0,0.0,0.013377395458519459,0.0004619388491846621,0.03759307786822319,0.0,0.0,0.0,0.0,0.0,0.0,0.0,0.0,0.0
1606987140196279868,955108,1606983539339771244,imu_link,0.0017339749028906226,0.005517761223018169,-0.8695631623268127,0.493787944316864,0.0,0.0,0.0,0.0,0.0,0.0,0.0,0.0,0.0,-120.82110595703125,0.48500365018844604,-0.4517207741737366,0.0,0.0,0.0,0.0,0.0,0.0,0.0,0.0,0.0,0.013377395458519459,0.0004619388491846621,0.03759307786822319,0.0,0.0,0.0,0.0,0.0,0.0,0.0,0.0,0.0
1606987140196297016,955109,1606983539352840065,imu_link,0.0017350345151498914,0.005517837591469288,-0.8695620894432068,0.49378976225852966,0.0,0.0,0.0,0.0,0.0,0.0,0.0,0.0,0.0,-120.82086181640625,0.4851144850254059,-0.4516674280166626,0.0,0.0,0.0,0.0,0.0,0.0,0.0,0.0,0.0,-0.01102959644049406,0.014243226498365402,0.03084561601281166,0.0,0.0,0.0,0.0,0.0,0.0,0.0,0.0,0.0
1606987140196321327,955110,1606983539352937044,imu_link,0.0017350345151498914,0.005517837591469288,-0.8695620894432068,0.49378976225852966,0.0,0.0,0.0,0.0,0.0,0.0,0.0,0.0,0.0,-120.82086181640625,0.4851144850254059,-0.4516674280166626,0.0,0.0,0.0,0.0,0.0,0.0,0.0,0.0,0.0,-0.01102959644049406,0.014243226498365402,0.03084561601281166,0.0,0.0,0.0,0.0,0.0,0.0,0.0,0.0,0.0
1606987140196343054,955111,1606983539353047018,imu_link,0.0017330269329249859,0.005518668331205845,-0.8695617318153381,0.4937904477119446,0.0,0.0,0.0,0.0,0.0,0.0,0.0,0.0,0.0,-120.8207778930664,0.4849618077278137,-0.4518633484840393,0.0,0.0,0.0,0.0,0.0,0.0,0.0,0.0,0.0,-0.00619166437536478,0.011600143276154995,-0.013943680562078953,0.0,0.0,0.0,0.0,0.0,0.0,0.0,0.0,0.0
1606987140196355402,955112,1606983539353103114,imu_link,0.0017330269329249859,0.005518668331205845,-0.8695617318153381,0.4937904477119446,0.0,0.0,0.0,0.0,0.0,0.0,0.0,0.0,0.0,-120.8207778930664,0.4849618077278137,-0.4518633484840393,0.0,0.0,0.0,0.0,0.0,0.0,0.0,0.0,0.0,-0.00619166437536478,0.011600143276154995,-0.013943680562078953,0.0,0.0,0.0,0.0,0.0,0.0,0.0,0.0,0.0
1606987140196375228,955113,1606983539353156122,imu_link,0.0017339718760922551,0.005519970320165157,-0.869562029838562,0.4937898814678192,0.0,0.0,0.0,0.0,0.0,0.0,0.0,0.0,0.0,-120.82084655761719,0.48512935638427734,-0.4519399404525757,0.0,0.0,0.0,0.0,0.0,0.0,0.0,0.0,0.0,-0.007187149487435818,0.010767340660095215,-0.017805106937885284,0.0,0.0,0.0,0.0,0.0,0.0,0.0,0.0,0.0
1606987140196393002,955114,1606983539353203844,imu_link,0.0017339718760922551,0.005519970320165157,-0.869562029838562,0.4937898814678192,0.0,0.0,0.0,0.0,0.0,0.0,0.0,0.0,0.0,-120.82084655761719,0.48512935638427734,-0.4519399404525757,0.0,0.0,0.0,0.0,0.0,0.0,0.0,0.0,0.0,-0.007187149487435818,0.010767340660095215,-0.017805106937885284,0.0,0.0,0.0,0.0,0.0,0.0,0.0,0.0,0.0
1606987140196408365,955115,1606983539353267818,imu_link,0.0017319930484518409,0.005520964507013559,-0.8695616126060486,0.4937906265258789,0.0,0.0,0.0,0.0,0.0,0.0,0.0,0.0,0.0,-120.82075500488281,0.484988808631897,-0.4521506428718567,0.0,0.0,0.0,0.0,0.0,0.0,0.0,0.0,0.0,-0.014745292253792286,0.013765889219939709,0.008607516065239906,0.0,0.0,0.0,0.0,0.0,0.0,0.0,0.0,0.0
1606987140196481777,955116,1606983539353324125,imu_link,0.0017319930484518409,0.005520964507013559,-0.8695616126060486,0.4937906265258789,0.0,0.0,0.0,0.0,0.0,0.0,0.0,0.0,0.0,-120.82075500488281,0.484988808631897,-0.4521506428718567,0.0,0.0,0.0,0.0,0.0,0.0,0.0,0.0,0.0,-0.014745292253792286,0.013765889219939709,0.008607516065239906,0.0,0.0,0.0,0.0,0.0,0.0,0.0,0.0,0.0
1606987140196565234,955117,1606983539353376521,imu_link,0.0017334249569103122,0.005522208753973246,-0.8695608973503113,0.4937918484210968,0.0,0.0,0.0,0.0,0.0,0.0,0.0,0.0,0.0,-120.82058715820312,0.48520252108573914,-0.45219290256500244,0.0,0.0,0.0,0.0,0.0,0.0,0.0,0.0,0.0,-0.0034723582211881876,0.007408523466438055,0.013787692412734032,0.0,0.0,0.0,0.0,0.0,0.0,0.0,0.0,0.0
1606987140196582924,955118,1606983539353425225,imu_link,0.0017334249569103122,0.005522208753973246,-0.8695608973503113,0.4937918484210968,0.0,0.0,0.0,0.0,0.0,0.0,0.0,0.0,0.0,-120.82058715820312,0.48520252108573914,-0.45219290256500244,0.0,0.0,0.0,0.0,0.0,0.0,0.0,0.0,0.0,-0.0034723582211881876,0.007408523466438055,0.013787692412734032,0.0,0.0,0.0,0.0,0.0,0.0,0.0,0.0,0.0
1606987140196611059,955119,1606983539353475768,imu_link,0.0017342792125418782,0.00552439084276557,-0.8695589900016785,0.4937952160835266,0.0,0.0,0.0,0.0,0.0,0.0,0.0,0.0,0.0,-120.82015228271484,0.4854128658771515,-0.4523601531982422,0.0,0.0,0.0,0.0,0.0,0.0,0.0,0.0,0.0,0.008712845854461193,-0.002951995236799121,0.0024901756551116705,0.0,0.0,0.0,0.0,0.0,0.0,0.0,0.0,0.0
1606987140196623366,955120,1606983539366660707,imu_link,0.0017342792125418782,0.00552439084276557,-0.8695589900016785,0.4937952160835266,0.0,0.0,0.0,0.0,0.0,0.0,0.0,0.0,0.0,-120.82015228271484,0.4854128658771515,-0.4523601531982422,0.0,0.0,0.0,0.0,0.0,0.0,0.0,0.0,0.0,0.008712845854461193,-0.002951995236799121,0.0024901756551116705,0.0,0.0,0.0,0.0,0.0,0.0,0.0,0.0,0.0
1606987140196658341,955121,1606983539366751515,imu_link,0.0017329973634332418,0.005525258369743824,-0.8695576786994934,0.4937974810600281,0.0,0.0,0.0,0.0,0.0,0.0,0.0,0.0,0.0,-120.81985473632812,0.4853353798389435,-0.4525178372859955,0.0,0.0,0.0,0.0,0.0,0.0,0.0,0.0,0.0,0.00610892940312624,-0.003954993560910225,0.016173025593161583,0.0,0.0,0.0,0.0,0.0,0.0,0.0,0.0,0.0
1606987140196720175,955122,1606983539366867515,imu_link,0.0017329973634332418,0.005525258369743824,-0.8695576786994934,0.4937974810600281,0.0,0.0,0.0,0.0,0.0,0.0,0.0,0.0,0.0,-120.81985473632812,0.4853353798389435,-0.4525178372859955,0.0,0.0,0.0,0.0,0.0,0.0,0.0,0.0,0.0,0.00610892940312624,-0.003954993560910225,0.016173025593161583,0.0,0.0,0.0,0.0,0.0,0.0,0.0,0.0,0.0
1606987140196792953,955123,1606983539366926422,imu_link,0.001735309255309403,0.005524707958102226,-0.8695580363273621,0.4937968850135803,0.0,0.0,0.0,0.0,0.0,0.0,0.0,0.0,0.0,-120.81993103027344,0.48553431034088135,-0.4523325562477112,0.0,0.0,0.0,0.0,0.0,0.0,0.0,0.0,0.0,-0.011414142325520515,0.00516553595662117,0.017750347033143044,0.0,0.0,0.0,0.0,0.0,0.0,0.0,0.0,0.0
1606987140196814573,955124,1606983539367000720,imu_link,0.001735309255309403,0.005524707958102226,-0.8695580363273621,0.4937968850135803,0.0,0.0,0.0,0.0,0.0,0.0,0.0,0.0,0.0,-120.81993103027344,0.48553431034088135,-0.4523325562477112,0.0,0.0,0.0,0.0,0.0,0.0,0.0,0.0,0.0,-0.011414142325520515,0.00516553595662117,0.017750347033143044,0.0,0.0,0.0,0.0,0.0,0.0,0.0,0.0,0.0
1606987140196835938,955125,1606983539367052978,imu_link,0.0017358219483867288,0.005525026470422745,-0.8695581555366516,0.493796706199646,0.0,0.0,0.0,0.0,0.0,0.0,0.0,0.0,0.0,-120.81996154785156,0.48560333251953125,-0.452335387468338,0.0,0.0,0.0,0.0,0.0,0.0,0.0,0.0,0.0,-0.013551183044910431,0.012341671623289585,0.007723119109869003,0.0,0.0,0.0,0.0,0.0,0.0,0.0,0.0,0.0
1606987140196859688,955126,1606983539367117983,imu_link,0.0017358219483867288,0.005525026470422745,-0.8695581555366516,0.493796706199646,0.0,0.0,0.0,0.0,0.0,0.0,0.0,0.0,0.0,-120.81996154785156,0.48560333251953125,-0.452335387468338,0.0,0.0,0.0,0.0,0.0,0.0,0.0,0.0,0.0,-0.013551183044910431,0.012341671623289585,0.007723119109869003,0.0,0.0,0.0,0.0,0.0,0.0,0.0,0.0,0.0
1606987140196900185,955127,1606983539367169227,imu_link,0.0017341907368972898,0.005525706801563501,-0.8695569634437561,0.49379870295524597,0.0,0.0,0.0,0.0,0.0,0.0,0.0,0.0,0.0,-120.81968688964844,0.48548030853271484,-0.452494353055954,0.0,0.0,0.0,0.0,0.0,0.0,0.0,0.0,0.0,-0.004836236126720905,0.008829353377223015,0.008805050514638424,0.0,0.0,0.0,0.0,0.0,0.0,0.0,0.0,0.0
1606987140196934518,955128,1606983539367216373,imu_link,0.0017341907368972898,0.005525706801563501,-0.8695569634437561,0.49379870295524597,0.0,0.0,0.0,0.0,0.0,0.0,0.0,0.0,0.0,-120.81968688964844,0.48548030853271484,-0.452494353055954,0.0,0.0,0.0,0.0,0.0,0.0,0.0,0.0,0.0,-0.004836236126720905,0.008829353377223015,0.008805050514638424,0.0,0.0,0.0,0.0,0.0,0.0,0.0,0.0,0.0
1606987140196959107,955129,1606983539367261240,imu_link,0.0017330799018964171,0.005526038818061352,-0.8695576786994934,0.4937974810600281,0.0,0.0,0.0,0.0,0.0,0.0,0.0,0.0,0.0,-120.81985473632812,0.48538780212402344,-0.4525910019874573,0.0,0.0,0.0,0.0,0.0,0.0,0.0,0.0,0.0,-0.014563326723873615,0.012367816641926765,0.016915570944547653,0.0,0.0,0.0,0.0,0.0,0.0,0.0,0.0,0.0
1606987140196995704,955130,1606983539367311663,imu_link,0.0017330799018964171,0.005526038818061352,-0.8695576786994934,0.4937974810600281,0.0,0.0,0.0,0.0,0.0,0.0,0.0,0.0,0.0,-120.81985473632812,0.48538780212402344,-0.4525910019874573,0.0,0.0,0.0,0.0,0.0,0.0,0.0,0.0,0.0,-0.014563326723873615,0.012367816641926765,0.016915570944547653,0.0,0.0,0.0,0.0,0.0,0.0,0.0,0.0,0.0
1606987140197017663,955131,1606983539379893706,imu_link,0.001730737159959972,0.005529382266104221,-0.8695599436759949,0.4937934875488281,0.0,0.0,0.0,0.0,0.0,0.0,0.0,0.0,0.0,-120.82038116455078,0.48534148931503296,-0.4530588984489441,0.0,0.0,0.0,0.0,0.0,0.0,0.0,0.0,0.0,-0.008444469422101974,0.021497415378689766,0.003673067782074213,0.0,0.0,0.0,0.0,0.0,0.0,0.0,0.0,0.0
1606987140197038649,955132,1606983539379999407,imu_link,0.001730737159959972,0.005529382266104221,-0.8695599436759949,0.4937934875488281,0.0,0.0,0.0,0.0,0.0,0.0,0.0,0.0,0.0,-120.82038116455078,0.48534148931503296,-0.4530588984489441,0.0,0.0,0.0,0.0,0.0,0.0,0.0,0.0,0.0,-0.008444469422101974,0.021497415378689766,0.003673067782074213,0.0,0.0,0.0,0.0,0.0,0.0,0.0,0.0,0.0
1606987140197053311,955133,1606983539380132062,imu_link,0.0017288425005972385,0.005528246983885765,-0.8695591688156128,0.49379482865333557,0.0,0.0,0.0,0.0,0.0,0.0,0.0,0.0,0.0,-120.8201904296875,0.48508912324905396,-0.453052282333374,0.0,0.0,0.0,0.0,0.0,0.0,0.0,0.0,0.0,-0.0007535358890891075,0.014177540317177773,-0.014853657223284245,0.0,0.0,0.0,0.0,0.0,0.0,0.0,0.0,0.0
1606987140197090779,955134,1606983539380196680,imu_link,0.0017288425005972385,0.005528246983885765,-0.8695591688156128,0.49379482865333557,0.0,0.0,0.0,0.0,0.0,0.0,0.0,0.0,0.0,-120.8201904296875,0.48508912324905396,-0.453052282333374,0.0,0.0,0.0,0.0,0.0,0.0,0.0,0.0,0.0,-0.0007535358890891075,0.014177540317177773,-0.014853657223284245,0.0,0.0,0.0,0.0,0.0,0.0,0.0,0.0,0.0
1606987140197103476,955135,1606983539380257095,imu_link,0.001727438997477293,0.0055304113775491714,-0.8695614337921143,0.4937908351421356,0.0,0.0,0.0,0.0,0.0,0.0,0.0,0.0,0.0,-120.82072448730469,0.4850696623325348,-0.45334962010383606,0.0,0.0,0.0,0.0,0.0,0.0,0.0,0.0,0.0,0.0012675003381446004,0.014065241441130638,-0.022308949381113052,0.0,0.0,0.0,0.0,0.0,0.0,0.0,0.0,0.0
1606987140197125696,955136,1606983539380522902,imu_link,0.001727438997477293,0.0055304113775491714,-0.8695614337921143,0.4937908351421356,0.0,0.0,0.0,0.0,0.0,0.0,0.0,0.0,0.0,-120.82072448730469,0.4850696623325348,-0.45334962010383606,0.0,0.0,0.0,0.0,0.0,0.0,0.0,0.0,0.0,0.0012675003381446004,0.014065241441130638,-0.022308949381113052,0.0,0.0,0.0,0.0,0.0,0.0,0.0,0.0,0.0
1606987140197138837,955137,1606983539380597763,imu_link,0.001728234114125371,0.005531686823815107,-0.8695611953735352,0.49379125237464905,0.0,0.0,0.0,0.0,0.0,0.0,0.0,0.0,0.0,-120.82067108154297,0.485221266746521,-0.45343148708343506,0.0,0.0,0.0,0.0,0.0,0.0,0.0,0.0,0.0,0.006082149688154459,0.00822389591485262,-0.010883823968470097,0.0,0.0,0.0,0.0,0.0,0.0,0.0,0.0,0.0
1606987140197179160,955138,1606983539380662999,imu_link,0.001728234114125371,0.005531686823815107,-0.8695611953735352,0.49379125237464905,0.0,0.0,0.0,0.0,0.0,0.0,0.0,0.0,0.0,-120.82067108154297,0.485221266746521,-0.45343148708343506,0.0,0.0,0.0,0.0,0.0,0.0,0.0,0.0,0.0,0.006082149688154459,0.00822389591485262,-0.010883823968470097,0.0,0.0,0.0,0.0,0.0,0.0,0.0,0.0,0.0
1606987140197250036,955139,1606983539380730282,imu_link,0.001726546324789524,0.005532028619199991,-0.8695614337921143,0.493790864944458,0.0,0.0,0.0,0.0,0.0,0.0,0.0,0.0,0.0,-120.82072448730469,0.4850722849369049,-0.4535612463951111,0.0,0.0,0.0,0.0,0.0,0.0,0.0,0.0,0.0,-0.00805076863616705,-0.008100788109004498,-0.00836305320262909,0.0,0.0,0.0,0.0,0.0,0.0,0.0,0.0,0.0
1606987140197276783,955140,1606983539380793445,imu_link,0.001726546324789524,0.005532028619199991,-0.8695614337921143,0.493790864944458,0.0,0.0,0.0,0.0,0.0,0.0,0.0,0.0,0.0,-120.82072448730469,0.4850722849369049,-0.4535612463951111,0.0,0.0,0.0,0.0,0.0,0.0,0.0,0.0,0.0,-0.00805076863616705,-0.008100788109004498,-0.00836305320262909,0.0,0.0,0.0,0.0,0.0,0.0,0.0,0.0,0.0
1606987140197293009,955141,1606983539380859357,imu_link,0.001728250179439783,0.005531895440071821,-0.8695606589317322,0.4937921464443207,0.0,0.0,0.0,0.0,0.0,0.0,0.0,0.0,0.0,-120.82054901123047,0.4852351248264313,-0.45345088839530945,0.0,0.0,0.0,0.0,0.0,0.0,0.0,0.0,0.0,-0.003393029561266303,-0.007416831329464912,0.0026030594017356634,0.0,0.0,0.0,0.0,0.0,0.0,0.0,0.0,0.0
1606987140197334009,955142,1606983539392985715,imu_link,0.001728250179439783,0.005531895440071821,-0.8695606589317322,0.4937921464443207,0.0,0.0,0.0,0.0,0.0,0.0,0.0,0.0,0.0,-120.82054901123047,0.4852351248264313,-0.45345088839530945,0.0,0.0,0.0,0.0,0.0,0.0,0.0,0.0,0.0,-0.003393029561266303,-0.007416831329464912,0.0026030594017356634,0.0,0.0,0.0,0.0,0.0,0.0,0.0,0.0,0.0
1606987140197349475,955143,1606983539393099254,imu_link,0.0017299550818279386,0.005530965514481068,-0.8695632815361023,0.49378761649131775,0.0,0.0,0.0,0.0,0.0,0.0,0.0,0.0,0.0,-120.82115173339844,0.4853500723838806,-0.4532642364501953,0.0,0.0,0.0,0.0,0.0,0.0,0.0,0.0,0.0,0.011323980055749416,0.0030948997009545565,0.03115887939929962,0.0,0.0,0.0,0.0,0.0,0.0,0.0,0.0,0.0
1606987140197361229,955144,1606983539393244169,imu_link,0.0017299550818279386,0.005530965514481068,-0.8695632815361023,0.49378761649131775,0.0,0.0,0.0,0.0,0.0,0.0,0.0,0.0,0.0,-120.82115173339844,0.4853500723838806,-0.4532642364501953,0.0,0.0,0.0,0.0,0.0,0.0,0.0,0.0,0.0,0.011323980055749416,0.0030948997009545565,0.03115887939929962,0.0,0.0,0.0,0.0,0.0,0.0,0.0,0.0,0.0
1606987140197371377,955145,1606983539393323665,imu_link,0.0017323966603726149,0.0055311587639153,-0.8695635795593262,0.4937869906425476,0.0,0.0,0.0,0.0,0.0,0.0,0.0,0.0,0.0,-120.82122802734375,0.4856039583683014,-0.45314571261405945,0.0,0.0,0.0,0.0,0.0,0.0,0.0,0.0,0.0,0.021305285394191742,0.006415454670786858,0.02030179090797901,0.0,0.0,0.0,0.0,0.0,0.0,0.0,0.0,0.0
1606987140197431515,955146,1606983539393394056,imu_link,0.0017323966603726149,0.0055311587639153,-0.8695635795593262,0.4937869906425476,0.0,0.0,0.0,0.0,0.0,0.0,0.0,0.0,0.0,-120.82122802734375,0.4856039583683014,-0.45314571261405945,0.0,0.0,0.0,0.0,0.0,0.0,0.0,0.0,0.0,0.021305285394191742,0.006415454670786858,0.02030179090797901,0.0,0.0,0.0,0.0,0.0,0.0,0.0,0.0,0.0
1606987140252002005,955147,1606983539393483263,imu_link,0.0017334629083052278,0.005534936673939228,-0.8695597052574158,0.4937937557697296,0.0,0.0,0.0,0.0,0.0,0.0,0.0,0.0,0.0,-120.82034301757812,0.4859274923801422,-0.4534580409526825,0.0,0.0,0.0,0.0,0.0,0.0,0.0,0.0,0.0,0.01862882263958454,0.0029731369577348232,-0.009662003256380558,0.0,0.0,0.0,0.0,0.0,0.0,0.0,0.0,0.0
1606987140252034486,955148,1606983539393551047,imu_link,0.0017334629083052278,0.005534936673939228,-0.8695597052574158,0.4937937557697296,0.0,0.0,0.0,0.0,0.0,0.0,0.0,0.0,0.0,-120.82034301757812,0.4859274923801422,-0.4534580409526825,0.0,0.0,0.0,0.0,0.0,0.0,0.0,0.0,0.0,0.01862882263958454,0.0029731369577348232,-0.009662003256380558,0.0,0.0,0.0,0.0,0.0,0.0,0.0,0.0,0.0
1606987140252048148,955149,1606983539393612923,imu_link,0.001733085373416543,0.005536344368010759,-0.8695588707923889,0.493795245885849,0.0,0.0,0.0,0.0,0.0,0.0,0.0,0.0,0.0,-120.82013702392578,0.48597028851509094,-0.4536188840866089,0.0,0.0,0.0,0.0,0.0,0.0,0.0,0.0,0.0,0.012150359340012074,0.00015974356210790575,-0.0185040645301342,0.0,0.0,0.0,0.0,0.0,0.0,0.0,0.0,0.0
1606987140252056132,955150,1606983539393673820,imu_link,0.001733085373416543,0.005536344368010759,-0.8695588707923889,0.493795245885849,0.0,0.0,0.0,0.0,0.0,0.0,0.0,0.0,0.0,-120.82013702392578,0.48597028851509094,-0.4536188840866089,0.0,0.0,0.0,0.0,0.0,0.0,0.0,0.0,0.0,0.012150359340012074,0.00015974356210790575,-0.0185040645301342,0.0,0.0,0.0,0.0,0.0,0.0,0.0,0.0,0.0
1606987140252067000,955151,1606983539393738581,imu_link,0.0017368074040859938,0.005537895951420069,-0.8695555329322815,0.4938011169433594,0.0,0.0,0.0,0.0,0.0,0.0,0.0,0.0,0.0,-120.81937408447266,0.4864320755004883,-0.45355960726737976,0.0,0.0,0.0,0.0,0.0,0.0,0.0,0.0,0.0,0.014893386512994766,0.0030841666739434004,-0.009296869859099388,0.0,0.0,0.0,0.0,0.0,0.0,0.0,0.0,0.0
1606987140252089699,955152,1606983539406815000,imu_link,0.0017368074040859938,0.005537895951420069,-0.8695555329322815,0.4938011169433594,0.0,0.0,0.0,0.0,0.0,0.0,0.0,0.0,0.0,-120.81937408447266,0.4864320755004883,-0.45355960726737976,0.0,0.0,0.0,0.0,0.0,0.0,0.0,0.0,0.0,0.014893386512994766,0.0030841666739434004,-0.009296869859099388,0.0,0.0,0.0,0.0,0.0,0.0,0.0,0.0,0.0
1606987140252146987,955153,1606983539406932685,imu_link,0.0017376065952703357,0.00553768640384078,-0.8695560097694397,0.49380019307136536,0.0,0.0,0.0,0.0,0.0,0.0,0.0,0.0,0.0,-120.81949615478516,0.4864993989467621,-0.45349401235580444,0.0,0.0,0.0,0.0,0.0,0.0,0.0,0.0,0.0,-0.002158906776458025,0.00841957051306963,-0.01671650819480419,0.0,0.0,0.0,0.0,0.0,0.0,0.0,0.0,0.0
1606987140252164790,955154,1606983539407112064,imu_link,0.0017376065952703357,0.00553768640384078,-0.8695560097694397,0.49380019307136536,0.0,0.0,0.0,0.0,0.0,0.0,0.0,0.0,0.0,-120.81949615478516,0.4864993989467621,-0.45349401235580444,0.0,0.0,0.0,0.0,0.0,0.0,0.0,0.0,0.0,-0.002158906776458025,0.00841957051306963,-0.01671650819480419,0.0,0.0,0.0,0.0,0.0,0.0,0.0,0.0,0.0
1606987140254130863,955155,1606983539407185450,imu_link,0.00173845118843019,0.005539557430893183,-0.8695610165596008,0.493791401386261,0.0,0.0,0.0,0.0,0.0,0.0,0.0,0.0,0.0,-120.8206558227539,0.4866848289966583,-0.45363759994506836,0.0,0.0,0.0,0.0,0.0,0.0,0.0,0.0,0.0,-0.016522089019417763,0.011872042901813984,-0.016951369121670723,0.0,0.0,0.0,0.0,0.0,0.0,0.0,0.0,0.0
1606987140254153230,955156,1606983539407251133,imu_link,0.00173845118843019,0.005539557430893183,-0.8695610165596008,0.493791401386261,0.0,0.0,0.0,0.0,0.0,0.0,0.0,0.0,0.0,-120.8206558227539,0.4866848289966583,-0.45363759994506836,0.0,0.0,0.0,0.0,0.0,0.0,0.0,0.0,0.0,-0.016522089019417763,0.011872042901813984,-0.016951369121670723,0.0,0.0,0.0,0.0,0.0,0.0,0.0,0.0,0.0
1606987140254168488,955157,1606983539407321966,imu_link,0.001738639664836228,0.005538669414818287,-0.8695615530014038,0.49379050731658936,0.0,0.0,0.0,0.0,0.0,0.0,0.0,0.0,0.0,-120.82077026367188,0.4866528809070587,-0.4535388946533203,0.0,0.0,0.0,0.0,0.0,0.0,0.0,0.0,0.0,-0.016434645280241966,0.008307930082082748,0.01054032426327467,0.0,0.0,0.0,0.0,0.0,0.0,0.0,0.0,0.0
1606987140254177844,955158,1606983539407408947,imu_link,0.001738639664836228,0.005538669414818287,-0.8695615530014038,0.49379050731658936,0.0,0.0,0.0,0.0,0.0,0.0,0.0,0.0,0.0,-120.82077026367188,0.4866528809070587,-0.4535388946533203,0.0,0.0,0.0,0.0,0.0,0.0,0.0,0.0,0.0,-0.016434645280241966,0.008307930082082748,0.01054032426327467,0.0,0.0,0.0,0.0,0.0,0.0,0.0,0.0,0.0
1606987140254186907,955159,1606983539407475300,imu_link,0.0017352082068100572,0.005538566969335079,-0.8695671558380127,0.4937806725502014,0.0,0.0,0.0,0.0,0.0,0.0,0.0,0.0,0.0,-120.82206726074219,0.486299991607666,-0.4537283778190613,0.0,0.0,0.0,0.0,0.0,0.0,0.0,0.0,0.0,-0.008331484161317348,0.0012019647983834147,0.017486637458205223,0.0,0.0,0.0,0.0,0.0,0.0,0.0,0.0,0.0
1606987140254195870,955160,1606983539407536542,imu_link,0.0017352082068100572,0.005538566969335079,-0.8695671558380127,0.4937806725502014,0.0,0.0,0.0,0.0,0.0,0.0,0.0,0.0,0.0,-120.82206726074219,0.486299991607666,-0.4537283778190613,0.0,0.0,0.0,0.0,0.0,0.0,0.0,0.0,0.0,-0.008331484161317348,0.0012019647983834147,0.017486637458205223,0.0,0.0,0.0,0.0,0.0,0.0,0.0,0.0,0.0
1606987140254208544,955161,1606983539407604231,imu_link,0.0017321895575150847,0.005538190249353647,-0.8695666790008545,0.49378153681755066,0.0,0.0,0.0,0.0,0.0,0.0,0.0,0.0,0.0,-120.82195281982422,0.4859783351421356,-0.45386114716529846,0.0,0.0,0.0,0.0,0.0,0.0,0.0,0.0,0.0,0.013172309845685959,-0.0032605165615677834,0.019069116562604904,0.0,0.0,0.0,0.0,0.0,0.0,0.0,0.0,0.0
1606987140254214801,955162,1606983539407671967,imu_link,0.0017321895575150847,0.005538190249353647,-0.8695666790008545,0.49378153681755066,0.0,0.0,0.0,0.0,0.0,0.0,0.0,0.0,0.0,-120.82195281982422,0.4859783351421356,-0.45386114716529846,0.0,0.0,0.0,0.0,0.0,0.0,0.0,0.0,0.0,0.013172309845685959,-0.0032605165615677834,0.019069116562604904,0.0,0.0,0.0,0.0,0.0,0.0,0.0,0.0,0.0
1606987140254222961,955163,1606983539420141035,imu_link,0.0017341760685667396,0.0055400007404387,-0.8695665597915649,0.4937816858291626,0.0,0.0,0.0,0.0,0.0,0.0,0.0,0.0,0.0,-120.82192993164062,0.48627880215644836,-0.45392900705337524,0.0,0.0,0.0,0.0,0.0,0.0,0.0,0.0,0.0,0.02241734229028225,-0.016761435195803642,0.0318761020898819,0.0,0.0,0.0,0.0,0.0,0.0,0.0,0.0,0.0
1606987140263817100,955164,1606983539420258871,imu_link,0.0017341760685667396,0.0055400007404387,-0.8695665597915649,0.4937816858291626,0.0,0.0,0.0,0.0,0.0,0.0,0.0,0.0,0.0,-120.82192993164062,0.48627880215644836,-0.45392900705337524,0.0,0.0,0.0,0.0,0.0,0.0,0.0,0.0,0.0,0.02241734229028225,-0.016761435195803642,0.0318761020898819,0.0,0.0,0.0,0.0,0.0,0.0,0.0,0.0,0.0
1606987140263829795,955165,1606983539420402448,imu_link,0.001734239631332457,0.005540415644645691,-0.8695658445358276,0.4937829375267029,0.0,0.0,0.0,0.0,0.0,0.0,0.0,0.0,0.0,-120.82176208496094,0.4863092303276062,-0.4539661407470703,0.0,0.0,0.0,0.0,0.0,0.0,0.0,0.0,0.0,0.008243827149271965,-0.019019832834601402,0.017573930323123932,0.0,0.0,0.0,0.0,0.0,0.0,0.0,0.0,0.0
1606987140263836381,955166,1606983539420481831,imu_link,0.001734239631332457,0.005540415644645691,-0.8695658445358276,0.4937829375267029,0.0,0.0,0.0,0.0,0.0,0.0,0.0,0.0,0.0,-120.82176208496094,0.4863092303276062,-0.4539661407470703,0.0,0.0,0.0,0.0,0.0,0.0,0.0,0.0,0.0,0.008243827149271965,-0.019019832834601402,0.017573930323123932,0.0,0.0,0.0,0.0,0.0,0.0,0.0,0.0,0.0
1606987140263843981,955167,1606983539420549897,imu_link,0.001737540471367538,0.0055379243567585945,-0.8695661425590515,0.4937823712825775,0.0,0.0,0.0,0.0,0.0,0.0,0.0,0.0,0.0,-120.82184600830078,0.4864969551563263,-0.4535313546657562,0.0,0.0,0.0,0.0,0.0,0.0,0.0,0.0,0.0,-0.007032865192741156,-0.017136912792921066,0.004286246374249458,0.0,0.0,0.0,0.0,0.0,0.0,0.0,0.0,0.0
1606987140266006223,955168,1606983539420617140,imu_link,0.001737540471367538,0.0055379243567585945,-0.8695661425590515,0.4937823712825775,0.0,0.0,0.0,0.0,0.0,0.0,0.0,0.0,0.0,-120.82184600830078,0.4864969551563263,-0.4535313546657562,0.0,0.0,0.0,0.0,0.0,0.0,0.0,0.0,0.0,-0.007032865192741156,-0.017136912792921066,0.004286246374249458,0.0,0.0,0.0,0.0,0.0,0.0,0.0,0.0,0.0
1606987140266029932,955169,1606983539420705774,imu_link,0.0017374533927068114,0.005540288519114256,-0.8695657253265381,0.4937831163406372,0.0,0.0,0.0,0.0,0.0,0.0,0.0,0.0,0.0,-120.82174682617188,0.4866224527359009,-0.45377159118652344,0.0,0.0,0.0,0.0,0.0,0.0,0.0,0.0,0.0,-0.004084207117557526,-0.019086705520749092,0.0028928122483193874,0.0,0.0,0.0,0.0,0.0,0.0,0.0,0.0,0.0
1606987140266045031,955170,1606983539420772733,imu_link,0.0017374533927068114,0.005540288519114256,-0.8695657253265381,0.4937831163406372,0.0,0.0,0.0,0.0,0.0,0.0,0.0,0.0,0.0,-120.82174682617188,0.4866224527359009,-0.45377159118652344,0.0,0.0,0.0,0.0,0.0,0.0,0.0,0.0,0.0,-0.004084207117557526,-0.019086705520749092,0.0028928122483193874,0.0,0.0,0.0,0.0,0.0,0.0,0.0,0.0,0.0
1606987140266055385,955171,1606983539420840092,imu_link,0.0017372190486639738,0.005533712916076183,-0.8695670366287231,0.49378085136413574,0.0,0.0,0.0,0.0,0.0,0.0,0.0,0.0,0.0,-120.82203674316406,0.48622578382492065,-0.4531307816505432,0.0,0.0,0.0,0.0,0.0,0.0,0.0,0.0,0.0,-0.004982523154467344,0.0030601213220506907,0.0018750876188278198,0.0,0.0,0.0,0.0,0.0,0.0,0.0,0.0,0.0
1606987140266061934,955172,1606983539420908844,imu_link,0.0017372190486639738,0.005533712916076183,-0.8695670366287231,0.49378085136413574,0.0,0.0,0.0,0.0,0.0,0.0,0.0,0.0,0.0,-120.82203674316406,0.48622578382492065,-0.4531307816505432,0.0,0.0,0.0,0.0,0.0,0.0,0.0,0.0,0.0,-0.004982523154467344,0.0030601213220506907,0.0018750876188278198,0.0,0.0,0.0,0.0,0.0,0.0,0.0,0.0,0.0
1606987140266069785,955173,1606983539420972539,imu_link,0.0017378253396600485,0.005532397888600826,-0.8695666193962097,0.4937816858291626,0.0,0.0,0.0,0.0,0.0,0.0,0.0,0.0,0.0,-120.82194519042969,0.48621228337287903,-0.45296499133110046,0.0,0.0,0.0,0.0,0.0,0.0,0.0,0.0,0.0,-0.017277836799621582,0.02191486954689026,0.007838701829314232,0.0,0.0,0.0,0.0,0.0,0.0,0.0,0.0,0.0
1606987140266093896,955174,1606983539434084815,imu_link,0.0017378253396600485,0.005532397888600826,-0.8695666193962097,0.4937816858291626,0.0,0.0,0.0,0.0,0.0,0.0,0.0,0.0,0.0,-120.82194519042969,0.48621228337287903,-0.45296499133110046,0.0,0.0,0.0,0.0,0.0,0.0,0.0,0.0,0.0,-0.017277836799621582,0.02191486954689026,0.007838701829314232,0.0,0.0,0.0,0.0,0.0,0.0,0.0,0.0,0.0
1606987140266104464,955175,1606983539434199689,imu_link,0.001732621225528419,0.005534644238650799,-0.8695690631866455,0.4937773644924164,0.0,0.0,0.0,0.0,0.0,0.0,0.0,0.0,0.0,-120.82250213623047,0.4858185350894928,-0.45348575711250305,0.0,0.0,0.0,0.0,0.0,0.0,0.0,0.0,0.0,-0.006659201346337795,0.027198318392038345,0.025003695860505104,0.0,0.0,0.0,0.0,0.0,0.0,0.0,0.0,0.0
1606987140266108655,955176,1606983539434343225,imu_link,0.001732621225528419,0.005534644238650799,-0.8695690631866455,0.4937773644924164,0.0,0.0,0.0,0.0,0.0,0.0,0.0,0.0,0.0,-120.82250213623047,0.4858185350894928,-0.45348575711250305,0.0,0.0,0.0,0.0,0.0,0.0,0.0,0.0,0.0,-0.006659201346337795,0.027198318392038345,0.025003695860505104,0.0,0.0,0.0,0.0,0.0,0.0,0.0,0.0,0.0
1606987140266113664,955177,1606983539434423627,imu_link,0.001732621225528419,0.005534644238650799,-0.8695690631866455,0.4937773644924164,0.0,0.0,0.0,0.0,0.0,0.0,0.0,0.0,0.0,-120.82250213623047,0.4858185350894928,-0.45348575711250305,0.0,0.0,0.0,0.0,0.0,0.0,0.0,0.0,0.0,0.003562353551387787,0.01374394167214632,0.04809487238526344,0.0,0.0,0.0,0.0,0.0,0.0,0.0,0.0,0.0
1606987140266122630,955178,1606983539434492558,imu_link,0.001732621225528419,0.005534644238650799,-0.8695690631866455,0.4937773644924164,0.0,0.0,0.0,0.0,0.0,0.0,0.0,0.0,0.0,-120.82250213623047,0.4858185350894928,-0.45348575711250305,0.0,0.0,0.0,0.0,0.0,0.0,0.0,0.0,0.0,0.003562353551387787,0.01374394167214632,0.04809487238526344,0.0,0.0,0.0,0.0,0.0,0.0,0.0,0.0,0.0
1606987140266137508,955179,1606983539434560387,imu_link,0.0017314868746325374,0.005537283141165972,-0.8695693016052246,0.49377694725990295,0.0,0.0,0.0,0.0,0.0,0.0,0.0,0.0,0.0,-120.82255554199219,0.4858545958995819,-0.4538131058216095,0.0,0.0,0.0,0.0,0.0,0.0,0.0,0.0,0.0,-0.0018308393191546202,-0.011255348101258278,0.016745977103710175,0.0,0.0,0.0,0.0,0.0,0.0,0.0,0.0,0.0
1606987140321905597,955180,1606983539434649073,imu_link,0.0017314868746325374,0.005537283141165972,-0.8695693016052246,0.49377694725990295,0.0,0.0,0.0,0.0,0.0,0.0,0.0,0.0,0.0,-120.82255554199219,0.4858545958995819,-0.4538131058216095,0.0,0.0,0.0,0.0,0.0,0.0,0.0,0.0,0.0,-0.0018308393191546202,-0.011255348101258278,0.016745977103710175,0.0,0.0,0.0,0.0,0.0,0.0,0.0,0.0,0.0
1606987140321923396,955181,1606983539434713734,imu_link,0.0017296249279752374,0.005535666365176439,-0.8695693016052246,0.49377694725990295,0.0,0.0,0.0,0.0,0.0,0.0,0.0,0.0,0.0,-120.82255554199219,0.4855775833129883,-0.45375728607177734,0.0,0.0,0.0,0.0,0.0,0.0,0.0,0.0,0.0,0.005386929959058762,-0.00967637449502945,-0.023947881534695625,0.0,0.0,0.0,0.0,0.0,0.0,0.0,0.0,0.0
1606987140321949774,955182,1606983539434781503,imu_link,0.0017296249279752374,0.005535666365176439,-0.8695693016052246,0.49377694725990295,0.0,0.0,0.0,0.0,0.0,0.0,0.0,0.0,0.0,-120.82255554199219,0.4855775833129883,-0.45375728607177734,0.0,0.0,0.0,0.0,0.0,0.0,0.0,0.0,0.0,0.005386929959058762,-0.00967637449502945,-0.023947881534695625,0.0,0.0,0.0,0.0,0.0,0.0,0.0,0.0,0.0
1606987140321959616,955183,1606983539434847789,imu_link,0.0017312477575615048,0.005535291973501444,-0.8695682287216187,0.493778795003891,0.0,0.0,0.0,0.0,0.0,0.0,0.0,0.0,0.0,-120.82231140136719,0.48571905493736267,-0.4536271393299103,0.0,0.0,0.0,0.0,0.0,0.0,0.0,0.0,0.0,0.010351354256272316,0.005335238296538591,-0.01185277197510004,0.0,0.0,0.0,0.0,0.0,0.0,0.0,0.0,0.0
1606987140321976728,955184,1606983539434909115,imu_link,0.0017312477575615048,0.005535291973501444,-0.8695682287216187,0.493778795003891,0.0,0.0,0.0,0.0,0.0,0.0,0.0,0.0,0.0,-120.82231140136719,0.48571905493736267,-0.4536271393299103,0.0,0.0,0.0,0.0,0.0,0.0,0.0,0.0,0.0,0.010351354256272316,0.005335238296538591,-0.01185277197510004,0.0,0.0,0.0,0.0,0.0,0.0,0.0,0.0,0.0
1606987140321989069,955185,1606983539447450952,imu_link,0.0017314135329797864,0.0055335452780127525,-0.8695677518844604,0.49377965927124023,0.0,0.0,0.0,0.0,0.0,0.0,0.0,0.0,0.0,-120.82220458984375,0.48563718795776367,-0.4534432590007782,0.0,0.0,0.0,0.0,0.0,0.0,0.0,0.0,0.0,0.012255321256816387,0.005800881888717413,0.017690949141979218,0.0,0.0,0.0,0.0,0.0,0.0,0.0,0.0,0.0
1606987140322002359,955186,1606983539447565184,imu_link,0.0017314135329797864,0.0055335452780127525,-0.8695677518844604,0.49377965927124023,0.0,0.0,0.0,0.0,0.0,0.0,0.0,0.0,0.0,-120.82220458984375,0.48563718795776367,-0.4534432590007782,0.0,0.0,0.0,0.0,0.0,0.0,0.0,0.0,0.0,0.012255321256816387,0.005800881888717413,0.017690949141979218,0.0,0.0,0.0,0.0,0.0,0.0,0.0,0.0,0.0
1606987140322017890,955187,1606983539447716675,imu_link,0.0017333636060357094,0.005536423996090889,-0.8695719838142395,0.49377214908599854,0.0,0.0,0.0,0.0,0.0,0.0,0.0,0.0,0.0,-120.82318115234375,0.4859904646873474,-0.4536239504814148,0.0,0.0,0.0,0.0,0.0,0.0,0.0,0.0,0.0,0.026151392608880997,-0.014819827862083912,0.020502103492617607,0.0,0.0,0.0,0.0,0.0,0.0,0.0,0.0,0.0
1606987140322047661,955188,1606983539447792094,imu_link,0.0017333636060357094,0.005536423996090889,-0.8695719838142395,0.49377214908599854,0.0,0.0,0.0,0.0,0.0,0.0,0.0,0.0,0.0,-120.82318115234375,0.4859904646873474,-0.4536239504814148,0.0,0.0,0.0,0.0,0.0,0.0,0.0,0.0,0.0,0.026151392608880997,-0.014819827862083912,0.020502103492617607,0.0,0.0,0.0,0.0,0.0,0.0,0.0,0.0,0.0
1606987140322054538,955189,1606983539447854711,imu_link,0.0017326168017461896,0.005535223986953497,-0.8695724606513977,0.4937713146209717,0.0,0.0,0.0,0.0,0.0,0.0,0.0,0.0,0.0,-120.82329559326172,0.48584771156311035,-0.45354706048965454,0.0,0.0,0.0,0.0,0.0,0.0,0.0,0.0,0.0,0.022672832012176514,-0.00853261724114418,0.01724337600171566,0.0,0.0,0.0,0.0,0.0,0.0,0.0,0.0,0.0
1606987140322070166,955190,1606983539447934138,imu_link,0.0017326168017461896,0.005535223986953497,-0.8695724606513977,0.4937713146209717,0.0,0.0,0.0,0.0,0.0,0.0,0.0,0.0,0.0,-120.82329559326172,0.48584771156311035,-0.45354706048965454,0.0,0.0,0.0,0.0,0.0,0.0,0.0,0.0,0.0,0.022672832012176514,-0.00853261724114418,0.01724337600171566,0.0,0.0,0.0,0.0,0.0,0.0,0.0,0.0,0.0
1606987140322088415,955191,1606983539448000596,imu_link,0.0017364607192575932,0.005536462180316448,-0.8695756793022156,0.49376556277275085,0.0,0.0,0.0,0.0,0.0,0.0,0.0,0.0,0.0,-120.82405853271484,0.4862978160381317,-0.45345622301101685,0.0,0.0,0.0,0.0,0.0,0.0,0.0,0.0,0.0,0.009701346047222614,0.00885751098394394,0.017541008070111275,0.0,0.0,0.0,0.0,0.0,0.0,0.0,0.0,0.0
1606987140322100132,955192,1606983539448067908,imu_link,0.0017364607192575932,0.005536462180316448,-0.8695756793022156,0.49376556277275085,0.0,0.0,0.0,0.0,0.0,0.0,0.0,0.0,0.0,-120.82405853271484,0.4862978160381317,-0.45345622301101685,0.0,0.0,0.0,0.0,0.0,0.0,0.0,0.0,0.0,0.009701346047222614,0.00885751098394394,0.017541008070111275,0.0,0.0,0.0,0.0,0.0,0.0,0.0,0.0,0.0
1606987140322113815,955193,1606983539448134542,imu_link,0.001736982143484056,0.005534640979021788,-0.8695745468139648,0.493767648935318,0.0,0.0,0.0,0.0,0.0,0.0,0.0,0.0,0.0,-120.82378387451172,0.48624780774116516,-0.4532441198825836,0.0,0.0,0.0,0.0,0.0,0.0,0.0,0.0,0.0,0.009180470369756222,0.0075651900842785835,0.010827263817191124,0.0,0.0,0.0,0.0,0.0,0.0,0.0,0.0,0.0
1606987140322119157,955194,1606983539448200667,imu_link,0.001736982143484056,0.005534640979021788,-0.8695745468139648,0.493767648935318,0.0,0.0,0.0,0.0,0.0,0.0,0.0,0.0,0.0,-120.82378387451172,0.48624780774116516,-0.4532441198825836,0.0,0.0,0.0,0.0,0.0,0.0,0.0,0.0,0.0,0.009180470369756222,0.0075651900842785835,0.010827263817191124,0.0,0.0,0.0,0.0,0.0,0.0,0.0,0.0,0.0
1606987140322129402,955195,1606983539448268404,imu_link,0.0017375120660290122,0.005537133663892746,-0.8695772290229797,0.4937628507614136,0.0,0.0,0.0,0.0,0.0,0.0,0.0,0.0,0.0,-120.82441711425781,0.48643922805786133,-0.45346513390541077,0.0,0.0,0.0,0.0,0.0,0.0,0.0,0.0,0.0,0.01853787526488304,0.013177022337913513,0.007855352014303207,0.0,0.0,0.0,0.0,0.0,0.0,0.0,0.0,0.0
1606987140322151094,955196,1606983539460411839,imu_link,0.0017375120660290122,0.005537133663892746,-0.8695772290229797,0.4937628507614136,0.0,0.0,0.0,0.0,0.0,0.0,0.0,0.0,0.0,-120.82441711425781,0.48643922805786133,-0.45346513390541077,0.0,0.0,0.0,0.0,0.0,0.0,0.0,0.0,0.0,0.01853787526488304,0.013177022337913513,0.007855352014303207,0.0,0.0,0.0,0.0,0.0,0.0,0.0,0.0,0.0
1606987140332331261,955197,1606983539460523161,imu_link,0.0017342986539006233,0.005536525510251522,-0.869576632976532,0.49376389384269714,0.0,0.0,0.0,0.0,0.0,0.0,0.0,0.0,0.0,-120.82427978515625,0.48608505725860596,-0.45358583331108093,0.0,0.0,0.0,0.0,0.0,0.0,0.0,0.0,0.0,0.021141141653060913,0.020965557545423508,0.020501654595136642,0.0,0.0,0.0,0.0,0.0,0.0,0.0,0.0,0.0
1606987140332349424,955198,1606983539460675863,imu_link,0.0017342986539006233,0.005536525510251522,-0.869576632976532,0.49376389384269714,0.0,0.0,0.0,0.0,0.0,0.0,0.0,0.0,0.0,-120.82427978515625,0.48608505725860596,-0.45358583331108093,0.0,0.0,0.0,0.0,0.0,0.0,0.0,0.0,0.0,0.021141141653060913,0.020965557545423508,0.020501654595136642,0.0,0.0,0.0,0.0,0.0,0.0,0.0,0.0,0.0
1606987140332380240,955199,1606983539460748755,imu_link,0.001737484009936452,0.0055394344963133335,-0.8695791363716125,0.4937596023082733,0.0,0.0,0.0,0.0,0.0,0.0,0.0,0.0,0.0,-120.8248519897461,0.48656487464904785,-0.4536978602409363,0.0,0.0,0.0,0.0,0.0,0.0,0.0,0.0,0.0,0.003686446463689208,0.013821628876030445,0.034619368612766266,0.0,0.0,0.0,0.0,0.0,0.0,0.0,0.0,0.0
1606987140332388164,955200,1606983539460819659,imu_link,0.001737484009936452,0.0055394344963133335,-0.8695791363716125,0.4937596023082733,0.0,0.0,0.0,0.0,0.0,0.0,0.0,0.0,0.0,-120.8248519897461,0.48656487464904785,-0.4536978602409363,0.0,0.0,0.0,0.0,0.0,0.0,0.0,0.0,0.0,0.003686446463689208,0.013821628876030445,0.034619368612766266,0.0,0.0,0.0,0.0,0.0,0.0,0.0,0.0,0.0
1606987140332398863,955201,1606983539460905879,imu_link,0.001736918929964304,0.00554028432816267,-0.8695791363716125,0.4937594532966614,0.0,0.0,0.0,0.0,0.0,0.0,0.0,0.0,0.0,-120.82486724853516,0.48655661940574646,-0.45381465554237366,0.0,0.0,0.0,0.0,0.0,0.0,0.0,0.0,0.0,-0.004734676331281662,-0.001039378228597343,0.03217075392603874,0.0,0.0,0.0,0.0,0.0,0.0,0.0,0.0,0.0
1606987140332409954,955202,1606983539460971046,imu_link,0.001736918929964304,0.00554028432816267,-0.8695791363716125,0.4937594532966614,0.0,0.0,0.0,0.0,0.0,0.0,0.0,0.0,0.0,-120.82486724853516,0.48655661940574646,-0.45381465554237366,0.0,0.0,0.0,0.0,0.0,0.0,0.0,0.0,0.0,-0.004734676331281662,-0.001039378228597343,0.03217075392603874,0.0,0.0,0.0,0.0,0.0,0.0,0.0,0.0,0.0
1606987140332419062,955203,1606983539461030154,imu_link,0.0017388859996572137,0.005539102479815483,-0.8695809841156006,0.4937562346458435,0.0,0.0,0.0,0.0,0.0,0.0,0.0,0.0,0.0,-120.82528686523438,0.48668402433395386,-0.4535873532295227,0.0,0.0,0.0,0.0,0.0,0.0,0.0,0.0,0.0,-0.017224932089447975,-0.0015406945021823049,0.035594284534454346,0.0,0.0,0.0,0.0,0.0,0.0,0.0,0.0,0.0
1606987140332430459,955204,1606983539461100393,imu_link,0.0017388859996572137,0.005539102479815483,-0.8695809841156006,0.4937562346458435,0.0,0.0,0.0,0.0,0.0,0.0,0.0,0.0,0.0,-120.82528686523438,0.48668402433395386,-0.4535873532295227,0.0,0.0,0.0,0.0,0.0,0.0,0.0,0.0,0.0,-0.017224932089447975,-0.0015406945021823049,0.035594284534454346,0.0,0.0,0.0,0.0,0.0,0.0,0.0,0.0,0.0
1606987140347043973,955205,1606983539461165323,imu_link,0.0017402685480192304,0.005539537873119116,-0.8695811033248901,0.4937560260295868,0.0,0.0,0.0,0.0,0.0,0.0,0.0,0.0,0.0,-120.8253173828125,0.48684635758399963,-0.4535526633262634,0.0,0.0,0.0,0.0,0.0,0.0,0.0,0.0,0.0,-0.0281000304967165,0.006029106676578522,0.0121827507391572,0.0,0.0,0.0,0.0,0.0,0.0,0.0,0.0,0.0
1606987140347061224,955206,1606983539474123208,imu_link,0.0017402685480192304,0.005539537873119116,-0.8695811033248901,0.4937560260295868,0.0,0.0,0.0,0.0,0.0,0.0,0.0,0.0,0.0,-120.8253173828125,0.48684635758399963,-0.4535526633262634,0.0,0.0,0.0,0.0,0.0,0.0,0.0,0.0,0.0,-0.0281000304967165,0.006029106676578522,0.0121827507391572,0.0,0.0,0.0,0.0,0.0,0.0,0.0,0.0,0.0
1606987140347069581,955207,1606983539474234016,imu_link,0.0017353314906358719,0.005539471749216318,-0.8695823550224304,0.49375391006469727,0.0,0.0,0.0,0.0,0.0,0.0,0.0,0.0,0.0,-120.82559967041016,0.48634952306747437,-0.45382651686668396,0.0,0.0,0.0,0.0,0.0,0.0,0.0,0.0,0.0,-0.016312334686517715,0.010099691338837147,0.0028427988290786743,0.0,0.0,0.0,0.0,0.0,0.0,0.0,0.0,0.0
1606987140347074032,955208,1606983539474378302,imu_link,0.0017353314906358719,0.005539471749216318,-0.8695823550224304,0.49375391006469727,0.0,0.0,0.0,0.0,0.0,0.0,0.0,0.0,0.0,-120.82559967041016,0.48634952306747437,-0.45382651686668396,0.0,0.0,0.0,0.0,0.0,0.0,0.0,0.0,0.0,-0.016312334686517715,0.010099691338837147,0.0028427988290786743,0.0,0.0,0.0,0.0,0.0,0.0,0.0,0.0,0.0
1606987140347088265,955209,1606983539474450786,imu_link,0.0017358894692733884,0.005540295969694853,-0.8695818185806274,0.4937548339366913,0.0,0.0,0.0,0.0,0.0,0.0,0.0,0.0,0.0,-120.8254623413086,0.48645222187042236,-0.4538766145706177,0.0,0.0,0.0,0.0,0.0,0.0,0.0,0.0,0.0,-0.004192765802145004,0.012485199607908726,0.008354156278073788,0.0,0.0,0.0,0.0,0.0,0.0,0.0,0.0,0.0
1606987140348976851,955210,1606983539474512489,imu_link,0.0017358894692733884,0.005540295969694853,-0.8695818185806274,0.4937548339366913,0.0,0.0,0.0,0.0,0.0,0.0,0.0,0.0,0.0,-120.8254623413086,0.48645222187042236,-0.4538766145706177,0.0,0.0,0.0,0.0,0.0,0.0,0.0,0.0,0.0,-0.004192765802145004,0.012485199607908726,0.008354156278073788,0.0,0.0,0.0,0.0,0.0,0.0,0.0,0.0,0.0
1606987140348996922,955211,1606983539474575791,imu_link,0.0017362273065373302,0.005540190264582634,-0.8695833683013916,0.49375206232070923,0.0,0.0,0.0,0.0,0.0,0.0,0.0,0.0,0.0,-120.82583618164062,0.4864784777164459,-0.4538484811782837,0.0,0.0,0.0,0.0,0.0,0.0,0.0,0.0,0.0,-0.003521053120493889,0.02723570726811886,0.010323132388293743,0.0,0.0,0.0,0.0,0.0,0.0,0.0,0.0,0.0
1606987140349007251,955212,1606983539474662484,imu_link,0.0017362273065373302,0.005540190264582634,-0.8695833683013916,0.49375206232070923,0.0,0.0,0.0,0.0,0.0,0.0,0.0,0.0,0.0,-120.82583618164062,0.4864784777164459,-0.4538484811782837,0.0,0.0,0.0,0.0,0.0,0.0,0.0,0.0,0.0,-0.003521053120493889,0.02723570726811886,0.010323132388293743,0.0,0.0,0.0,0.0,0.0,0.0,0.0,0.0,0.0
1606987140349017027,955213,1606983539474728753,imu_link,0.001735338824801147,0.0055394526571035385,-0.8695828914642334,0.49375295639038086,0.0,0.0,0.0,0.0,0.0,0.0,0.0,0.0,0.0,-120.82571411132812,0.4863486588001251,-0.4538246989250183,0.0,0.0,0.0,0.0,0.0,0.0,0.0,0.0,0.0,0.0012776085641235113,0.025629829615354538,0.01524096354842186,0.0,0.0,0.0,0.0,0.0,0.0,0.0,0.0,0.0
1606987140363218628,955214,1606983539474795395,imu_link,0.001735338824801147,0.0055394526571035385,-0.8695828914642334,0.49375295639038086,0.0,0.0,0.0,0.0,0.0,0.0,0.0,0.0,0.0,-120.82571411132812,0.4863486588001251,-0.4538246989250183,0.0,0.0,0.0,0.0,0.0,0.0,0.0,0.0,0.0,0.0012776085641235113,0.025629829615354538,0.01524096354842186,0.0,0.0,0.0,0.0,0.0,0.0,0.0,0.0,0.0
1606987140363260924,955215,1606983539474861573,imu_link,0.0017334796721115708,0.005541041027754545,-0.8695849776268005,0.4937492609024048,0.0,0.0,0.0,0.0,0.0,0.0,0.0,0.0,0.0,-120.82620239257812,0.4862513244152069,-0.45409032702445984,0.0,0.0,0.0,0.0,0.0,0.0,0.0,0.0,0.0,0.014064006507396698,0.011621426790952682,-0.013598666526377201,0.0,0.0,0.0,0.0,0.0,0.0,0.0,0.0,0.0
1606987140363271200,955216,1606983539474928383,imu_link,0.0017334796721115708,0.005541041027754545,-0.8695849776268005,0.4937492609024048,0.0,0.0,0.0,0.0,0.0,0.0,0.0,0.0,0.0,-120.82620239257812,0.4862513244152069,-0.45409032702445984,0.0,0.0,0.0,0.0,0.0,0.0,0.0,0.0,0.0,0.014064006507396698,0.011621426790952682,-0.013598666526377201,0.0,0.0,0.0,0.0,0.0,0.0,0.0,0.0,0.0
1606987140363285921,955217,1606983539487657414,imu_link,0.0017334017902612686,0.005542094353586435,-0.8695846199989319,0.4937499463558197,0.0,0.0,0.0,0.0,0.0,0.0,0.0,0.0,0.0,-120.82611846923828,0.48630350828170776,-0.45419928431510925,0.0,0.0,0.0,0.0,0.0,0.0,0.0,0.0,0.0,0.007381136063486338,0.009702377021312714,-0.006851338781416416,0.0,0.0,0.0,0.0,0.0,0.0,0.0,0.0,0.0
1606987140366325225,955218,1606983539487771927,imu_link,0.0017334017902612686,0.005542094353586435,-0.8695846199989319,0.4937499463558197,0.0,0.0,0.0,0.0,0.0,0.0,0.0,0.0,0.0,-120.82611846923828,0.48630350828170776,-0.45419928431510925,0.0,0.0,0.0,0.0,0.0,0.0,0.0,0.0,0.0,0.007381136063486338,0.009702377021312714,-0.006851338781416416,0.0,0.0,0.0,0.0,0.0,0.0,0.0,0.0,0.0
1606987140366342521,955219,1606983539487916750,imu_link,0.0017327340319752693,0.005543523468077183,-0.8695917725563049,0.4937373697757721,0.0,0.0,0.0,0.0,0.0,0.0,0.0,0.0,0.0,-120.82777404785156,0.48631125688552856,-0.45438653230667114,0.0,0.0,0.0,0.0,0.0,0.0,0.0,0.0,0.0,0.008519998751580715,0.026959018781781197,0.016636068001389503,0.0,0.0,0.0,0.0,0.0,0.0,0.0,0.0,0.0
1606987140366352322,955220,1606983539487985044,imu_link,0.0017327340319752693,0.005543523468077183,-0.8695917725563049,0.4937373697757721,0.0,0.0,0.0,0.0,0.0,0.0,0.0,0.0,0.0,-120.82777404785156,0.48631125688552856,-0.45438653230667114,0.0,0.0,0.0,0.0,0.0,0.0,0.0,0.0,0.0,0.008519998751580715,0.026959018781781197,0.016636068001389503,0.0,0.0,0.0,0.0,0.0,0.0,0.0,0.0,0.0
1606987140366409596,955221,1606983539488056393,imu_link,0.0017337404424324632,0.005543215665966272,-0.8695917129516602,0.49373742938041687,0.0,0.0,0.0,0.0,0.0,0.0,0.0,0.0,0.0,-120.82777404785156,0.48639416694641113,-0.45429885387420654,0.0,0.0,0.0,0.0,0.0,0.0,0.0,0.0,0.0,0.011424504220485687,0.016994837671518326,0.0011788076953962445,0.0,0.0,0.0,0.0,0.0,0.0,0.0,0.0,0.0
1606987140380454639,955222,1606983539488124046,imu_link,0.0017337404424324632,0.005543215665966272,-0.8695917129516602,0.49373742938041687,0.0,0.0,0.0,0.0,0.0,0.0,0.0,0.0,0.0,-120.82777404785156,0.48639416694641113,-0.45429885387420654,0.0,0.0,0.0,0.0,0.0,0.0,0.0,0.0,0.0,0.011424504220485687,0.016994837671518326,0.0011788076953962445,0.0,0.0,0.0,0.0,0.0,0.0,0.0,0.0,0.0
1606987140380478238,955223,1606983539488209492,imu_link,0.0017328887479379773,0.005546898115426302,-0.8695982098579407,0.4937259554862976,0.0,0.0,0.0,0.0,0.0,0.0,0.0,0.0,0.0,-120.82927703857422,0.4865116775035858,-0.45472046732902527,0.0,0.0,0.0,0.0,0.0,0.0,0.0,0.0,0.0,-0.006914799567312002,-0.007586892694234848,0.0038037956692278385,0.0,0.0,0.0,0.0,0.0,0.0,0.0,0.0,0.0
1606987140380487833,955224,1606983539488274719,imu_link,0.0017328887479379773,0.005546898115426302,-0.8695982098579407,0.4937259554862976,0.0,0.0,0.0,0.0,0.0,0.0,0.0,0.0,0.0,-120.82927703857422,0.4865116775035858,-0.45472046732902527,0.0,0.0,0.0,0.0,0.0,0.0,0.0,0.0,0.0,-0.006914799567312002,-0.007586892694234848,0.0038037956692278385,0.0,0.0,0.0,0.0,0.0,0.0,0.0,0.0,0.0
1606987140380511644,955225,1606983539488332617,imu_link,0.0017323261126875877,0.0055466811172664165,-0.8695984482765198,0.4937252998352051,0.0,0.0,0.0,0.0,0.0,0.0,0.0,0.0,0.0,-120.82936096191406,0.48644301295280457,-0.4547310769557953,0.0,0.0,0.0,0.0,0.0,0.0,0.0,0.0,0.0,-0.007210143376141787,0.003829699009656906,0.021678173914551735,0.0,0.0,0.0,0.0,0.0,0.0,0.0,0.0,0.0
1606987140380523850,955226,1606983539488395201,imu_link,0.0017323261126875877,0.0055466811172664165,-0.8695984482765198,0.4937252998352051,0.0,0.0,0.0,0.0,0.0,0.0,0.0,0.0,0.0,-120.82936096191406,0.48644301295280457,-0.4547310769557953,0.0,0.0,0.0,0.0,0.0,0.0,0.0,0.0,0.0,-0.007210143376141787,0.003829699009656906,0.021678173914551735,0.0,0.0,0.0,0.0,0.0,0.0,0.0,0.0,0.0
1606987140381975766,955227,1606983539488459951,imu_link,0.0017291237600147724,0.005546970758587122,-0.8695952296257019,0.49373117089271545,0.0,0.0,0.0,0.0,0.0,0.0,0.0,0.0,0.0,-120.82859802246094,0.4861433207988739,-0.45493778586387634,0.0,0.0,0.0,0.0,0.0,0.0,0.0,0.0,0.0,0.0051461015827953815,-0.0011533618671819568,0.011654861271381378,0.0,0.0,0.0,0.0,0.0,0.0,0.0,0.0,0.0
1606987140381993377,955228,1606983539501522273,imu_link,0.0017291237600147724,0.005546970758587122,-0.8695952296257019,0.49373117089271545,0.0,0.0,0.0,0.0,0.0,0.0,0.0,0.0,0.0,-120.82859802246094,0.4861433207988739,-0.45493778586387634,0.0,0.0,0.0,0.0,0.0,0.0,0.0,0.0,0.0,0.0051461015827953815,-0.0011533618671819568,0.011654861271381378,0.0,0.0,0.0,0.0,0.0,0.0,0.0,0.0,0.0
1606987140382024688,955229,1606983539501642259,imu_link,0.001727825845591724,0.0055480473674833775,-0.8695945143699646,0.4937323033809662,0.0,0.0,0.0,0.0,0.0,0.0,0.0,0.0,0.0,-120.82844543457031,0.4860754609107971,-0.45511794090270996,0.0,0.0,0.0,0.0,0.0,0.0,0.0,0.0,0.0,0.0006838891422376037,-0.016848532482981682,-0.013708318583667278,0.0,0.0,0.0,0.0,0.0,0.0,0.0,0.0,0.0
1606987140382036296,955230,1606983539501784428,imu_link,0.001727825845591724,0.0055480473674833775,-0.8695945143699646,0.4937323033809662,0.0,0.0,0.0,0.0,0.0,0.0,0.0,0.0,0.0,-120.82844543457031,0.4860754609107971,-0.45511794090270996,0.0,0.0,0.0,0.0,0.0,0.0,0.0,0.0,0.0,0.0006838891422376037,-0.016848532482981682,-0.013708318583667278,0.0,0.0,0.0,0.0,0.0,0.0,0.0,0.0,0.0
1606987140424607685,955231,1606983539501865351,imu_link,0.0017279509920626879,0.005545162130147219,-0.8695909976959229,0.49373859167099,0.0,0.0,0.0,0.0,0.0,0.0,0.0,0.0,0.0,-120.8276138305664,0.4859279692173004,-0.45481976866722107,0.0,0.0,0.0,0.0,0.0,0.0,0.0,0.0,0.0,-0.007227924652397633,-0.00495191290974617,-0.01907142996788025,0.0,0.0,0.0,0.0,0.0,0.0,0.0,0.0,0.0
1606987140424639877,955232,1606983539501934451,imu_link,0.0017279509920626879,0.005545162130147219,-0.8695909976959229,0.49373859167099,0.0,0.0,0.0,0.0,0.0,0.0,0.0,0.0,0.0,-120.8276138305664,0.4859279692173004,-0.45481976866722107,0.0,0.0,0.0,0.0,0.0,0.0,0.0,0.0,0.0,-0.007227924652397633,-0.00495191290974617,-0.01907142996788025,0.0,0.0,0.0,0.0,0.0,0.0,0.0,0.0,0.0
1606987140424648340,955233,1606983539501999321,imu_link,0.001726928516291082,0.0055432613007724285,-0.8695911765098572,0.4937382936477661,0.0,0.0,0.0,0.0,0.0,0.0,0.0,0.0,0.0,-120.82765197753906,0.48571842908859253,-0.45468828082084656,0.0,0.0,0.0,0.0,0.0,0.0,0.0,0.0,0.0,-0.006997453980147839,0.0019268449395895004,0.006299283821135759,0.0,0.0,0.0,0.0,0.0,0.0,0.0,0.0,0.0
1606987140424667193,955234,1606983539502078388,imu_link,0.001726928516291082,0.0055432613007724285,-0.8695911765098572,0.4937382936477661,0.0,0.0,0.0,0.0,0.0,0.0,0.0,0.0,0.0,-120.82765197753906,0.48571842908859253,-0.45468828082084656,0.0,0.0,0.0,0.0,0.0,0.0,0.0,0.0,0.0,-0.006997453980147839,0.0019268449395895004,0.006299283821135759,0.0,0.0,0.0,0.0,0.0,0.0,0.0,0.0,0.0
1606987140424683198,955235,1606983539502142617,imu_link,0.001725749927572906,0.005541462916880846,-0.8695883750915527,0.49374327063560486,0.0,0.0,0.0,0.0,0.0,0.0,0.0,0.0,0.0,-120.82699584960938,0.48550182580947876,-0.45457303524017334,0.0,0.0,0.0,0.0,0.0,0.0,0.0,0.0,0.0,0.010651377029716969,0.0038034541066735983,0.00991151761263609,0.0,0.0,0.0,0.0,0.0,0.0,0.0,0.0,0.0
1606987140424705402,955236,1606983539502272718,imu_link,0.001725749927572906,0.005541462916880846,-0.8695883750915527,0.49374327063560486,0.0,0.0,0.0,0.0,0.0,0.0,0.0,0.0,0.0,-120.82699584960938,0.48550182580947876,-0.45457303524017334,0.0,0.0,0.0,0.0,0.0,0.0,0.0,0.0,0.0,0.010651377029716969,0.0038034541066735983,0.00991151761263609,0.0,0.0,0.0,0.0,0.0,0.0,0.0,0.0,0.0
1606987140424714730,955237,1606983539502339521,imu_link,0.0017255727434530854,0.005541134160012007,-0.8695880174636841,0.4937438368797302,0.0,0.0,0.0,0.0,0.0,0.0,0.0,0.0,0.0,-120.82691192626953,0.4854658544063568,-0.45454996824264526,0.0,0.0,0.0,0.0,0.0,0.0,0.0,0.0,0.0,0.014055468142032623,0.004691017791628838,0.005998917389661074,0.0,0.0,0.0,0.0,0.0,0.0,0.0,0.0,0.0
1606987140424725431,955238,1606983539502401500,imu_link,0.0017255727434530854,0.005541134160012007,-0.8695880174636841,0.4937438368797302,0.0,0.0,0.0,0.0,0.0,0.0,0.0,0.0,0.0,-120.82691192626953,0.4854658544063568,-0.45454996824264526,0.0,0.0,0.0,0.0,0.0,0.0,0.0,0.0,0.0,0.014055468142032623,0.004691017791628838,0.005998917389661074,0.0,0.0,0.0,0.0,0.0,0.0,0.0,0.0,0.0
1606987140440450109,955239,1606983539515005229,imu_link,0.001725667272694409,0.005540239624679089,-0.8695873022079468,0.4937450885772705,0.0,0.0,0.0,0.0,0.0,0.0,0.0,0.0,0.0,-120.82675170898438,0.48542529344558716,-0.45445477962493896,0.0,0.0,0.0,0.0,0.0,0.0,0.0,0.0,0.0,-0.00029800855554640293,-0.013214326463639736,-0.0006194972083903849,0.0,0.0,0.0,0.0,0.0,0.0,0.0,0.0,0.0
1606987140440465278,955240,1606983539515118752,imu_link,0.001725667272694409,0.005540239624679089,-0.8695873022079468,0.4937450885772705,0.0,0.0,0.0,0.0,0.0,0.0,0.0,0.0,0.0,-120.82675170898438,0.48542529344558716,-0.45445477962493896,0.0,0.0,0.0,0.0,0.0,0.0,0.0,0.0,0.0,-0.00029800855554640293,-0.013214326463639736,-0.0006194972083903849,0.0,0.0,0.0,0.0,0.0,0.0,0.0,0.0,0.0
1606987140440547884,955241,1606983539515252509,imu_link,0.0017230840167030692,0.0055410778149962425,-0.8695869445800781,0.4937458038330078,0.0,0.0,0.0,0.0,0.0,0.0,0.0,0.0,0.0,-120.82666778564453,0.4852156937122345,-0.4546840190887451,0.0,0.0,0.0,0.0,0.0,0.0,0.0,0.0,0.0,-0.010998286306858063,-0.002484360244125128,0.0024956141132861376,0.0,0.0,0.0,0.0,0.0,0.0,0.0,0.0,0.0
1606987140440565601,955242,1606983539515325634,imu_link,0.0017230840167030692,0.0055410778149962425,-0.8695869445800781,0.4937458038330078,0.0,0.0,0.0,0.0,0.0,0.0,0.0,0.0,0.0,-120.82666778564453,0.4852156937122345,-0.4546840190887451,0.0,0.0,0.0,0.0,0.0,0.0,0.0,0.0,0.0,-0.010998286306858063,-0.002484360244125128,0.0024956141132861376,0.0,0.0,0.0,0.0,0.0,0.0,0.0,0.0,0.0
1606987140440582545,955243,1606983539515448314,imu_link,0.0017184625612571836,0.0055376379750669,-0.8695860505104065,0.49374744296073914,0.0,0.0,0.0,0.0,0.0,0.0,0.0,0.0,0.0,-120.82644653320312,0.48456135392189026,-0.45460179448127747,0.0,0.0,0.0,0.0,0.0,0.0,0.0,0.0,0.0,-0.002361284801736474,0.024380233138799667,0.024643542245030403,0.0,0.0,0.0,0.0,0.0,0.0,0.0,0.0,0.0
1606987140445545061,955244,1606983539515538603,imu_link,0.0017184625612571836,0.0055376379750669,-0.8695860505104065,0.49374744296073914,0.0,0.0,0.0,0.0,0.0,0.0,0.0,0.0,0.0,-120.82644653320312,0.48456135392189026,-0.45460179448127747,0.0,0.0,0.0,0.0,0.0,0.0,0.0,0.0,0.0,-0.002361284801736474,0.024380233138799667,0.024643542245030403,0.0,0.0,0.0,0.0,0.0,0.0,0.0,0.0,0.0
1606987140445578685,955245,1606983539515605001,imu_link,0.0017188678029924631,0.005536807235330343,-0.8695857524871826,0.49374791979789734,0.0,0.0,0.0,0.0,0.0,0.0,0.0,0.0,0.0,-120.82637786865234,0.4845549762248993,-0.4544958770275116,0.0,0.0,0.0,0.0,0.0,0.0,0.0,0.0,0.0,0.0027559674344956875,0.014221380464732647,0.010694005526602268,0.0,0.0,0.0,0.0,0.0,0.0,0.0,0.0,0.0
1606987140445594045,955246,1606983539515671126,imu_link,0.0017188678029924631,0.005536807235330343,-0.8695857524871826,0.49374791979789734,0.0,0.0,0.0,0.0,0.0,0.0,0.0,0.0,0.0,-120.82637786865234,0.4845549762248993,-0.4544958770275116,0.0,0.0,0.0,0.0,0.0,0.0,0.0,0.0,0.0,0.0027559674344956875,0.014221380464732647,0.010694005526602268,0.0,0.0,0.0,0.0,0.0,0.0,0.0,0.0,0.0
1606987140445600442,955247,1606983539515736281,imu_link,0.0017167236655950546,0.005538561847060919,-0.8695852160453796,0.49374884366989136,0.0,0.0,0.0,0.0,0.0,0.0,0.0,0.0,0.0,-120.82625579833984,0.4844411313533783,-0.45479148626327515,0.0,0.0,0.0,0.0,0.0,0.0,0.0,0.0,0.0,-0.0025638819206506014,-0.011010413058102131,0.0006014578975737095,0.0,0.0,0.0,0.0,0.0,0.0,0.0,0.0,0.0
1606987140507014728,955248,1606983539515801400,imu_link,0.0017167236655950546,0.005538561847060919,-0.8695852160453796,0.49374884366989136,0.0,0.0,0.0,0.0,0.0,0.0,0.0,0.0,0.0,-120.82625579833984,0.4844411313533783,-0.45479148626327515,0.0,0.0,0.0,0.0,0.0,0.0,0.0,0.0,0.0,-0.0025638819206506014,-0.011010413058102131,0.0006014578975737095,0.0,0.0,0.0,0.0,0.0,0.0,0.0,0.0,0.0
1606987140507032848,955249,1606983539515866274,imu_link,0.0017169968923553824,0.005539818666875362,-0.8695842027664185,0.493750661611557,0.0,0.0,0.0,0.0,0.0,0.0,0.0,0.0,0.0,-120.8260269165039,0.4845403730869293,-0.45490023493766785,0.0,0.0,0.0,0.0,0.0,0.0,0.0,0.0,0.0,0.006181487813591957,-0.004343738313764334,0.015280469320714474,0.0,0.0,0.0,0.0,0.0,0.0,0.0,0.0,0.0
1606987140507050825,955250,1606983539527847803,imu_link,0.0017169968923553824,0.005539818666875362,-0.8695842027664185,0.493750661611557,0.0,0.0,0.0,0.0,0.0,0.0,0.0,0.0,0.0,-120.8260269165039,0.4845403730869293,-0.45490023493766785,0.0,0.0,0.0,0.0,0.0,0.0,0.0,0.0,0.0,0.006181487813591957,-0.004343738313764334,0.015280469320714474,0.0,0.0,0.0,0.0,0.0,0.0,0.0,0.0,0.0
1606987140507065877,955251,1606983539527937707,imu_link,0.001719455816783011,0.0055373129434883595,-0.8695823550224304,0.49375399947166443,0.0,0.0,0.0,0.0,0.0,0.0,0.0,0.0,0.0,-120.82559204101562,0.48464539647102356,-0.45450958609580994,0.0,0.0,0.0,0.0,0.0,0.0,0.0,0.0,0.0,0.005640895571559668,0.018216447904706,0.02284637838602066,0.0,0.0,0.0,0.0,0.0,0.0,0.0,0.0,0.0
1606987140507074496,955252,1606983539528037526,imu_link,0.001719455816783011,0.0055373129434883595,-0.8695823550224304,0.49375399947166443,0.0,0.0,0.0,0.0,0.0,0.0,0.0,0.0,0.0,-120.82559204101562,0.48464539647102356,-0.45450958609580994,0.0,0.0,0.0,0.0,0.0,0.0,0.0,0.0,0.0,0.005640895571559668,0.018216447904706,0.02284637838602066,0.0,0.0,0.0,0.0,0.0,0.0,0.0,0.0,0.0
1606987140507088799,955253,1606983539528106585,imu_link,0.0017169930506497622,0.005536042153835297,-0.869581937789917,0.49375465512275696,0.0,0.0,0.0,0.0,0.0,0.0,0.0,0.0,0.0,-120.82549285888672,0.48432841897010803,-0.45452189445495605,0.0,0.0,0.0,0.0,0.0,0.0,0.0,0.0,0.0,0.0011454597115516663,0.006706054322421551,0.009065220132470131,0.0,0.0,0.0,0.0,0.0,0.0,0.0,0.0,0.0
1606987140507101932,955254,1606983539528177446,imu_link,0.0017169930506497622,0.005536042153835297,-0.869581937789917,0.49375465512275696,0.0,0.0,0.0,0.0,0.0,0.0,0.0,0.0,0.0,-120.82549285888672,0.48432841897010803,-0.45452189445495605,0.0,0.0,0.0,0.0,0.0,0.0,0.0,0.0,0.0,0.0011454597115516663,0.006706054322421551,0.009065220132470131,0.0,0.0,0.0,0.0,0.0,0.0,0.0,0.0,0.0
1606987140507112906,955255,1606983539528256665,imu_link,0.0017176922410726547,0.005537010263651609,-0.8695791959762573,0.49375951290130615,0.0,0.0,0.0,0.0,0.0,0.0,0.0,0.0,0.0,-120.8248519897461,0.484455406665802,-0.4545760750770569,0.0,0.0,0.0,0.0,0.0,0.0,0.0,0.0,0.0,0.004203862510621548,-0.010232960805296898,0.017755886539816856,0.0,0.0,0.0,0.0,0.0,0.0,0.0,0.0,0.0
1606987140507119531,955256,1606983539528323672,imu_link,0.0017176922410726547,0.005537010263651609,-0.8695791959762573,0.49375951290130615,0.0,0.0,0.0,0.0,0.0,0.0,0.0,0.0,0.0,-120.8248519897461,0.484455406665802,-0.4545760750770569,0.0,0.0,0.0,0.0,0.0,0.0,0.0,0.0,0.0,0.004203862510621548,-0.010232960805296898,0.017755886539816856,0.0,0.0,0.0,0.0,0.0,0.0,0.0,0.0,0.0
1606987140512009462,955257,1606983539528394267,imu_link,0.0017198523273691535,0.005537999793887138,-0.8695805668830872,0.49375709891319275,0.0,0.0,0.0,0.0,0.0,0.0,0.0,0.0,0.0,-120.82518005371094,0.48472538590431213,-0.4545538127422333,0.0,0.0,0.0,0.0,0.0,0.0,0.0,0.0,0.0,0.007176357787102461,-0.0038504740223288536,0.021024813875555992,0.0,0.0,0.0,0.0,0.0,0.0,0.0,0.0,0.0
1606987140512019590,955258,1606983539528458023,imu_link,0.0017198523273691535,0.005537999793887138,-0.8695805668830872,0.49375709891319275,0.0,0.0,0.0,0.0,0.0,0.0,0.0,0.0,0.0,-120.82518005371094,0.48472538590431213,-0.4545538127422333,0.0,0.0,0.0,0.0,0.0,0.0,0.0,0.0,0.0,0.007176357787102461,-0.0038504740223288536,0.021024813875555992,0.0,0.0,0.0,0.0,0.0,0.0,0.0,0.0,0.0
1606987140512024427,955259,1606983539528526846,imu_link,0.0017216694541275501,0.005539565812796354,-0.8695841431617737,0.49375081062316895,0.0,0.0,0.0,0.0,0.0,0.0,0.0,0.0,0.0,-120.82599639892578,0.48499178886413574,-0.45461058616638184,0.0,0.0,0.0,0.0,0.0,0.0,0.0,0.0,0.0,-0.00735098123550415,0.0030869608744978905,0.002434356836602092,0.0,0.0,0.0,0.0,0.0,0.0,0.0,0.0,0.0
1606987140512057061,955260,1606983539541645735,imu_link,0.0017216694541275501,0.005539565812796354,-0.8695841431617737,0.49375081062316895,0.0,0.0,0.0,0.0,0.0,0.0,0.0,0.0,0.0,-120.82599639892578,0.48499178886413574,-0.45461058616638184,0.0,0.0,0.0,0.0,0.0,0.0,0.0,0.0,0.0,-0.00735098123550415,0.0030869608744978905,0.002434356836602092,0.0,0.0,0.0,0.0,0.0,0.0,0.0,0.0,0.0
1606987140512076036,955261,1606983539541767814,imu_link,0.0017208196222782135,0.005540182814002037,-0.8695833683013916,0.4937521517276764,0.0,0.0,0.0,0.0,0.0,0.0,0.0,0.0,0.0,-120.82582092285156,0.484942764043808,-0.4547193944454193,0.0,0.0,0.0,0.0,0.0,0.0,0.0,0.0,0.0,-0.015557807870209217,0.003135012462735176,0.012360465712845325,0.0,0.0,0.0,0.0,0.0,0.0,0.0,0.0,0.0
1606987140513989296,955262,1606983539541839684,imu_link,0.0017208196222782135,0.005540182814002037,-0.8695833683013916,0.4937521517276764,0.0,0.0,0.0,0.0,0.0,0.0,0.0,0.0,0.0,-120.82582092285156,0.484942764043808,-0.4547193944454193,0.0,0.0,0.0,0.0,0.0,0.0,0.0,0.0,0.0,-0.015557807870209217,0.003135012462735176,0.012360465712845325,0.0,0.0,0.0,0.0,0.0,0.0,0.0,0.0,0.0
1606987140513997900,955263,1606983539541920579,imu_link,0.0017177611589431763,0.005539299454540014,-0.8695858120918274,0.49374786019325256,0.0,0.0,0.0,0.0,0.0,0.0,0.0,0.0,0.0,-120.8263931274414,0.4845857322216034,-0.4548068642616272,0.0,0.0,0.0,0.0,0.0,0.0,0.0,0.0,0.0,-0.0066491649486124516,0.010754079557955265,0.039627399295568466,0.0,0.0,0.0,0.0,0.0,0.0,0.0,0.0,0.0
1606987140514001270,955264,1606983539541989198,imu_link,0.0017177611589431763,0.005539299454540014,-0.8695858120918274,0.49374786019325256,0.0,0.0,0.0,0.0,0.0,0.0,0.0,0.0,0.0,-120.8263931274414,0.4845857322216034,-0.4548068642616272,0.0,0.0,0.0,0.0,0.0,0.0,0.0,0.0,0.0,-0.0066491649486124516,0.010754079557955265,0.039627399295568466,0.0,0.0,0.0,0.0,0.0,0.0,0.0,0.0,0.0
1606987140514005723,955265,1606983539542050881,imu_link,0.0017164830351248384,0.0055397613905370235,-0.8695845007896423,0.4937502145767212,0.0,0.0,0.0,0.0,0.0,0.0,0.0,0.0,0.0,-120.82608032226562,0.4844857156276703,-0.45492392778396606,0.0,0.0,0.0,0.0,0.0,0.0,0.0,0.0,0.0,-0.007707533426582813,0.009004650637507439,0.04582773521542549,0.0,0.0,0.0,0.0,0.0,0.0,0.0,0.0,0.0
1606987140571245173,955266,1606983539542132670,imu_link,0.0017164830351248384,0.0055397613905370235,-0.8695845007896423,0.4937502145767212,0.0,0.0,0.0,0.0,0.0,0.0,0.0,0.0,0.0,-120.82608032226562,0.4844857156276703,-0.45492392778396606,0.0,0.0,0.0,0.0,0.0,0.0,0.0,0.0,0.0,-0.007707533426582813,0.009004650637507439,0.04582773521542549,0.0,0.0,0.0,0.0,0.0,0.0,0.0,0.0,0.0
1606987140571264684,955267,1606983539542197929,imu_link,0.0017124227015301585,0.005539457779377699,-0.8695812225341797,0.49375593662261963,0.0,0.0,0.0,0.0,0.0,0.0,0.0,0.0,0.0,-120.82533264160156,0.4840669631958008,-0.45512017607688904,0.0,0.0,0.0,0.0,0.0,0.0,0.0,0.0,0.0,-0.00393992755562067,-0.005721794441342354,0.01831124722957611,0.0,0.0,0.0,0.0,0.0,0.0,0.0,0.0,0.0
1606987140571281595,955268,1606983539542340126,imu_link,0.0017124227015301585,0.005539457779377699,-0.8695812225341797,0.49375593662261963,0.0,0.0,0.0,0.0,0.0,0.0,0.0,0.0,0.0,-120.82533264160156,0.4840669631958008,-0.45512017607688904,0.0,0.0,0.0,0.0,0.0,0.0,0.0,0.0,0.0,-0.00393992755562067,-0.005721794441342354,0.01831124722957611,0.0,0.0,0.0,0.0,0.0,0.0,0.0,0.0,0.0
1606987140571297947,955269,1606983539542407755,imu_link,0.0017134902300313115,0.005537379067391157,-0.8695810437202454,0.4937562942504883,0.0,0.0,0.0,0.0,0.0,0.0,0.0,0.0,0.0,-120.82527160644531,0.48405590653419495,-0.45485246181488037,0.0,0.0,0.0,0.0,0.0,0.0,0.0,0.0,0.0,-0.01351864542812109,-0.000642147904727608,0.014824812300503254,0.0,0.0,0.0,0.0,0.0,0.0,0.0,0.0,0.0
1606987140571311936,955270,1606983539542465945,imu_link,0.0017134902300313115,0.005537379067391157,-0.8695810437202454,0.4937562942504883,0.0,0.0,0.0,0.0,0.0,0.0,0.0,0.0,0.0,-120.82527160644531,0.48405590653419495,-0.45485246181488037,0.0,0.0,0.0,0.0,0.0,0.0,0.0,0.0,0.0,-0.01351864542812109,-0.000642147904727608,0.014824812300503254,0.0,0.0,0.0,0.0,0.0,0.0,0.0,0.0,0.0
1606987140574406080,955271,1606983539555120909,imu_link,0.0017137274844571948,0.005537364631891251,-0.8695785403251648,0.49376070499420166,0.0,0.0,0.0,0.0,0.0,0.0,0.0,0.0,0.0,-120.82469940185547,0.4840810000896454,-0.4548351466655731,0.0,0.0,0.0,0.0,0.0,0.0,0.0,0.0,0.0,-0.02925468236207962,0.00995731819421053,0.02512214705348015,0.0,0.0,0.0,0.0,0.0,0.0,0.0,0.0,0.0
1606987140574430789,955272,1606983539555255107,imu_link,0.0017137274844571948,0.005537364631891251,-0.8695785403251648,0.49376070499420166,0.0,0.0,0.0,0.0,0.0,0.0,0.0,0.0,0.0,-120.82469940185547,0.4840810000896454,-0.4548351466655731,0.0,0.0,0.0,0.0,0.0,0.0,0.0,0.0,0.0,-0.02925468236207962,0.00995731819421053,0.02512214705348015,0.0,0.0,0.0,0.0,0.0,0.0,0.0,0.0,0.0
1606987140574441354,955273,1606983539555321806,imu_link,0.0017134752124547958,0.005535420496016741,-0.8695778846740723,0.49376180768013,0.0,0.0,0.0,0.0,0.0,0.0,0.0,0.0,0.0,-120.82455444335938,0.48394641280174255,-0.4546549916267395,0.0,0.0,0.0,0.0,0.0,0.0,0.0,0.0,0.0,-0.01683356985449791,0.0005350564606487751,0.014758494682610035,0.0,0.0,0.0,0.0,0.0,0.0,0.0,0.0,0.0
1606987140574452686,955274,1606983539555386423,imu_link,0.0017134752124547958,0.005535420496016741,-0.8695778846740723,0.49376180768013,0.0,0.0,0.0,0.0,0.0,0.0,0.0,0.0,0.0,-120.82455444335938,0.48394641280174255,-0.4546549916267395,0.0,0.0,0.0,0.0,0.0,0.0,0.0,0.0,0.0,-0.01683356985449791,0.0005350564606487751,0.014758494682610035,0.0,0.0,0.0,0.0,0.0,0.0,0.0,0.0,0.0
1606987140574472985,955275,1606983539555451823,imu_link,0.0017098421230912209,0.005534794647246599,-0.8695785403251648,0.49376076459884644,0.0,0.0,0.0,0.0,0.0,0.0,0.0,0.0,0.0,-120.8246841430664,0.48354843258857727,-0.4547988474369049,0.0,0.0,0.0,0.0,0.0,0.0,0.0,0.0,0.0,-0.009754963219165802,0.0077788447961211205,0.010144359432160854,0.0,0.0,0.0,0.0,0.0,0.0,0.0,0.0,0.0
1606987140574488415,955276,1606983539555524587,imu_link,0.0017098421230912209,0.005534794647246599,-0.8695785403251648,0.49376076459884644,0.0,0.0,0.0,0.0,0.0,0.0,0.0,0.0,0.0,-120.8246841430664,0.48354843258857727,-0.4547988474369049,0.0,0.0,0.0,0.0,0.0,0.0,0.0,0.0,0.0,-0.009754963219165802,0.0077788447961211205,0.010144359432160854,0.0,0.0,0.0,0.0,0.0,0.0,0.0,0.0,0.0
1606987140574516783,955277,1606983539555602523,imu_link,0.0017089687753468752,0.005533142946660519,-0.8695778250694275,0.49376195669174194,0.0,0.0,0.0,0.0,0.0,0.0,0.0,0.0,0.0,-120.82452392578125,0.48336857557296753,-0.45468294620513916,0.0,0.0,0.0,0.0,0.0,0.0,0.0,0.0,0.0,-0.004117392934858799,0.029701299965381622,0.009019232355058193,0.0,0.0,0.0,0.0,0.0,0.0,0.0,0.0,0.0
1606987140574524539,955278,1606983539555669362,imu_link,0.0017089687753468752,0.005533142946660519,-0.8695778250694275,0.49376195669174194,0.0,0.0,0.0,0.0,0.0,0.0,0.0,0.0,0.0,-120.82452392578125,0.48336857557296753,-0.45468294620513916,0.0,0.0,0.0,0.0,0.0,0.0,0.0,0.0,0.0,-0.004117392934858799,0.029701299965381622,0.009019232355058193,0.0,0.0,0.0,0.0,0.0,0.0,0.0,0.0,0.0
1606987140574534491,955279,1606983539555730592,imu_link,0.0017063886625692248,0.005539863836020231,-0.8695782423019409,0.4937611222267151,0.0,0.0,0.0,0.0,0.0,0.0,0.0,0.0,0.0,-120.82464599609375,0.48349136114120483,-0.45549914240837097,0.0,0.0,0.0,0.0,0.0,0.0,0.0,0.0,0.0,-0.0061240773648023605,0.012114962562918663,0.020560501143336296,0.0,0.0,0.0,0.0,0.0,0.0,0.0,0.0,0.0
1606987140574543860,955280,1606983539555792884,imu_link,0.0017063886625692248,0.005539863836020231,-0.8695782423019409,0.4937611222267151,0.0,0.0,0.0,0.0,0.0,0.0,0.0,0.0,0.0,-120.82464599609375,0.48349136114120483,-0.45549914240837097,0.0,0.0,0.0,0.0,0.0,0.0,0.0,0.0,0.0,-0.0061240773648023605,0.012114962562918663,0.020560501143336296,0.0,0.0,0.0,0.0,0.0,0.0,0.0,0.0,0.0
1606987140574548765,955281,1606983539555857762,imu_link,0.0017062915721908212,0.005539808887988329,-0.8695777058601379,0.4937621057033539,0.0,0.0,0.0,0.0,0.0,0.0,0.0,0.0,0.0,-120.82450866699219,0.4834790825843811,-0.45549866557121277,0.0,0.0,0.0,0.0,0.0,0.0,0.0,0.0,0.0,-0.01959972269833088,0.01342714298516512,0.01940905675292015,0.0,0.0,0.0,0.0,0.0,0.0,0.0,0.0,0.0
1606987140574565000,955282,1606983539568990954,imu_link,0.0017062915721908212,0.005539808887988329,-0.8695777058601379,0.4937621057033539,0.0,0.0,0.0,0.0,0.0,0.0,0.0,0.0,0.0,-120.82450866699219,0.4834790825843811,-0.45549866557121277,0.0,0.0,0.0,0.0,0.0,0.0,0.0,0.0,0.0,-0.01959972269833088,0.01342714298516512,0.01940905675292015,0.0,0.0,0.0,0.0,0.0,0.0,0.0,0.0,0.0
1606987140574577560,955283,1606983539569107276,imu_link,0.0017013566102832556,0.00554036907851696,-0.8695762157440186,0.4937646985054016,0.0,0.0,0.0,0.0,0.0,0.0,0.0,0.0,0.0,-120.82416534423828,0.4830203354358673,-0.45583224296569824,0.0,0.0,0.0,0.0,0.0,0.0,0.0,0.0,0.0,-0.00882702600210905,0.031977396458387375,0.0015686347614973783,0.0,0.0,0.0,0.0,0.0,0.0,0.0,0.0,0.0
1606987140602923062,955284,1606983539569235039,imu_link,0.0017013566102832556,0.00554036907851696,-0.8695762157440186,0.4937646985054016,0.0,0.0,0.0,0.0,0.0,0.0,0.0,0.0,0.0,-120.82416534423828,0.4830203354358673,-0.45583224296569824,0.0,0.0,0.0,0.0,0.0,0.0,0.0,0.0,0.0,-0.00882702600210905,0.031977396458387375,0.0015686347614973783,0.0,0.0,0.0,0.0,0.0,0.0,0.0,0.0,0.0
1606987140602943504,955285,1606983539569310109,imu_link,0.0017026531277224422,0.005541166290640831,-0.8695756196975708,0.4937657415866852,0.0,0.0,0.0,0.0,0.0,0.0,0.0,0.0,0.0,-120.82402801513672,0.48319515585899353,-0.4558377265930176,0.0,0.0,0.0,0.0,0.0,0.0,0.0,0.0,0.0,0.007060636300593615,0.014722906984388828,0.018305344507098198,0.0,0.0,0.0,0.0,0.0,0.0,0.0,0.0,0.0
1606987140602957652,955286,1606983539569378419,imu_link,0.0017026531277224422,0.005541166290640831,-0.8695756196975708,0.4937657415866852,0.0,0.0,0.0,0.0,0.0,0.0,0.0,0.0,0.0,-120.82402801513672,0.48319515585899353,-0.4558377265930176,0.0,0.0,0.0,0.0,0.0,0.0,0.0,0.0,0.0,0.007060636300593615,0.014722906984388828,0.018305344507098198,0.0,0.0,0.0,0.0,0.0,0.0,0.0,0.0,0.0
1606987140602967838,955287,1606983539569459242,imu_link,0.0017023116815835238,0.005544913467019796,-0.8695734143257141,0.49376964569091797,0.0,0.0,0.0,0.0,0.0,0.0,0.0,0.0,0.0,-120.82352447509766,0.48337522149086,-0.4562282860279083,0.0,0.0,0.0,0.0,0.0,0.0,0.0,0.0,0.0,0.008171272464096546,0.0011513368226587772,0.03347707912325859,0.0,0.0,0.0,0.0,0.0,0.0,0.0,0.0,0.0
1606987140602975144,955288,1606983539569523948,imu_link,0.0017023116815835238,0.005544913467019796,-0.8695734143257141,0.49376964569091797,0.0,0.0,0.0,0.0,0.0,0.0,0.0,0.0,0.0,-120.82352447509766,0.48337522149086,-0.4562282860279083,0.0,0.0,0.0,0.0,0.0,0.0,0.0,0.0,0.0,0.008171272464096546,0.0011513368226587772,0.03347707912325859,0.0,0.0,0.0,0.0,0.0,0.0,0.0,0.0,0.0
1606987140605749113,955289,1606983539569585302,imu_link,0.001699954504147172,0.00554244127124548,-0.8695743083953857,0.4937681555747986,0.0,0.0,0.0,0.0,0.0,0.0,0.0,0.0,0.0,-120.82371520996094,0.48299968242645264,-0.45611611008644104,0.0,0.0,0.0,0.0,0.0,0.0,0.0,0.0,0.0,-0.001817759359255433,-0.0038697035051882267,0.03100568801164627,0.0,0.0,0.0,0.0,0.0,0.0,0.0,0.0,0.0
1606987140605762932,955290,1606983539569648231,imu_link,0.001699954504147172,0.00554244127124548,-0.8695743083953857,0.4937681555747986,0.0,0.0,0.0,0.0,0.0,0.0,0.0,0.0,0.0,-120.82371520996094,0.48299968242645264,-0.45611611008644104,0.0,0.0,0.0,0.0,0.0,0.0,0.0,0.0,0.0,-0.001817759359255433,-0.0038697035051882267,0.03100568801164627,0.0,0.0,0.0,0.0,0.0,0.0,0.0,0.0,0.0
1606987140605768575,955291,1606983539569714296,imu_link,0.001699942396953702,0.005539232399314642,-0.8695701956748962,0.4937753975391388,0.0,0.0,0.0,0.0,0.0,0.0,0.0,0.0,0.0,-120.82276153564453,0.4828207194805145,-0.45579302310943604,0.0,0.0,0.0,0.0,0.0,0.0,0.0,0.0,0.0,-0.011316376738250256,0.0031955570448189974,0.019021036103367805,0.0,0.0,0.0,0.0,0.0,0.0,0.0,0.0,0.0
1606987140605772968,955292,1606983539569781544,imu_link,0.001699942396953702,0.005539232399314642,-0.8695701956748962,0.4937753975391388,0.0,0.0,0.0,0.0,0.0,0.0,0.0,0.0,0.0,-120.82276153564453,0.4828207194805145,-0.45579302310943604,0.0,0.0,0.0,0.0,0.0,0.0,0.0,0.0,0.0,-0.011316376738250256,0.0031955570448189974,0.019021036103367805,0.0,0.0,0.0,0.0,0.0,0.0,0.0,0.0,0.0
1606987140610286948,955293,1606983539581819546,imu_link,0.0016988847637549043,0.005540559068322182,-0.8695695996284485,0.4937765300273895,0.0,0.0,0.0,0.0,0.0,0.0,0.0,0.0,0.0,-120.8226089477539,0.4827909767627716,-0.4559844732284546,0.0,0.0,0.0,0.0,0.0,0.0,0.0,0.0,0.0,-0.0053502656519412994,0.01146882213652134,0.026042239740490913,0.0,0.0,0.0,0.0,0.0,0.0,0.0,0.0,0.0
1606987140610322653,955294,1606983539581921806,imu_link,0.0016988847637549043,0.005540559068322182,-0.8695695996284485,0.4937765300273895,0.0,0.0,0.0,0.0,0.0,0.0,0.0,0.0,0.0,-120.8226089477539,0.4827909767627716,-0.4559844732284546,0.0,0.0,0.0,0.0,0.0,0.0,0.0,0.0,0.0,-0.0053502656519412994,0.01146882213652134,0.026042239740490913,0.0,0.0,0.0,0.0,0.0,0.0,0.0,0.0,0.0
1606987140610336514,955295,1606983539582053282,imu_link,0.0016980288783088326,0.005543796811252832,-0.8695666193962097,0.4937816858291626,0.0,0.0,0.0,0.0,0.0,0.0,0.0,0.0,0.0,-120.82194519042969,0.4828915596008301,-0.4563526213169098,0.0,0.0,0.0,0.0,0.0,0.0,0.0,0.0,0.0,0.006883205845952034,0.011188989505171776,0.04048073664307594,0.0,0.0,0.0,0.0,0.0,0.0,0.0,0.0,0.0
1606987140610350078,955296,1606983539582123008,imu_link,0.0016980288783088326,0.005543796811252832,-0.8695666193962097,0.4937816858291626,0.0,0.0,0.0,0.0,0.0,0.0,0.0,0.0,0.0,-120.82194519042969,0.4828915596008301,-0.4563526213169098,0.0,0.0,0.0,0.0,0.0,0.0,0.0,0.0,0.0,0.006883205845952034,0.011188989505171776,0.04048073664307594,0.0,0.0,0.0,0.0,0.0,0.0,0.0,0.0,0.0
1606987140610366823,955297,1606983539582241197,imu_link,0.0016982007073238492,0.0055424985475838184,-0.8695665001869202,0.4937819242477417,0.0,0.0,0.0,0.0,0.0,0.0,0.0,0.0,0.0,-120.8218994140625,0.4828353822231293,-0.4562133848667145,0.0,0.0,0.0,0.0,0.0,0.0,0.0,0.0,0.0,0.02284952811896801,0.016230758279561996,3.949753590859473e-05,0.0,0.0,0.0,0.0,0.0,0.0,0.0,0.0,0.0
1606987140614755858,955298,1606983539582328965,imu_link,0.0016982007073238492,0.0055424985475838184,-0.8695665001869202,0.4937819242477417,0.0,0.0,0.0,0.0,0.0,0.0,0.0,0.0,0.0,-120.8218994140625,0.4828353822231293,-0.4562133848667145,0.0,0.0,0.0,0.0,0.0,0.0,0.0,0.0,0.0,0.02284952811896801,0.016230758279561996,3.949753590859473e-05,0.0,0.0,0.0,0.0,0.0,0.0,0.0,0.0,0.0
1606987140614775018,955299,1606983539582419253,imu_link,0.0017006972339004278,0.005547526758164167,-0.8695656061172485,0.49378329515457153,0.0,0.0,0.0,0.0,0.0,0.0,0.0,0.0,0.0,-120.82172393798828,0.483369380235672,-0.45657244324684143,0.0,0.0,0.0,0.0,0.0,0.0,0.0,0.0,0.0,0.016747286543250084,0.012231460772454739,-0.019385358318686485,0.0,0.0,0.0,0.0,0.0,0.0,0.0,0.0,0.0
1606987140614790949,955300,1606983539582485254,imu_link,0.0017006972339004278,0.005547526758164167,-0.8695656061172485,0.49378329515457153,0.0,0.0,0.0,0.0,0.0,0.0,0.0,0.0,0.0,-120.82172393798828,0.483369380235672,-0.45657244324684143,0.0,0.0,0.0,0.0,0.0,0.0,0.0,0.0,0.0,0.016747286543250084,0.012231460772454739,-0.019385358318686485,0.0,0.0,0.0,0.0,0.0,0.0,0.0,0.0,0.0
1606987140614803638,955301,1606983539582551732,imu_link,0.0017004674300551414,0.005548193119466305,-0.869564950466156,0.4937845766544342,0.0,0.0,0.0,0.0,0.0,0.0,0.0,0.0,0.0,-120.8215560913086,0.483384907245636,-0.45665115118026733,0.0,0.0,0.0,0.0,0.0,0.0,0.0,0.0,0.0,0.0052985744550824165,0.006266233045607805,0.009131322614848614,0.0,0.0,0.0,0.0,0.0,0.0,0.0,0.0,0.0
1606987140687401332,955302,1606983539582615171,imu_link,0.0017004674300551414,0.005548193119466305,-0.869564950466156,0.4937845766544342,0.0,0.0,0.0,0.0,0.0,0.0,0.0,0.0,0.0,-120.8215560913086,0.483384907245636,-0.45665115118026733,0.0,0.0,0.0,0.0,0.0,0.0,0.0,0.0,0.0,0.0052985744550824165,0.006266233045607805,0.009131322614848614,0.0,0.0,0.0,0.0,0.0,0.0,0.0,0.0,0.0
1606987140687421204,955303,1606983539595109157,imu_link,0.001699725748039782,0.005551535170525312,-0.8695648908615112,0.49378469586372375,0.0,0.0,0.0,0.0,0.0,0.0,0.0,0.0,0.0,-120.82154846191406,0.4835001528263092,-0.4570261240005493,0.0,0.0,0.0,0.0,0.0,0.0,0.0,0.0,0.0,0.0031797110568732023,0.010662468150258064,0.025494687259197235,0.0,0.0,0.0,0.0,0.0,0.0,0.0,0.0,0.0
1606987140687429874,955304,1606983539595220824,imu_link,0.001699725748039782,0.005551535170525312,-0.8695648908615112,0.49378469586372375,0.0,0.0,0.0,0.0,0.0,0.0,0.0,0.0,0.0,-120.82154846191406,0.4835001528263092,-0.4570261240005493,0.0,0.0,0.0,0.0,0.0,0.0,0.0,0.0,0.0,0.0031797110568732023,0.010662468150258064,0.025494687259197235,0.0,0.0,0.0,0.0,0.0,0.0,0.0,0.0,0.0
1606987140687450955,955305,1606983539595361040,imu_link,0.0016981539083644748,0.005552022717893124,-0.869565486907959,0.4937836527824402,0.0,0.0,0.0,0.0,0.0,0.0,0.0,0.0,0.0,-120.82168579101562,0.4833705425262451,-0.4571642279624939,0.0,0.0,0.0,0.0,0.0,0.0,0.0,0.0,0.0,-0.004048121627420187,-0.004698832053691149,0.01497644279152155,0.0,0.0,0.0,0.0,0.0,0.0,0.0,0.0,0.0
1606987140687477057,955306,1606983539595436206,imu_link,0.0016981539083644748,0.005552022717893124,-0.869565486907959,0.4937836527824402,0.0,0.0,0.0,0.0,0.0,0.0,0.0,0.0,0.0,-120.82168579101562,0.4833705425262451,-0.4571642279624939,0.0,0.0,0.0,0.0,0.0,0.0,0.0,0.0,0.0,-0.004048121627420187,-0.004698832053691149,0.01497644279152155,0.0,0.0,0.0,0.0,0.0,0.0,0.0,0.0,0.0
1606987140687506787,955307,1606983539595498519,imu_link,0.001699373358860612,0.005551951937377453,-0.8695655465126038,0.4937833547592163,0.0,0.0,0.0,0.0,0.0,0.0,0.0,0.0,0.0,-120.82170867919922,0.48348793387413025,-0.4570883512496948,0.0,0.0,0.0,0.0,0.0,0.0,0.0,0.0,0.0,-4.8851899919100106e-05,-0.006795164663344622,0.0007159975939430296,0.0,0.0,0.0,0.0,0.0,0.0,0.0,0.0,0.0
1606987140687528437,955308,1606983539595564375,imu_link,0.001699373358860612,0.005551951937377453,-0.8695655465126038,0.4937833547592163,0.0,0.0,0.0,0.0,0.0,0.0,0.0,0.0,0.0,-120.82170867919922,0.48348793387413025,-0.4570883512496948,0.0,0.0,0.0,0.0,0.0,0.0,0.0,0.0,0.0,-4.8851899919100106e-05,-0.006795164663344622,0.0007159975939430296,0.0,0.0,0.0,0.0,0.0,0.0,0.0,0.0,0.0
1606987140687542999,955309,1606983539595651320,imu_link,0.001700617023743689,0.005551495123654604,-0.8695645332336426,0.49378523230552673,0.0,0.0,0.0,0.0,0.0,0.0,0.0,0.0,0.0,-120.82146453857422,0.48358696699142456,-0.4569713771343231,0.0,0.0,0.0,0.0,0.0,0.0,0.0,0.0,0.0,0.014375460334122181,0.01517680287361145,0.0072685787454247475,0.0,0.0,0.0,0.0,0.0,0.0,0.0,0.0,0.0
1606987140687552152,955310,1606983539595716379,imu_link,0.001700617023743689,0.005551495123654604,-0.8695645332336426,0.49378523230552673,0.0,0.0,0.0,0.0,0.0,0.0,0.0,0.0,0.0,-120.82146453857422,0.48358696699142456,-0.4569713771343231,0.0,0.0,0.0,0.0,0.0,0.0,0.0,0.0,0.0,0.014375460334122181,0.01517680287361145,0.0072685787454247475,0.0,0.0,0.0,0.0,0.0,0.0,0.0,0.0,0.0
1606987140687568160,955311,1606983539595844219,imu_link,0.0017022546380758286,0.005554806906729937,-0.8695645928382874,0.4937850832939148,0.0,0.0,0.0,0.0,0.0,0.0,0.0,0.0,0.0,-120.82148742675781,0.48393744230270386,-0.4572088420391083,0.0,0.0,0.0,0.0,0.0,0.0,0.0,0.0,0.0,0.011679260060191154,0.009188525378704071,0.019905783236026764,0.0,0.0,0.0,0.0,0.0,0.0,0.0,0.0,0.0
1606987140687577044,955312,1606983539595910364,imu_link,0.0017022546380758286,0.005554806906729937,-0.8695645928382874,0.4937850832939148,0.0,0.0,0.0,0.0,0.0,0.0,0.0,0.0,0.0,-120.82148742675781,0.48393744230270386,-0.4572088420391083,0.0,0.0,0.0,0.0,0.0,0.0,0.0,0.0,0.0,0.011679260060191154,0.009188525378704071,0.019905783236026764,0.0,0.0,0.0,0.0,0.0,0.0,0.0,0.0,0.0
1606987140687602733,955313,1606983539595980246,imu_link,0.0017028080765157938,0.005554819945245981,-0.8695639371871948,0.4937862157821655,0.0,0.0,0.0,0.0,0.0,0.0,0.0,0.0,0.0,-120.82134246826172,0.4839939475059509,-0.45717814564704895,0.0,0.0,0.0,0.0,0.0,0.0,0.0,0.0,0.0,0.015926793217658997,0.0003833996597677469,0.025777917355298996,0.0,0.0,0.0,0.0,0.0,0.0,0.0,0.0,0.0
1606987140687619199,955314,1606983539609143241,imu_link,0.0017028080765157938,0.005554819945245981,-0.8695639371871948,0.4937862157821655,0.0,0.0,0.0,0.0,0.0,0.0,0.0,0.0,0.0,-120.82134246826172,0.4839939475059509,-0.45717814564704895,0.0,0.0,0.0,0.0,0.0,0.0,0.0,0.0,0.0,0.015926793217658997,0.0003833996597677469,0.025777917355298996,0.0,0.0,0.0,0.0,0.0,0.0,0.0,0.0,0.0
1606987140687633084,955315,1606983539609318338,imu_link,0.0017058830708265305,0.005556727293878794,-0.8695616722106934,0.4937901496887207,0.0,0.0,0.0,0.0,0.0,0.0,0.0,0.0,0.0,-120.8208236694336,0.4844103157520294,-0.4571920931339264,0.0,0.0,0.0,0.0,0.0,0.0,0.0,0.0,0.0,0.009697473607957363,0.0051089925691485405,0.04002337530255318,0.0,0.0,0.0,0.0,0.0,0.0,0.0,0.0,0.0
1606987140687658893,955316,1606983539609436551,imu_link,0.0017058830708265305,0.005556727293878794,-0.8695616722106934,0.4937901496887207,0.0,0.0,0.0,0.0,0.0,0.0,0.0,0.0,0.0,-120.8208236694336,0.4844103157520294,-0.4571920931339264,0.0,0.0,0.0,0.0,0.0,0.0,0.0,0.0,0.0,0.009697473607957363,0.0051089925691485405,0.04002337530255318,0.0,0.0,0.0,0.0,0.0,0.0,0.0,0.0,0.0
1606987140687669043,955317,1606983539609520225,imu_link,0.001704996800981462,0.005558864213526249,-0.8695605397224426,0.4937921464443207,0.0,0.0,0.0,0.0,0.0,0.0,0.0,0.0,0.0,-120.82056427001953,0.4844439923763275,-0.45745402574539185,0.0,0.0,0.0,0.0,0.0,0.0,0.0,0.0,0.0,0.002208833349868655,-0.013184898532927036,0.05149446055293083,0.0,0.0,0.0,0.0,0.0,0.0,0.0,0.0,0.0
1606987140687695719,955318,1606983539609591302,imu_link,0.001704996800981462,0.005558864213526249,-0.8695605397224426,0.4937921464443207,0.0,0.0,0.0,0.0,0.0,0.0,0.0,0.0,0.0,-120.82056427001953,0.4844439923763275,-0.45745402574539185,0.0,0.0,0.0,0.0,0.0,0.0,0.0,0.0,0.0,0.002208833349868655,-0.013184898532927036,0.05149446055293083,0.0,0.0,0.0,0.0,0.0,0.0,0.0,0.0,0.0
1606987140687726839,955319,1606983539609657471,imu_link,0.0017077384982258081,0.005557741038501263,-0.8695594072341919,0.49379414319992065,0.0,0.0,0.0,0.0,0.0,0.0,0.0,0.0,0.0,-120.8202896118164,0.4846547245979309,-0.45718589425086975,0.0,0.0,0.0,0.0,0.0,0.0,0.0,0.0,0.0,0.014485601335763931,-0.023549066856503487,0.02416817657649517,0.0,0.0,0.0,0.0,0.0,0.0,0.0,0.0,0.0
1606987140736598809,955320,1606983539609739152,imu_link,0.0017077384982258081,0.005557741038501263,-0.8695594072341919,0.49379414319992065,0.0,0.0,0.0,0.0,0.0,0.0,0.0,0.0,0.0,-120.8202896118164,0.4846547245979309,-0.45718589425086975,0.0,0.0,0.0,0.0,0.0,0.0,0.0,0.0,0.0,0.014485601335763931,-0.023549066856503487,0.02416817657649517,0.0,0.0,0.0,0.0,0.0,0.0,0.0,0.0,0.0
1606987140736619339,955321,1606983539609803761,imu_link,0.0017087585292756557,0.005559112876653671,-0.8695583939552307,0.4937959611415863,0.0,0.0,0.0,0.0,0.0,0.0,0.0,0.0,0.0,-120.82005310058594,0.4848349094390869,-0.45726385712623596,0.0,0.0,0.0,0.0,0.0,0.0,0.0,0.0,0.0,0.018301647156476974,-0.014045272953808308,0.005914952605962753,0.0,0.0,0.0,0.0,0.0,0.0,0.0,0.0,0.0
1606987140736627386,955322,1606983539609943649,imu_link,0.0017087585292756557,0.005559112876653671,-0.8695583939552307,0.4937959611415863,0.0,0.0,0.0,0.0,0.0,0.0,0.0,0.0,0.0,-120.82005310058594,0.4848349094390869,-0.45726385712623596,0.0,0.0,0.0,0.0,0.0,0.0,0.0,0.0,0.0,0.018301647156476974,-0.014045272953808308,0.005914952605962753,0.0,0.0,0.0,0.0,0.0,0.0,0.0,0.0,0.0
1606987140736634696,955323,1606983539610009618,imu_link,0.0017115090740844607,0.005558632779866457,-0.8695591688156128,0.49379464983940125,0.0,0.0,0.0,0.0,0.0,0.0,0.0,0.0,0.0,-120.82023620605469,0.4850812256336212,-0.45706114172935486,0.0,0.0,0.0,0.0,0.0,0.0,0.0,0.0,0.0,0.015162358991801739,-0.01305678766220808,0.008948351256549358,0.0,0.0,0.0,0.0,0.0,0.0,0.0,0.0,0.0
1606987140738726378,955324,1606983539610080225,imu_link,0.0017115090740844607,0.005558632779866457,-0.8695591688156128,0.49379464983940125,0.0,0.0,0.0,0.0,0.0,0.0,0.0,0.0,0.0,-120.82023620605469,0.4850812256336212,-0.45706114172935486,0.0,0.0,0.0,0.0,0.0,0.0,0.0,0.0,0.0,0.015162358991801739,-0.01305678766220808,0.008948351256549358,0.0,0.0,0.0,0.0,0.0,0.0,0.0,0.0,0.0
1606987140738754517,955325,1606983539622553311,imu_link,0.0017111040651798248,0.005557272117584944,-0.869559109210968,0.493794709444046,0.0,0.0,0.0,0.0,0.0,0.0,0.0,0.0,0.0,-120.82022094726562,0.4849638342857361,-0.4569484293460846,0.0,0.0,0.0,0.0,0.0,0.0,0.0,0.0,0.0,-0.001992644742131233,-0.01081041619181633,0.006328929681330919,0.0,0.0,0.0,0.0,0.0,0.0,0.0,0.0,0.0
