%time,field.header.seq,field.header.stamp,field.header.frame_id,field.orientation.x,field.orientation.y,field.orientation.z,field.orientation.w,field.orientation_covariance0,field.orientation_covariance1,field.orientation_covariance2,field.orientation_covariance3,field.orientation_covariance4,field.orientation_covariance5,field.orientation_covariance6,field.orientation_covariance7,field.orientation_covariance8,field.angular_velocity.x,field.angular_velocity.y,field.angular_velocity.z,field.angular_velocity_covariance0,field.angular_velocity_covariance1,field.angular_velocity_covariance2,field.angular_velocity_covariance3,field.angular_velocity_covariance4,field.angular_velocity_covariance5,field.angular_velocity_covariance6,field.angular_velocity_covariance7,field.angular_velocity_covariance8,field.linear_acceleration.x,field.linear_acceleration.y,field.linear_acceleration.z,field.linear_acceleration_covariance0,field.linear_acceleration_covariance1,field.linear_acceleration_covariance2,field.linear_acceleration_covariance3,field.linear_acceleration_covariance4,field.linear_acceleration_covariance5,field.linear_acceleration_covariance6,field.linear_acceleration_covariance7,field.linear_acceleration_covariance8
1606988877739277630,2345311,1606985277123826783,imu_link,-0.005207955837249756,-0.005792165640741587,0.22283701598644257,-0.9748246073722839,0.0,0.0,0.0,0.0,0.0,0.0,0.0,0.0,0.0,-25.74928092956543,0.7800340056419373,0.43390339612960815,0.0,0.0,0.0,0.0,0.0,0.0,0.0,0.0,0.0,0.029710937291383743,-0.013018259778618813,0.045784298330545425,0.0,0.0,0.0,0.0,0.0,0.0,0.0,0.0,0.0
1606988877739307583,2345312,1606985277123957846,imu_link,-0.005207955837249756,-0.005792165640741587,0.22283701598644257,-0.9748246073722839,0.0,0.0,0.0,0.0,0.0,0.0,0.0,0.0,0.0,-25.74928092956543,0.7800340056419373,0.43390339612960815,0.0,0.0,0.0,0.0,0.0,0.0,0.0,0.0,0.0,0.029710937291383743,-0.013018259778618813,0.045784298330545425,0.0,0.0,0.0,0.0,0.0,0.0,0.0,0.0,0.0
1606988877739323070,2345313,1606985277124045103,imu_link,-0.005209287162870169,-0.005793702322989702,0.22283679246902466,-0.9748246669769287,0.0,0.0,0.0,0.0,0.0,0.0,0.0,0.0,0.0,-25.749252319335938,0.7802396416664124,0.4340130686759949,0.0,0.0,0.0,0.0,0.0,0.0,0.0,0.0,0.0,0.016782741993665695,-0.012913361191749573,0.03884806111454964,0.0,0.0,0.0,0.0,0.0,0.0,0.0,0.0,0.0
1606988877739348002,2345314,1606985277124146488,imu_link,-0.005209287162870169,-0.005793702322989702,0.22283679246902466,-0.9748246669769287,0.0,0.0,0.0,0.0,0.0,0.0,0.0,0.0,0.0,-25.749252319335938,0.7802396416664124,0.4340130686759949,0.0,0.0,0.0,0.0,0.0,0.0,0.0,0.0,0.0,0.016782741993665695,-0.012913361191749573,0.03884806111454964,0.0,0.0,0.0,0.0,0.0,0.0,0.0,0.0,0.0
1606988877739356289,2345315,1606985277124224974,imu_link,-0.005214494187384844,-0.005797327030450106,0.22283817827701569,-0.9748243093490601,0.0,0.0,0.0,0.0,0.0,0.0,0.0,0.0,0.0,-25.749408721923828,0.7807781100273132,0.43450111150741577,0.0,0.0,0.0,0.0,0.0,0.0,0.0,0.0,0.0,-0.03005335107445717,-0.009640931151807308,0.04188592731952667,0.0,0.0,0.0,0.0,0.0,0.0,0.0,0.0,0.0
1606988877739364190,2345316,1606985277124331245,imu_link,-0.005214494187384844,-0.005797327030450106,0.22283817827701569,-0.9748243093490601,0.0,0.0,0.0,0.0,0.0,0.0,0.0,0.0,0.0,-25.749408721923828,0.7807781100273132,0.43450111150741577,0.0,0.0,0.0,0.0,0.0,0.0,0.0,0.0,0.0,-0.03005335107445717,-0.009640931151807308,0.04188592731952667,0.0,0.0,0.0,0.0,0.0,0.0,0.0,0.0,0.0
1606988877739386687,2345317,1606985277124409311,imu_link,-0.005215304903686047,-0.0057967668399214745,0.22283835709095,-0.9748242497444153,0.0,0.0,0.0,0.0,0.0,0.0,0.0,0.0,0.0,-25.74942970275879,0.7807363271713257,0.4346058666706085,0.0,0.0,0.0,0.0,0.0,0.0,0.0,0.0,0.0,-0.043287117034196854,-0.01088310033082962,0.04887419193983078,0.0,0.0,0.0,0.0,0.0,0.0,0.0,0.0,0.0
1606988877739409818,2345318,1606985277124533253,imu_link,-0.005215304903686047,-0.0057967668399214745,0.22283835709095,-0.9748242497444153,0.0,0.0,0.0,0.0,0.0,0.0,0.0,0.0,0.0,-25.74942970275879,0.7807363271713257,0.4346058666706085,0.0,0.0,0.0,0.0,0.0,0.0,0.0,0.0,0.0,-0.043287117034196854,-0.01088310033082962,0.04887419193983078,0.0,0.0,0.0,0.0,0.0,0.0,0.0,0.0,0.0
1606988877739421506,2345319,1606985277136916491,imu_link,-0.005216678138822317,-0.0057946546003222466,0.22283828258514404,-0.9748242497444153,0.0,0.0,0.0,0.0,0.0,0.0,0.0,0.0,0.0,-25.749420166015625,0.7805352807044983,0.4348132908344269,0.0,0.0,0.0,0.0,0.0,0.0,0.0,0.0,0.0,-0.021320383995771408,-0.015593982301652431,0.05303029716014862,0.0,0.0,0.0,0.0,0.0,0.0,0.0,0.0,0.0
1606988877739428010,2345320,1606985277137066684,imu_link,-0.005216678138822317,-0.0057946546003222466,0.22283828258514404,-0.9748242497444153,0.0,0.0,0.0,0.0,0.0,0.0,0.0,0.0,0.0,-25.749420166015625,0.7805352807044983,0.4348132908344269,0.0,0.0,0.0,0.0,0.0,0.0,0.0,0.0,0.0,-0.021320383995771408,-0.015593982301652431,0.05303029716014862,0.0,0.0,0.0,0.0,0.0,0.0,0.0,0.0,0.0
1606988877739433003,2345321,1606985277137158922,imu_link,-0.005216352175921202,-0.005794426891952753,0.22283869981765747,-0.9748241901397705,0.0,0.0,0.0,0.0,0.0,0.0,0.0,0.0,0.0,-25.74947166442871,0.7805017232894897,0.43478235602378845,0.0,0.0,0.0,0.0,0.0,0.0,0.0,0.0,0.0,0.005533404182642698,-0.01058696024119854,0.035897113382816315,0.0,0.0,0.0,0.0,0.0,0.0,0.0,0.0,0.0
1606988877739451967,2345322,1606985277137241769,imu_link,-0.005216352175921202,-0.005794426891952753,0.22283869981765747,-0.9748241901397705,0.0,0.0,0.0,0.0,0.0,0.0,0.0,0.0,0.0,-25.74947166442871,0.7805017232894897,0.43478235602378845,0.0,0.0,0.0,0.0,0.0,0.0,0.0,0.0,0.0,0.005533404182642698,-0.01058696024119854,0.035897113382816315,0.0,0.0,0.0,0.0,0.0,0.0,0.0,0.0,0.0
1606988877739479247,2345323,1606985277137336012,imu_link,-0.005217617377638817,-0.005795903503894806,0.22283324599266052,-0.974825382232666,0.0,0.0,0.0,0.0,0.0,0.0,0.0,0.0,0.0,-25.748830795288086,0.7806965708732605,0.43489035964012146,0.0,0.0,0.0,0.0,0.0,0.0,0.0,0.0,0.0,0.005496429279446602,0.007531533949077129,0.04721318930387497,0.0,0.0,0.0,0.0,0.0,0.0,0.0,0.0,0.0
1606988877739499913,2345324,1606985277137432576,imu_link,-0.005217617377638817,-0.005795903503894806,0.22283324599266052,-0.974825382232666,0.0,0.0,0.0,0.0,0.0,0.0,0.0,0.0,0.0,-25.748830795288086,0.7806965708732605,0.43489035964012146,0.0,0.0,0.0,0.0,0.0,0.0,0.0,0.0,0.0,0.005496429279446602,0.007531533949077129,0.04721318930387497,0.0,0.0,0.0,0.0,0.0,0.0,0.0,0.0,0.0
1606988877739529112,2345325,1606985277137510230,imu_link,-0.005219696089625359,-0.005798219703137875,0.22283214330673218,-0.9748256206512451,0.0,0.0,0.0,0.0,0.0,0.0,0.0,0.0,0.0,-25.74869728088379,0.7810079455375671,0.4350643455982208,0.0,0.0,0.0,0.0,0.0,0.0,0.0,0.0,0.0,0.002081492682918906,0.016600165516138077,0.082282155752182,0.0,0.0,0.0,0.0,0.0,0.0,0.0,0.0,0.0
1606988877739538180,2345326,1606985277137583540,imu_link,-0.005219696089625359,-0.005798219703137875,0.22283214330673218,-0.9748256206512451,0.0,0.0,0.0,0.0,0.0,0.0,0.0,0.0,0.0,-25.74869728088379,0.7810079455375671,0.4350643455982208,0.0,0.0,0.0,0.0,0.0,0.0,0.0,0.0,0.0,0.002081492682918906,0.016600165516138077,0.082282155752182,0.0,0.0,0.0,0.0,0.0,0.0,0.0,0.0,0.0
1606988877739551743,2345327,1606985277137662488,imu_link,-0.005217316094785929,-0.005796966142952442,0.22282584011554718,-0.9748271107673645,0.0,0.0,0.0,0.0,0.0,0.0,0.0,0.0,0.0,-25.747955322265625,0.7808042764663696,0.4348355233669281,0.0,0.0,0.0,0.0,0.0,0.0,0.0,0.0,0.0,0.01057044044137001,-0.009332121349871159,0.10066141933202744,0.0,0.0,0.0,0.0,0.0,0.0,0.0,0.0,0.0
1606988877740735740,2345328,1606985277137745710,imu_link,-0.005217316094785929,-0.005796966142952442,0.22282584011554718,-0.9748271107673645,0.0,0.0,0.0,0.0,0.0,0.0,0.0,0.0,0.0,-25.747955322265625,0.7808042764663696,0.4348355233669281,0.0,0.0,0.0,0.0,0.0,0.0,0.0,0.0,0.0,0.01057044044137001,-0.009332121349871159,0.10066141933202744,0.0,0.0,0.0,0.0,0.0,0.0,0.0,0.0,0.0
1606988877740765344,2345329,1606985277137818825,imu_link,-0.005218195263296366,-0.005796099081635475,0.2228247970342636,-0.9748273491859436,0.0,0.0,0.0,0.0,0.0,0.0,0.0,0.0,0.0,-25.747835159301758,0.7807294130325317,0.43495672941207886,0.0,0.0,0.0,0.0,0.0,0.0,0.0,0.0,0.0,0.007763226982206106,-0.005470988806337118,0.08672574162483215,0.0,0.0,0.0,0.0,0.0,0.0,0.0,0.0,0.0
1606988877740783845,2345330,1606985277149825787,imu_link,-0.005218195263296366,-0.005796099081635475,0.2228247970342636,-0.9748273491859436,0.0,0.0,0.0,0.0,0.0,0.0,0.0,0.0,0.0,-25.747835159301758,0.7807294130325317,0.43495672941207886,0.0,0.0,0.0,0.0,0.0,0.0,0.0,0.0,0.0,0.007763226982206106,-0.005470988806337118,0.08672574162483215,0.0,0.0,0.0,0.0,0.0,0.0,0.0,0.0,0.0
1606988877740792031,2345331,1606985277150041426,imu_link,-0.005218775011599064,-0.005795784294605255,0.22282394766807556,-0.9748275876045227,0.0,0.0,0.0,0.0,0.0,0.0,0.0,0.0,0.0,-25.747732162475586,0.7807087302207947,0.4350301921367645,0.0,0.0,0.0,0.0,0.0,0.0,0.0,0.0,0.0,-0.004935598932206631,-0.001865009660832584,0.07599262148141861,0.0,0.0,0.0,0.0,0.0,0.0,0.0,0.0,0.0
1606988877740801636,2345332,1606985277150196004,imu_link,-0.005218775011599064,-0.005795784294605255,0.22282394766807556,-0.9748275876045227,0.0,0.0,0.0,0.0,0.0,0.0,0.0,0.0,0.0,-25.747732162475586,0.7807087302207947,0.4350301921367645,0.0,0.0,0.0,0.0,0.0,0.0,0.0,0.0,0.0,-0.004935598932206631,-0.001865009660832584,0.07599262148141861,0.0,0.0,0.0,0.0,0.0,0.0,0.0,0.0,0.0
1606988877740816064,2345333,1606985277150299664,imu_link,-0.005217764526605606,-0.0057956683449447155,0.22282223403453827,-0.9748279452323914,0.0,0.0,0.0,0.0,0.0,0.0,0.0,0.0,0.0,-25.747535705566406,0.7806691527366638,0.43492162227630615,0.0,0.0,0.0,0.0,0.0,0.0,0.0,0.0,0.0,-0.025888152420520782,-0.01161443442106247,0.06208467856049538,0.0,0.0,0.0,0.0,0.0,0.0,0.0,0.0,0.0
1606988877740823610,2345334,1606985277150397295,imu_link,-0.005217764526605606,-0.0057956683449447155,0.22282223403453827,-0.9748279452323914,0.0,0.0,0.0,0.0,0.0,0.0,0.0,0.0,0.0,-25.747535705566406,0.7806691527366638,0.43492162227630615,0.0,0.0,0.0,0.0,0.0,0.0,0.0,0.0,0.0,-0.025888152420520782,-0.01161443442106247,0.06208467856049538,0.0,0.0,0.0,0.0,0.0,0.0,0.0,0.0,0.0
1606988877740832470,2345335,1606985277150517468,imu_link,-0.005218220874667168,-0.005794512573629618,0.22281955182552338,-0.9748285412788391,0.0,0.0,0.0,0.0,0.0,0.0,0.0,0.0,0.0,-25.747217178344727,0.780550479888916,0.435004323720932,0.0,0.0,0.0,0.0,0.0,0.0,0.0,0.0,0.0,-0.02020205743610859,0.0038363647181540728,0.02459242008626461,0.0,0.0,0.0,0.0,0.0,0.0,0.0,0.0,0.0
1606988877740852020,2345336,1606985277150605056,imu_link,-0.005218220874667168,-0.005794512573629618,0.22281955182552338,-0.9748285412788391,0.0,0.0,0.0,0.0,0.0,0.0,0.0,0.0,0.0,-25.747217178344727,0.780550479888916,0.435004323720932,0.0,0.0,0.0,0.0,0.0,0.0,0.0,0.0,0.0,-0.02020205743610859,0.0038363647181540728,0.02459242008626461,0.0,0.0,0.0,0.0,0.0,0.0,0.0,0.0,0.0
1606988877748282677,2345337,1606985277150769050,imu_link,-0.00521836755797267,-0.005792879965156317,0.2228207290172577,-0.97482830286026,0.0,0.0,0.0,0.0,0.0,0.0,0.0,0.0,0.0,-25.747352600097656,0.7803723812103271,0.43506142497062683,0.0,0.0,0.0,0.0,0.0,0.0,0.0,0.0,0.0,-0.010679462924599648,-0.0016571922460570931,0.007094938773661852,0.0,0.0,0.0,0.0,0.0,0.0,0.0,0.0,0.0
1606988877748299672,2345338,1606985277150874319,imu_link,-0.00521836755797267,-0.005792879965156317,0.2228207290172577,-0.97482830286026,0.0,0.0,0.0,0.0,0.0,0.0,0.0,0.0,0.0,-25.747352600097656,0.7803723812103271,0.43506142497062683,0.0,0.0,0.0,0.0,0.0,0.0,0.0,0.0,0.0,-0.010679462924599648,-0.0016571922460570931,0.007094938773661852,0.0,0.0,0.0,0.0,0.0,0.0,0.0,0.0,0.0
1606988877748307999,2345339,1606985277151040829,imu_link,-0.005219785962253809,-0.005792627576738596,0.2228163480758667,-0.9748293161392212,0.0,0.0,0.0,0.0,0.0,0.0,0.0,0.0,0.0,-25.746841430664062,0.7803784608840942,0.4352298080921173,0.0,0.0,0.0,0.0,0.0,0.0,0.0,0.0,0.0,-0.010069613344967365,-0.0036934111267328262,0.016300858929753304,0.0,0.0,0.0,0.0,0.0,0.0,0.0,0.0,0.0
1606988877756030921,2345340,1606985277163579332,imu_link,-0.005219785962253809,-0.005792627576738596,0.2228163480758667,-0.9748293161392212,0.0,0.0,0.0,0.0,0.0,0.0,0.0,0.0,0.0,-25.746841430664062,0.7803784608840942,0.4352298080921173,0.0,0.0,0.0,0.0,0.0,0.0,0.0,0.0,0.0,-0.010069613344967365,-0.0036934111267328262,0.016300858929753304,0.0,0.0,0.0,0.0,0.0,0.0,0.0,0.0,0.0
1606988877757389669,2345341,1606985277163717121,imu_link,-0.005221795756369829,-0.005792242009192705,0.22281408309936523,-0.9748297929763794,0.0,0.0,0.0,0.0,0.0,0.0,0.0,0.0,0.0,-25.746572494506836,0.7803856730461121,0.4354659914970398,0.0,0.0,0.0,0.0,0.0,0.0,0.0,0.0,0.0,0.0022717872634530067,-0.001443665474653244,0.04458392783999443,0.0,0.0,0.0,0.0,0.0,0.0,0.0,0.0,0.0
1606988877757423216,2345342,1606985277163905337,imu_link,-0.005221795756369829,-0.005792242009192705,0.22281408309936523,-0.9748297929763794,0.0,0.0,0.0,0.0,0.0,0.0,0.0,0.0,0.0,-25.746572494506836,0.7803856730461121,0.4354659914970398,0.0,0.0,0.0,0.0,0.0,0.0,0.0,0.0,0.0,0.0022717872634530067,-0.001443665474653244,0.04458392783999443,0.0,0.0,0.0,0.0,0.0,0.0,0.0,0.0,0.0
1606988877757442800,2345343,1606985277164032070,imu_link,-0.005220635328441858,-0.005793066695332527,0.22281281650066376,-0.9748300909996033,0.0,0.0,0.0,0.0,0.0,0.0,0.0,0.0,0.0,-25.746423721313477,0.7804476022720337,0.435316264629364,0.0,0.0,0.0,0.0,0.0,0.0,0.0,0.0,0.0,0.014355436898767948,-0.00762754213064909,0.07863505929708481,0.0,0.0,0.0,0.0,0.0,0.0,0.0,0.0,0.0
1606988877757449944,2345344,1606985277164143924,imu_link,-0.005220635328441858,-0.005793066695332527,0.22281281650066376,-0.9748300909996033,0.0,0.0,0.0,0.0,0.0,0.0,0.0,0.0,0.0,-25.746423721313477,0.7804476022720337,0.435316264629364,0.0,0.0,0.0,0.0,0.0,0.0,0.0,0.0,0.0,0.014355436898767948,-0.00762754213064909,0.07863505929708481,0.0,0.0,0.0,0.0,0.0,0.0,0.0,0.0,0.0
1606988877757472866,2345345,1606985277164231682,imu_link,-0.005221004597842693,-0.0057930173352360725,0.222814679145813,-0.9748296737670898,0.0,0.0,0.0,0.0,0.0,0.0,0.0,0.0,0.0,-25.74664306640625,0.7804523706436157,0.43535733222961426,0.0,0.0,0.0,0.0,0.0,0.0,0.0,0.0,0.0,0.012282725423574448,-0.015105140395462513,0.09640414267778397,0.0,0.0,0.0,0.0,0.0,0.0,0.0,0.0,0.0
1606988877757481591,2345346,1606985277164334154,imu_link,-0.005221004597842693,-0.0057930173352360725,0.222814679145813,-0.9748296737670898,0.0,0.0,0.0,0.0,0.0,0.0,0.0,0.0,0.0,-25.74664306640625,0.7804523706436157,0.43535733222961426,0.0,0.0,0.0,0.0,0.0,0.0,0.0,0.0,0.0,0.012282725423574448,-0.015105140395462513,0.09640414267778397,0.0,0.0,0.0,0.0,0.0,0.0,0.0,0.0,0.0
1606988877757489076,2345347,1606985277164446123,imu_link,-0.005225020926445723,-0.005795113276690245,0.2228192389011383,-0.9748286008834839,0.0,0.0,0.0,0.0,0.0,0.0,0.0,0.0,0.0,-25.747173309326172,0.7807911038398743,0.4357488751411438,0.0,0.0,0.0,0.0,0.0,0.0,0.0,0.0,0.0,5.94917219132185e-05,-0.01703646406531334,0.09573548287153244,0.0,0.0,0.0,0.0,0.0,0.0,0.0,0.0,0.0
1606988877757493889,2345348,1606985277164531857,imu_link,-0.005225020926445723,-0.005795113276690245,0.2228192389011383,-0.9748286008834839,0.0,0.0,0.0,0.0,0.0,0.0,0.0,0.0,0.0,-25.747173309326172,0.7807911038398743,0.4357488751411438,0.0,0.0,0.0,0.0,0.0,0.0,0.0,0.0,0.0,5.94917219132185e-05,-0.01703646406531334,0.09573548287153244,0.0,0.0,0.0,0.0,0.0,0.0,0.0,0.0,0.0
1606988877762783488,2345349,1606985277164620096,imu_link,-0.0052234395407140255,-0.005794721655547619,0.2228192538022995,-0.9748286008834839,0.0,0.0,0.0,0.0,0.0,0.0,0.0,0.0,0.0,-25.74717903137207,0.7807069420814514,0.43558216094970703,0.0,0.0,0.0,0.0,0.0,0.0,0.0,0.0,0.0,-0.016929490491747856,0.0051626963540911674,0.08511528372764587,0.0,0.0,0.0,0.0,0.0,0.0,0.0,0.0,0.0
1606988877762800878,2345350,1606985277164701474,imu_link,-0.0052234395407140255,-0.005794721655547619,0.2228192538022995,-0.9748286008834839,0.0,0.0,0.0,0.0,0.0,0.0,0.0,0.0,0.0,-25.74717903137207,0.7807069420814514,0.43558216094970703,0.0,0.0,0.0,0.0,0.0,0.0,0.0,0.0,0.0,-0.016929490491747856,0.0051626963540911674,0.08511528372764587,0.0,0.0,0.0,0.0,0.0,0.0,0.0,0.0,0.0
1606988877770352524,2345351,1606985277177076353,imu_link,-0.005221167579293251,-0.005794794764369726,0.22282107174396515,-0.9748281836509705,0.0,0.0,0.0,0.0,0.0,0.0,0.0,0.0,0.0,-25.74739646911621,0.780657947063446,0.4353250563144684,0.0,0.0,0.0,0.0,0.0,0.0,0.0,0.0,0.0,-0.01355778705328703,0.010697132907807827,0.08914992213249207,0.0,0.0,0.0,0.0,0.0,0.0,0.0,0.0,0.0
1606988877773488635,2345352,1606985277177251168,imu_link,-0.005221167579293251,-0.005794794764369726,0.22282107174396515,-0.9748281836509705,0.0,0.0,0.0,0.0,0.0,0.0,0.0,0.0,0.0,-25.74739646911621,0.780657947063446,0.4353250563144684,0.0,0.0,0.0,0.0,0.0,0.0,0.0,0.0,0.0,-0.01355778705328703,0.010697132907807827,0.08914992213249207,0.0,0.0,0.0,0.0,0.0,0.0,0.0,0.0,0.0
1606988877773586603,2345353,1606985277177364600,imu_link,-0.005223503801971674,-0.0057948739267885685,0.22282102704048157,-0.9748281836509705,0.0,0.0,0.0,0.0,0.0,0.0,0.0,0.0,0.0,-25.747390747070312,0.780726432800293,0.43558409810066223,0.0,0.0,0.0,0.0,0.0,0.0,0.0,0.0,0.0,0.007513746153563261,0.002825983101502061,0.07636316120624542,0.0,0.0,0.0,0.0,0.0,0.0,0.0,0.0,0.0
1606988877773627135,2345354,1606985277177463930,imu_link,-0.005223503801971674,-0.0057948739267885685,0.22282102704048157,-0.9748281836509705,0.0,0.0,0.0,0.0,0.0,0.0,0.0,0.0,0.0,-25.747390747070312,0.780726432800293,0.43558409810066223,0.0,0.0,0.0,0.0,0.0,0.0,0.0,0.0,0.0,0.007513746153563261,0.002825983101502061,0.07636316120624542,0.0,0.0,0.0,0.0,0.0,0.0,0.0,0.0,0.0
1606988877773642844,2345355,1606985277177577388,imu_link,-0.005223297979682684,-0.005796139128506184,0.2228163778781891,-0.9748292565345764,0.0,0.0,0.0,0.0,0.0,0.0,0.0,0.0,0.0,-25.746841430664062,0.780860424041748,0.43553251028060913,0.0,0.0,0.0,0.0,0.0,0.0,0.0,0.0,0.0,0.0036055876407772303,0.01673717051744461,0.04394220560789108,0.0,0.0,0.0,0.0,0.0,0.0,0.0,0.0,0.0
1606988877773657280,2345356,1606985277177671145,imu_link,-0.005223297979682684,-0.005796139128506184,0.2228163778781891,-0.9748292565345764,0.0,0.0,0.0,0.0,0.0,0.0,0.0,0.0,0.0,-25.746841430664062,0.780860424041748,0.43553251028060913,0.0,0.0,0.0,0.0,0.0,0.0,0.0,0.0,0.0,0.0036055876407772303,0.01673717051744461,0.04394220560789108,0.0,0.0,0.0,0.0,0.0,0.0,0.0,0.0,0.0
1606988877773670176,2345357,1606985277177769818,imu_link,-0.005222126375883818,-0.005796847864985466,0.22281493246555328,-0.9748295545578003,0.0,0.0,0.0,0.0,0.0,0.0,0.0,0.0,0.0,-25.74666976928711,0.7809090614318848,0.4353846609592438,0.0,0.0,0.0,0.0,0.0,0.0,0.0,0.0,0.0,0.0015284946421161294,0.01626717485487461,0.05454273894429207,0.0,0.0,0.0,0.0,0.0,0.0,0.0,0.0,0.0
1606988877773682134,2345358,1606985277177847318,imu_link,-0.005222126375883818,-0.005796847864985466,0.22281493246555328,-0.9748295545578003,0.0,0.0,0.0,0.0,0.0,0.0,0.0,0.0,0.0,-25.74666976928711,0.7809090614318848,0.4353846609592438,0.0,0.0,0.0,0.0,0.0,0.0,0.0,0.0,0.0,0.0015284946421161294,0.01626717485487461,0.05454273894429207,0.0,0.0,0.0,0.0,0.0,0.0,0.0,0.0,0.0
1606988877773695370,2345359,1606985277177936248,imu_link,-0.0052218190394341946,-0.005797156132757664,0.22281169891357422,-0.9748302698135376,0.0,0.0,0.0,0.0,0.0,0.0,0.0,0.0,0.0,-25.746292114257812,0.7809341549873352,0.4353450536727905,0.0,0.0,0.0,0.0,0.0,0.0,0.0,0.0,0.0,0.002030815463513136,0.005913605447858572,0.061391592025756836,0.0,0.0,0.0,0.0,0.0,0.0,0.0,0.0,0.0
1606988877775157480,2345360,1606985277178032917,imu_link,-0.0052218190394341946,-0.005797156132757664,0.22281169891357422,-0.9748302698135376,0.0,0.0,0.0,0.0,0.0,0.0,0.0,0.0,0.0,-25.746292114257812,0.7809341549873352,0.4353450536727905,0.0,0.0,0.0,0.0,0.0,0.0,0.0,0.0,0.0,0.002030815463513136,0.005913605447858572,0.061391592025756836,0.0,0.0,0.0,0.0,0.0,0.0,0.0,0.0,0.0
1606988877775200793,2345361,1606985277178118099,imu_link,-0.005223996005952358,-0.005797734949737787,0.22281117737293243,-0.9748303890228271,0.0,0.0,0.0,0.0,0.0,0.0,0.0,0.0,0.0,-25.74622917175293,0.7810541987419128,0.43557387590408325,0.0,0.0,0.0,0.0,0.0,0.0,0.0,0.0,0.0,-0.0001455825986340642,0.005432614125311375,0.04828814044594765,0.0,0.0,0.0,0.0,0.0,0.0,0.0,0.0,0.0
1606988877782337731,2345362,1606985277190884976,imu_link,-0.005223996005952358,-0.005797734949737787,0.22281117737293243,-0.9748303890228271,0.0,0.0,0.0,0.0,0.0,0.0,0.0,0.0,0.0,-25.74622917175293,0.7810541987419128,0.43557387590408325,0.0,0.0,0.0,0.0,0.0,0.0,0.0,0.0,0.0,-0.0001455825986340642,0.005432614125311375,0.04828814044594765,0.0,0.0,0.0,0.0,0.0,0.0,0.0,0.0,0.0
1606988877782358465,2345363,1606985277191054889,imu_link,-0.005223209969699383,-0.005796157754957676,0.2228177785873413,-0.9748288989067078,0.0,0.0,0.0,0.0,0.0,0.0,0.0,0.0,0.0,-25.747005462646484,0.7808608412742615,0.43552109599113464,0.0,0.0,0.0,0.0,0.0,0.0,0.0,0.0,0.0,-0.004710115026682615,0.0006183190853334963,0.04072472080588341,0.0,0.0,0.0,0.0,0.0,0.0,0.0,0.0,0.0
1606988877782377319,2345364,1606985277191142517,imu_link,-0.005223209969699383,-0.005796157754957676,0.2228177785873413,-0.9748288989067078,0.0,0.0,0.0,0.0,0.0,0.0,0.0,0.0,0.0,-25.747005462646484,0.7808608412742615,0.43552109599113464,0.0,0.0,0.0,0.0,0.0,0.0,0.0,0.0,0.0,-0.004710115026682615,0.0006183190853334963,0.04072472080588341,0.0,0.0,0.0,0.0,0.0,0.0,0.0,0.0,0.0
1606988877782394852,2345365,1606985277191215641,imu_link,-0.005225693341344595,-0.005797016900032759,0.22281712293624878,-0.9748290181159973,0.0,0.0,0.0,0.0,0.0,0.0,0.0,0.0,0.0,-25.746925354003906,0.781019926071167,0.43577712774276733,0.0,0.0,0.0,0.0,0.0,0.0,0.0,0.0,0.0,-0.00810498557984829,-0.0037392505910247564,0.04438938573002815,0.0,0.0,0.0,0.0,0.0,0.0,0.0,0.0,0.0
1606988877782421965,2345366,1606985277191293185,imu_link,-0.005225693341344595,-0.005797016900032759,0.22281712293624878,-0.9748290181159973,0.0,0.0,0.0,0.0,0.0,0.0,0.0,0.0,0.0,-25.746925354003906,0.781019926071167,0.43577712774276733,0.0,0.0,0.0,0.0,0.0,0.0,0.0,0.0,0.0,-0.00810498557984829,-0.0037392505910247564,0.04438938573002815,0.0,0.0,0.0,0.0,0.0,0.0,0.0,0.0,0.0
1606988877786135849,2345367,1606985277191370164,imu_link,-0.005227778106927872,-0.005797146819531918,0.2228257656097412,-0.9748270511627197,0.0,0.0,0.0,0.0,0.0,0.0,0.0,0.0,0.0,-25.747940063476562,0.781091570854187,0.4359997510910034,0.0,0.0,0.0,0.0,0.0,0.0,0.0,0.0,0.0,-0.0017237119609490037,-0.008618146181106567,0.054263170808553696,0.0,0.0,0.0,0.0,0.0,0.0,0.0,0.0,0.0
1606988877786150762,2345368,1606985277191487224,imu_link,-0.005227778106927872,-0.005797146819531918,0.2228257656097412,-0.9748270511627197,0.0,0.0,0.0,0.0,0.0,0.0,0.0,0.0,0.0,-25.747940063476562,0.781091570854187,0.4359997510910034,0.0,0.0,0.0,0.0,0.0,0.0,0.0,0.0,0.0,-0.0017237119609490037,-0.008618146181106567,0.054263170808553696,0.0,0.0,0.0,0.0,0.0,0.0,0.0,0.0,0.0
1606988877786171344,2345369,1606985277191577944,imu_link,-0.005229514092206955,-0.005795271601527929,0.22282616794109344,-0.974826991558075,0.0,0.0,0.0,0.0,0.0,0.0,0.0,0.0,0.0,-25.747987747192383,0.7809266448020935,0.4362412691116333,0.0,0.0,0.0,0.0,0.0,0.0,0.0,0.0,0.0,-0.005111290607601404,-0.0016802862519398332,0.06834898889064789,0.0,0.0,0.0,0.0,0.0,0.0,0.0,0.0,0.0
1606988877786178248,2345370,1606985277191665953,imu_link,-0.005229514092206955,-0.005795271601527929,0.22282616794109344,-0.974826991558075,0.0,0.0,0.0,0.0,0.0,0.0,0.0,0.0,0.0,-25.747987747192383,0.7809266448020935,0.4362412691116333,0.0,0.0,0.0,0.0,0.0,0.0,0.0,0.0,0.0,-0.005111290607601404,-0.0016802862519398332,0.06834898889064789,0.0,0.0,0.0,0.0,0.0,0.0,0.0,0.0,0.0
1606988877786855164,2345371,1606985277191750193,imu_link,-0.005230980459600687,-0.005793042480945587,0.2228233963251114,-0.9748275876045227,0.0,0.0,0.0,0.0,0.0,0.0,0.0,0.0,0.0,-25.74765968322754,0.7807137966156006,0.43646422028541565,0.0,0.0,0.0,0.0,0.0,0.0,0.0,0.0,0.0,0.003214265452697873,0.0008931301417760551,0.07640796154737473,0.0,0.0,0.0,0.0,0.0,0.0,0.0,0.0,0.0
1606988877786873989,2345372,1606985277191827206,imu_link,-0.005230980459600687,-0.005793042480945587,0.2228233963251114,-0.9748275876045227,0.0,0.0,0.0,0.0,0.0,0.0,0.0,0.0,0.0,-25.74765968322754,0.7807137966156006,0.43646422028541565,0.0,0.0,0.0,0.0,0.0,0.0,0.0,0.0,0.0,0.003214265452697873,0.0008931301417760551,0.07640796154737473,0.0,0.0,0.0,0.0,0.0,0.0,0.0,0.0,0.0
1606988877793419492,2345373,1606985277204437240,imu_link,-0.0052308570593595505,-0.005792395211756229,0.22282330691814423,-0.9748276472091675,0.0,0.0,0.0,0.0,0.0,0.0,0.0,0.0,0.0,-25.747650146484375,0.7806382775306702,0.4364669919013977,0.0,0.0,0.0,0.0,0.0,0.0,0.0,0.0,0.0,0.0018460139399394393,0.014144058339297771,0.05093184858560562,0.0,0.0,0.0,0.0,0.0,0.0,0.0,0.0,0.0
1606988877795045662,2345374,1606985277204567296,imu_link,-0.0052308570593595505,-0.005792395211756229,0.22282330691814423,-0.9748276472091675,0.0,0.0,0.0,0.0,0.0,0.0,0.0,0.0,0.0,-25.747650146484375,0.7806382775306702,0.4364669919013977,0.0,0.0,0.0,0.0,0.0,0.0,0.0,0.0,0.0,0.0018460139399394393,0.014144058339297771,0.05093184858560562,0.0,0.0,0.0,0.0,0.0,0.0,0.0,0.0,0.0
1606988877795059505,2345375,1606985277204695883,imu_link,-0.005228957161307335,-0.005792999640107155,0.22281917929649353,-0.9748286008834839,0.0,0.0,0.0,0.0,0.0,0.0,0.0,0.0,0.0,-25.74716567993164,0.7806554436683655,0.43624264001846313,0.0,0.0,0.0,0.0,0.0,0.0,0.0,0.0,0.0,-0.017752161249518394,0.013128656893968582,0.034331291913986206,0.0,0.0,0.0,0.0,0.0,0.0,0.0,0.0,0.0
1606988877795085240,2345376,1606985277204775628,imu_link,-0.005228957161307335,-0.005792999640107155,0.22281917929649353,-0.9748286008834839,0.0,0.0,0.0,0.0,0.0,0.0,0.0,0.0,0.0,-25.74716567993164,0.7806554436683655,0.43624264001846313,0.0,0.0,0.0,0.0,0.0,0.0,0.0,0.0,0.0,-0.017752161249518394,0.013128656893968582,0.034331291913986206,0.0,0.0,0.0,0.0,0.0,0.0,0.0,0.0,0.0
1606988877795098763,2345377,1606985277204855944,imu_link,-0.005229462403804064,-0.005792078096419573,0.22281721234321594,-0.9748290777206421,0.0,0.0,0.0,0.0,0.0,0.0,0.0,0.0,0.0,-25.746932983398438,0.780564546585083,0.43632420897483826,0.0,0.0,0.0,0.0,0.0,0.0,0.0,0.0,0.0,-0.006851532496511936,-0.0009387479512952268,0.06760336458683014,0.0,0.0,0.0,0.0,0.0,0.0,0.0,0.0,0.0
1606988877795109171,2345378,1606985277204969827,imu_link,-0.005229462403804064,-0.005792078096419573,0.22281721234321594,-0.9748290777206421,0.0,0.0,0.0,0.0,0.0,0.0,0.0,0.0,0.0,-25.746932983398438,0.780564546585083,0.43632420897483826,0.0,0.0,0.0,0.0,0.0,0.0,0.0,0.0,0.0,-0.006851532496511936,-0.0009387479512952268,0.06760336458683014,0.0,0.0,0.0,0.0,0.0,0.0,0.0,0.0,0.0
1606988877795119090,2345379,1606985277205078794,imu_link,-0.0052277445793151855,-0.005789442919194698,0.22280818223953247,-0.9748311638832092,0.0,0.0,0.0,0.0,0.0,0.0,0.0,0.0,0.0,-25.745874404907227,0.7802222967147827,0.43620672821998596,0.0,0.0,0.0,0.0,0.0,0.0,0.0,0.0,0.0,-0.0003868415951728821,0.011775619350373745,0.0780157521367073,0.0,0.0,0.0,0.0,0.0,0.0,0.0,0.0,0.0
1606988877795152727,2345380,1606985277205172717,imu_link,-0.0052277445793151855,-0.005789442919194698,0.22280818223953247,-0.9748311638832092,0.0,0.0,0.0,0.0,0.0,0.0,0.0,0.0,0.0,-25.745874404907227,0.7802222967147827,0.43620672821998596,0.0,0.0,0.0,0.0,0.0,0.0,0.0,0.0,0.0,-0.0003868415951728821,0.011775619350373745,0.0780157521367073,0.0,0.0,0.0,0.0,0.0,0.0,0.0,0.0,0.0
1606988877795162892,2345381,1606985277205250782,imu_link,-0.005226903595030308,-0.0057874638587236404,0.22280743718147278,-0.9748313426971436,0.0,0.0,0.0,0.0,0.0,0.0,0.0,0.0,0.0,-25.745786666870117,0.7799793481826782,0.43616390228271484,0.0,0.0,0.0,0.0,0.0,0.0,0.0,0.0,0.0,-0.013900180347263813,0.011871353723108768,0.06663545966148376,0.0,0.0,0.0,0.0,0.0,0.0,0.0,0.0,0.0
1606988877797420427,2345382,1606985277205333228,imu_link,-0.005226903595030308,-0.0057874638587236404,0.22280743718147278,-0.9748313426971436,0.0,0.0,0.0,0.0,0.0,0.0,0.0,0.0,0.0,-25.745786666870117,0.7799793481826782,0.43616390228271484,0.0,0.0,0.0,0.0,0.0,0.0,0.0,0.0,0.0,-0.013900180347263813,0.011871353723108768,0.06663545966148376,0.0,0.0,0.0,0.0,0.0,0.0,0.0,0.0,0.0
1606988877797430761,2345383,1606985277205409700,imu_link,-0.005225480534136295,-0.005787174683064222,0.2228000909090042,-0.9748330116271973,0.0,0.0,0.0,0.0,0.0,0.0,0.0,0.0,0.0,-25.74492645263672,0.7799074053764343,0.4360181987285614,0.0,0.0,0.0,0.0,0.0,0.0,0.0,0.0,0.0,-0.015594124794006348,0.014091992750763893,0.07288674265146255,0.0,0.0,0.0,0.0,0.0,0.0,0.0,0.0,0.0
1606988877806401285,2345384,1606985277217317746,imu_link,-0.005225480534136295,-0.005787174683064222,0.2228000909090042,-0.9748330116271973,0.0,0.0,0.0,0.0,0.0,0.0,0.0,0.0,0.0,-25.74492645263672,0.7799074053764343,0.4360181987285614,0.0,0.0,0.0,0.0,0.0,0.0,0.0,0.0,0.0,-0.015594124794006348,0.014091992750763893,0.07288674265146255,0.0,0.0,0.0,0.0,0.0,0.0,0.0,0.0,0.0
1606988877810021447,2345385,1606985277217441762,imu_link,-0.005225303582847118,-0.0057874638587236404,0.22279828786849976,-0.9748333692550659,0.0,0.0,0.0,0.0,0.0,0.0,0.0,0.0,0.0,-25.74471664428711,0.7799343466758728,0.4359925091266632,0.0,0.0,0.0,0.0,0.0,0.0,0.0,0.0,0.0,-0.011285561136901379,0.009520420804619789,0.07574331015348434,0.0,0.0,0.0,0.0,0.0,0.0,0.0,0.0,0.0
1606988877810044725,2345386,1606985277217608450,imu_link,-0.005225303582847118,-0.0057874638587236404,0.22279828786849976,-0.9748333692550659,0.0,0.0,0.0,0.0,0.0,0.0,0.0,0.0,0.0,-25.74471664428711,0.7799343466758728,0.4359925091266632,0.0,0.0,0.0,0.0,0.0,0.0,0.0,0.0,0.0,-0.011285561136901379,0.009520420804619789,0.07574331015348434,0.0,0.0,0.0,0.0,0.0,0.0,0.0,0.0,0.0
1606988877810061000,2345387,1606985277217697839,imu_link,-0.005223741754889488,-0.005787622183561325,0.222796231508255,-0.9748339056968689,0.0,0.0,0.0,0.0,0.0,0.0,0.0,0.0,0.0,-25.74447250366211,0.7799112796783447,0.43581560254096985,0.0,0.0,0.0,0.0,0.0,0.0,0.0,0.0,0.0,-0.005951263010501862,-0.0014346882235258818,0.08403417468070984,0.0,0.0,0.0,0.0,0.0,0.0,0.0,0.0,0.0
1606988877810095400,2345388,1606985277217763787,imu_link,-0.005223741754889488,-0.005787622183561325,0.222796231508255,-0.9748339056968689,0.0,0.0,0.0,0.0,0.0,0.0,0.0,0.0,0.0,-25.74447250366211,0.7799112796783447,0.43581560254096985,0.0,0.0,0.0,0.0,0.0,0.0,0.0,0.0,0.0,-0.005951263010501862,-0.0014346882235258818,0.08403417468070984,0.0,0.0,0.0,0.0,0.0,0.0,0.0,0.0,0.0
1606988877810106419,2345389,1606985277217860073,imu_link,-0.005222798325121403,-0.005788939073681831,0.22279606759548187,-0.9748339056968689,0.0,0.0,0.0,0.0,0.0,0.0,0.0,0.0,0.0,-25.744455337524414,0.7800342440605164,0.4356767237186432,0.0,0.0,0.0,0.0,0.0,0.0,0.0,0.0,0.0,0.0020355097949504852,-1.5808444004505873e-05,0.07542495429515839,0.0,0.0,0.0,0.0,0.0,0.0,0.0,0.0,0.0
1606988877810130689,2345390,1606985277217958121,imu_link,-0.005222798325121403,-0.005788939073681831,0.22279606759548187,-0.9748339056968689,0.0,0.0,0.0,0.0,0.0,0.0,0.0,0.0,0.0,-25.744455337524414,0.7800342440605164,0.4356767237186432,0.0,0.0,0.0,0.0,0.0,0.0,0.0,0.0,0.0,0.0020355097949504852,-1.5808444004505873e-05,0.07542495429515839,0.0,0.0,0.0,0.0,0.0,0.0,0.0,0.0,0.0
1606988877810141710,2345391,1606985277218042811,imu_link,-0.005221877712756395,-0.00578802265226841,0.22279904782772064,-0.9748332500457764,0.0,0.0,0.0,0.0,0.0,0.0,0.0,0.0,0.0,-25.74480438232422,0.7799096703529358,0.4355948567390442,0.0,0.0,0.0,0.0,0.0,0.0,0.0,0.0,0.0,-0.004372530151158571,0.011164067313075066,0.05361694097518921,0.0,0.0,0.0,0.0,0.0,0.0,0.0,0.0,0.0
1606988877810158039,2345392,1606985277218119847,imu_link,-0.005221877712756395,-0.00578802265226841,0.22279904782772064,-0.9748332500457764,0.0,0.0,0.0,0.0,0.0,0.0,0.0,0.0,0.0,-25.74480438232422,0.7799096703529358,0.4355948567390442,0.0,0.0,0.0,0.0,0.0,0.0,0.0,0.0,0.0,-0.004372530151158571,0.011164067313075066,0.05361694097518921,0.0,0.0,0.0,0.0,0.0,0.0,0.0,0.0,0.0
1606988877810169908,2345393,1606985277218188361,imu_link,-0.005223944783210754,-0.005788981914520264,0.2227974832057953,-0.9748335480690002,0.0,0.0,0.0,0.0,0.0,0.0,0.0,0.0,0.0,-25.74462127685547,0.7800689339637756,0.4358026087284088,0.0,0.0,0.0,0.0,0.0,0.0,0.0,0.0,0.0,-0.016401780769228935,0.02757956273853779,0.06484906375408173,0.0,0.0,0.0,0.0,0.0,0.0,0.0,0.0,0.0
1606988877821913764,2345394,1606985277231112685,imu_link,-0.005223944783210754,-0.005788981914520264,0.2227974832057953,-0.9748335480690002,0.0,0.0,0.0,0.0,0.0,0.0,0.0,0.0,0.0,-25.74462127685547,0.7800689339637756,0.4358026087284088,0.0,0.0,0.0,0.0,0.0,0.0,0.0,0.0,0.0,-0.016401780769228935,0.02757956273853779,0.06484906375408173,0.0,0.0,0.0,0.0,0.0,0.0,0.0,0.0,0.0
1606988877821954100,2345395,1606985277231254618,imu_link,-0.005217534489929676,-0.005788469221442938,0.22279910743236542,-0.9748332500457764,0.0,0.0,0.0,0.0,0.0,0.0,0.0,0.0,0.0,-25.744815826416016,0.7798486948013306,0.43509820103645325,0.0,0.0,0.0,0.0,0.0,0.0,0.0,0.0,0.0,-0.00787264108657837,0.02509329840540886,0.07873810082674026,0.0,0.0,0.0,0.0,0.0,0.0,0.0,0.0,0.0
1606988877821983519,2345396,1606985277231437451,imu_link,-0.005217534489929676,-0.005788469221442938,0.22279910743236542,-0.9748332500457764,0.0,0.0,0.0,0.0,0.0,0.0,0.0,0.0,0.0,-25.744815826416016,0.7798486948013306,0.43509820103645325,0.0,0.0,0.0,0.0,0.0,0.0,0.0,0.0,0.0,-0.00787264108657837,0.02509329840540886,0.07873810082674026,0.0,0.0,0.0,0.0,0.0,0.0,0.0,0.0,0.0
1606988877821991459,2345397,1606985277231549501,imu_link,-0.005216503515839577,-0.005788681097328663,0.22279895842075348,-0.9748333096504211,0.0,0.0,0.0,0.0,0.0,0.0,0.0,0.0,0.0,-25.74479866027832,0.7798460125923157,0.4349777400493622,0.0,0.0,0.0,0.0,0.0,0.0,0.0,0.0,0.0,0.012575923465192318,0.013186533935368061,0.07570377737283707,0.0,0.0,0.0,0.0,0.0,0.0,0.0,0.0,0.0
1606988877822025141,2345398,1606985277231635785,imu_link,-0.005216503515839577,-0.005788681097328663,0.22279895842075348,-0.9748333096504211,0.0,0.0,0.0,0.0,0.0,0.0,0.0,0.0,0.0,-25.74479866027832,0.7798460125923157,0.4349777400493622,0.0,0.0,0.0,0.0,0.0,0.0,0.0,0.0,0.0,0.012575923465192318,0.013186533935368061,0.07570377737283707,0.0,0.0,0.0,0.0,0.0,0.0,0.0,0.0,0.0
1606988877826424879,2345399,1606985277231721068,imu_link,-0.005215135402977467,-0.005790754687041044,0.22279979288578033,-0.9748331308364868,0.0,0.0,0.0,0.0,0.0,0.0,0.0,0.0,0.0,-25.744895935058594,0.7800431251525879,0.434771329164505,0.0,0.0,0.0,0.0,0.0,0.0,0.0,0.0,0.0,0.015588550828397274,0.01895296946167946,0.06573021411895752,0.0,0.0,0.0,0.0,0.0,0.0,0.0,0.0,0.0
1606988877826504106,2345400,1606985277231850447,imu_link,-0.005215135402977467,-0.005790754687041044,0.22279979288578033,-0.9748331308364868,0.0,0.0,0.0,0.0,0.0,0.0,0.0,0.0,0.0,-25.744895935058594,0.7800431251525879,0.434771329164505,0.0,0.0,0.0,0.0,0.0,0.0,0.0,0.0,0.0,0.015588550828397274,0.01895296946167946,0.06573021411895752,0.0,0.0,0.0,0.0,0.0,0.0,0.0,0.0,0.0
1606988877826522947,2345401,1606985277231937358,imu_link,-0.005215352401137352,-0.005791889503598213,0.22279608249664307,-0.9748339653015137,0.0,0.0,0.0,0.0,0.0,0.0,0.0,0.0,0.0,-25.744461059570312,0.7801737785339355,0.43476951122283936,0.0,0.0,0.0,0.0,0.0,0.0,0.0,0.0,0.0,0.013067647814750671,0.013748104684054852,0.0480082705616951,0.0,0.0,0.0,0.0,0.0,0.0,0.0,0.0,0.0
1606988877826545772,2345402,1606985277232020105,imu_link,-0.005215352401137352,-0.005791889503598213,0.22279608249664307,-0.9748339653015137,0.0,0.0,0.0,0.0,0.0,0.0,0.0,0.0,0.0,-25.744461059570312,0.7801737785339355,0.43476951122283936,0.0,0.0,0.0,0.0,0.0,0.0,0.0,0.0,0.0,0.013067647814750671,0.013748104684054852,0.0480082705616951,0.0,0.0,0.0,0.0,0.0,0.0,0.0,0.0,0.0
1606988877826573421,2345403,1606985277232110499,imu_link,-0.005213574972003698,-0.005793317686766386,0.2227969765663147,-0.9748337268829346,0.0,0.0,0.0,0.0,0.0,0.0,0.0,0.0,0.0,-25.74456787109375,0.7802883386611938,0.4345337748527527,0.0,0.0,0.0,0.0,0.0,0.0,0.0,0.0,0.0,0.010131136514246464,-0.005495707504451275,0.06028657406568527,0.0,0.0,0.0,0.0,0.0,0.0,0.0,0.0,0.0
1606988877826591393,2345404,1606985277232195320,imu_link,-0.005213574972003698,-0.005793317686766386,0.2227969765663147,-0.9748337268829346,0.0,0.0,0.0,0.0,0.0,0.0,0.0,0.0,0.0,-25.74456787109375,0.7802883386611938,0.4345337748527527,0.0,0.0,0.0,0.0,0.0,0.0,0.0,0.0,0.0,0.010131136514246464,-0.005495707504451275,0.06028657406568527,0.0,0.0,0.0,0.0,0.0,0.0,0.0,0.0,0.0
1606988877834569676,2345405,1606985277244521321,imu_link,-0.005213527008891106,-0.0057920655235648155,0.2227981984615326,-0.9748334884643555,0.0,0.0,0.0,0.0,0.0,0.0,0.0,0.0,0.0,-25.74471092224121,0.7801477909088135,0.4345594644546509,0.0,0.0,0.0,0.0,0.0,0.0,0.0,0.0,0.0,0.004667278379201889,-0.005799475125968456,0.0691867545247078,0.0,0.0,0.0,0.0,0.0,0.0,0.0,0.0,0.0
1606988877834587796,2345406,1606985277244663455,imu_link,-0.005213527008891106,-0.0057920655235648155,0.2227981984615326,-0.9748334884643555,0.0,0.0,0.0,0.0,0.0,0.0,0.0,0.0,0.0,-25.74471092224121,0.7801477909088135,0.4345594644546509,0.0,0.0,0.0,0.0,0.0,0.0,0.0,0.0,0.0,0.004667278379201889,-0.005799475125968456,0.0691867545247078,0.0,0.0,0.0,0.0,0.0,0.0,0.0,0.0,0.0
1606988877834596756,2345407,1606985277244844199,imu_link,-0.005213326308876276,-0.005795383360236883,0.22279836237430573,-0.9748334288597107,0.0,0.0,0.0,0.0,0.0,0.0,0.0,0.0,0.0,-25.74472999572754,0.7805134057998657,0.4344521760940552,0.0,0.0,0.0,0.0,0.0,0.0,0.0,0.0,0.0,0.001164369285106659,0.00043415988329797983,0.06194503977894783,0.0,0.0,0.0,0.0,0.0,0.0,0.0,0.0,0.0
1606988877834605134,2345408,1606985277244929175,imu_link,-0.005213326308876276,-0.005795383360236883,0.22279836237430573,-0.9748334288597107,0.0,0.0,0.0,0.0,0.0,0.0,0.0,0.0,0.0,-25.74472999572754,0.7805134057998657,0.4344521760940552,0.0,0.0,0.0,0.0,0.0,0.0,0.0,0.0,0.0,0.001164369285106659,0.00043415988329797983,0.06194503977894783,0.0,0.0,0.0,0.0,0.0,0.0,0.0,0.0,0.0
1606988877834624065,2345409,1606985277245003587,imu_link,-0.00521447230130434,-0.005793694406747818,0.22279737889766693,-0.9748336672782898,0.0,0.0,0.0,0.0,0.0,0.0,0.0,0.0,0.0,-25.744613647460938,0.7803535461425781,0.4346241354942322,0.0,0.0,0.0,0.0,0.0,0.0,0.0,0.0,0.0,-0.012678362429141998,-0.01589561253786087,0.05121411755681038,0.0,0.0,0.0,0.0,0.0,0.0,0.0,0.0,0.0
1606988877837625931,2345410,1606985277245098066,imu_link,-0.00521447230130434,-0.005793694406747818,0.22279737889766693,-0.9748336672782898,0.0,0.0,0.0,0.0,0.0,0.0,0.0,0.0,0.0,-25.744613647460938,0.7803535461425781,0.4346241354942322,0.0,0.0,0.0,0.0,0.0,0.0,0.0,0.0,0.0,-0.012678362429141998,-0.01589561253786087,0.05121411755681038,0.0,0.0,0.0,0.0,0.0,0.0,0.0,0.0,0.0
1606988877837648631,2345411,1606985277245203961,imu_link,-0.005217762663960457,-0.005791553296148777,0.22280332446098328,-0.97483229637146,0.0,0.0,0.0,0.0,0.0,0.0,0.0,0.0,0.0,-25.745309829711914,0.7802010178565979,0.435041606426239,0.0,0.0,0.0,0.0,0.0,0.0,0.0,0.0,0.0,-0.00912786927074194,-0.022851115092635155,0.046258438378572464,0.0,0.0,0.0,0.0,0.0,0.0,0.0,0.0,0.0
1606988877837672213,2345412,1606985277245293584,imu_link,-0.005217762663960457,-0.005791553296148777,0.22280332446098328,-0.97483229637146,0.0,0.0,0.0,0.0,0.0,0.0,0.0,0.0,0.0,-25.745309829711914,0.7802010178565979,0.435041606426239,0.0,0.0,0.0,0.0,0.0,0.0,0.0,0.0,0.0,-0.00912786927074194,-0.022851115092635155,0.046258438378572464,0.0,0.0,0.0,0.0,0.0,0.0,0.0,0.0,0.0
1606988877837681856,2345413,1606985277245377408,imu_link,-0.005218232981860638,-0.005792888347059488,0.22280187904834747,-0.9748325943946838,0.0,0.0,0.0,0.0,0.0,0.0,0.0,0.0,0.0,-25.74513816833496,0.7803614735603333,0.4350612163543701,0.0,0.0,0.0,0.0,0.0,0.0,0.0,0.0,0.0,0.007676237262785435,-0.0002023203414864838,0.05322267860174179,0.0,0.0,0.0,0.0,0.0,0.0,0.0,0.0,0.0
1606988877837686660,2345414,1606985277245458094,imu_link,-0.005218232981860638,-0.005792888347059488,0.22280187904834747,-0.9748325943946838,0.0,0.0,0.0,0.0,0.0,0.0,0.0,0.0,0.0,-25.74513816833496,0.7803614735603333,0.4350612163543701,0.0,0.0,0.0,0.0,0.0,0.0,0.0,0.0,0.0,0.007676237262785435,-0.0002023203414864838,0.05322267860174179,0.0,0.0,0.0,0.0,0.0,0.0,0.0,0.0,0.0
1606988877837716065,2345415,1606985277245541412,imu_link,-0.005217715632170439,-0.005794154945760965,0.22280894219875336,-0.9748309850692749,0.0,0.0,0.0,0.0,0.0,0.0,0.0,0.0,0.0,-25.745967864990234,0.780492901802063,0.43496543169021606,0.0,0.0,0.0,0.0,0.0,0.0,0.0,0.0,0.0,0.0021882280707359314,0.002354379277676344,0.0342024601995945,0.0,0.0,0.0,0.0,0.0,0.0,0.0,0.0,0.0
1606988877849177939,2345416,1606985277258407383,imu_link,-0.005217715632170439,-0.005794154945760965,0.22280894219875336,-0.9748309850692749,0.0,0.0,0.0,0.0,0.0,0.0,0.0,0.0,0.0,-25.745967864990234,0.780492901802063,0.43496543169021606,0.0,0.0,0.0,0.0,0.0,0.0,0.0,0.0,0.0,0.0021882280707359314,0.002354379277676344,0.0342024601995945,0.0,0.0,0.0,0.0,0.0,0.0,0.0,0.0,0.0
1606988877852338891,2345417,1606985277258550484,imu_link,-0.0052191163413226604,-0.005795841105282307,0.2228088527917862,-0.9748309850692749,0.0,0.0,0.0,0.0,0.0,0.0,0.0,0.0,0.0,-25.745960235595703,0.7807170748710632,0.43507900834083557,0.0,0.0,0.0,0.0,0.0,0.0,0.0,0.0,0.0,-0.01275388989597559,0.008436162956058979,0.014970325864851475,0.0,0.0,0.0,0.0,0.0,0.0,0.0,0.0,0.0
1606988877852357857,2345418,1606985277258737878,imu_link,-0.0052191163413226604,-0.005795841105282307,0.2228088527917862,-0.9748309850692749,0.0,0.0,0.0,0.0,0.0,0.0,0.0,0.0,0.0,-25.745960235595703,0.7807170748710632,0.43507900834083557,0.0,0.0,0.0,0.0,0.0,0.0,0.0,0.0,0.0,-0.01275388989597559,0.008436162956058979,0.014970325864851475,0.0,0.0,0.0,0.0,0.0,0.0,0.0,0.0,0.0
1606988877852364519,2345419,1606985277258846279,imu_link,-0.005217193625867367,-0.005794218275696039,0.22281797230243683,-0.9748288989067078,0.0,0.0,0.0,0.0,0.0,0.0,0.0,0.0,0.0,-25.747034072875977,0.7804906964302063,0.4348982572555542,0.0,0.0,0.0,0.0,0.0,0.0,0.0,0.0,0.0,-0.010988431051373482,0.01865309476852417,0.056089166551828384,0.0,0.0,0.0,0.0,0.0,0.0,0.0,0.0,0.0
1606988877852385028,2345420,1606985277258924660,imu_link,-0.005217193625867367,-0.005794218275696039,0.22281797230243683,-0.9748288989067078,0.0,0.0,0.0,0.0,0.0,0.0,0.0,0.0,0.0,-25.747034072875977,0.7804906964302063,0.4348982572555542,0.0,0.0,0.0,0.0,0.0,0.0,0.0,0.0,0.0,-0.010988431051373482,0.01865309476852417,0.056089166551828384,0.0,0.0,0.0,0.0,0.0,0.0,0.0,0.0,0.0
1606988877852623124,2345421,1606985277259095140,imu_link,-0.005217861849814653,-0.005794736556708813,0.2228185534477234,-0.9748287796974182,0.0,0.0,0.0,0.0,0.0,0.0,0.0,0.0,0.0,-25.747100830078125,0.7805659174919128,0.4349592328071594,0.0,0.0,0.0,0.0,0.0,0.0,0.0,0.0,0.0,0.00981824193149805,0.012249995023012161,0.08352413773536682,0.0,0.0,0.0,0.0,0.0,0.0,0.0,0.0,0.0
1606988877852666007,2345422,1606985277259196720,imu_link,-0.005217861849814653,-0.005794736556708813,0.2228185534477234,-0.9748287796974182,0.0,0.0,0.0,0.0,0.0,0.0,0.0,0.0,0.0,-25.747100830078125,0.7805659174919128,0.4349592328071594,0.0,0.0,0.0,0.0,0.0,0.0,0.0,0.0,0.0,0.00981824193149805,0.012249995023012161,0.08352413773536682,0.0,0.0,0.0,0.0,0.0,0.0,0.0,0.0,0.0
1606988877852694870,2345423,1606985277259324606,imu_link,-0.005218365229666233,-0.005796606652438641,0.22282633185386658,-0.974826991558075,0.0,0.0,0.0,0.0,0.0,0.0,0.0,0.0,0.0,-25.748014450073242,0.780791163444519,0.4349614679813385,0.0,0.0,0.0,0.0,0.0,0.0,0.0,0.0,0.0,0.014706529676914215,0.008826838806271553,0.06355380266904831,0.0,0.0,0.0,0.0,0.0,0.0,0.0,0.0,0.0
1606988877852739564,2345424,1606985277259416598,imu_link,-0.005218365229666233,-0.005796606652438641,0.22282633185386658,-0.974826991558075,0.0,0.0,0.0,0.0,0.0,0.0,0.0,0.0,0.0,-25.748014450073242,0.780791163444519,0.4349614679813385,0.0,0.0,0.0,0.0,0.0,0.0,0.0,0.0,0.0,0.014706529676914215,0.008826838806271553,0.06355380266904831,0.0,0.0,0.0,0.0,0.0,0.0,0.0,0.0,0.0
1606988877852756105,2345425,1606985277259492995,imu_link,-0.005217940080910921,-0.005796539131551981,0.22282633185386658,-0.974826991558075,0.0,0.0,0.0,0.0,0.0,0.0,0.0,0.0,0.0,-25.748014450073242,0.7807727456092834,0.4349157214164734,0.0,0.0,0.0,0.0,0.0,0.0,0.0,0.0,0.0,0.0013242348795756698,0.00804832298308611,0.04796694591641426,0.0,0.0,0.0,0.0,0.0,0.0,0.0,0.0,0.0
1606988877852769221,2345426,1606985277259578042,imu_link,-0.005217940080910921,-0.005796539131551981,0.22282633185386658,-0.974826991558075,0.0,0.0,0.0,0.0,0.0,0.0,0.0,0.0,0.0,-25.748014450073242,0.7807727456092834,0.4349157214164734,0.0,0.0,0.0,0.0,0.0,0.0,0.0,0.0,0.0,0.0013242348795756698,0.00804832298308611,0.04796694591641426,0.0,0.0,0.0,0.0,0.0,0.0,0.0,0.0,0.0
1606988877872921124,2345427,1606985277271208769,imu_link,-0.005215968005359173,-0.005796352867037058,0.22282229363918304,-0.9748278856277466,0.0,0.0,0.0,0.0,0.0,0.0,0.0,0.0,0.0,-25.747543334960938,0.7806997895240784,0.43470335006713867,0.0,0.0,0.0,0.0,0.0,0.0,0.0,0.0,0.0,-0.00813685730099678,-0.006748323328793049,0.03801849111914635,0.0,0.0,0.0,0.0,0.0,0.0,0.0,0.0,0.0
1606988877872952346,2345428,1606985277271355429,imu_link,-0.005215968005359173,-0.005796352867037058,0.22282229363918304,-0.9748278856277466,0.0,0.0,0.0,0.0,0.0,0.0,0.0,0.0,0.0,-25.747543334960938,0.7806997895240784,0.43470335006713867,0.0,0.0,0.0,0.0,0.0,0.0,0.0,0.0,0.0,-0.00813685730099678,-0.006748323328793049,0.03801849111914635,0.0,0.0,0.0,0.0,0.0,0.0,0.0,0.0,0.0
1606988877872965073,2345429,1606985277271530644,imu_link,-0.0052167559042572975,-0.005793409887701273,0.22282284498214722,-0.9748278260231018,0.0,0.0,0.0,0.0,0.0,0.0,0.0,0.0,0.0,-25.74760627746582,0.7803914546966553,0.4348661005496979,0.0,0.0,0.0,0.0,0.0,0.0,0.0,0.0,0.0,0.005453419405966997,-0.017090464010834694,0.03496965765953064,0.0,0.0,0.0,0.0,0.0,0.0,0.0,0.0,0.0
1606988877873012691,2345430,1606985277271629202,imu_link,-0.0052167559042572975,-0.005793409887701273,0.22282284498214722,-0.9748278260231018,0.0,0.0,0.0,0.0,0.0,0.0,0.0,0.0,0.0,-25.74760627746582,0.7803914546966553,0.4348661005496979,0.0,0.0,0.0,0.0,0.0,0.0,0.0,0.0,0.0,0.005453419405966997,-0.017090464010834694,0.03496965765953064,0.0,0.0,0.0,0.0,0.0,0.0,0.0,0.0,0.0
1606988877873032937,2345431,1606985277271703780,imu_link,-0.005219577811658382,-0.005792250391095877,0.2228163182735443,-0.9748293161392212,0.0,0.0,0.0,0.0,0.0,0.0,0.0,0.0,0.0,-25.746837615966797,0.780331015586853,0.4352162182331085,0.0,0.0,0.0,0.0,0.0,0.0,0.0,0.0,0.0,0.01960226520895958,-0.00926188938319683,0.04879848286509514,0.0,0.0,0.0,0.0,0.0,0.0,0.0,0.0,0.0
1606988877875471095,2345432,1606985277271811609,imu_link,-0.005219577811658382,-0.005792250391095877,0.2228163182735443,-0.9748293161392212,0.0,0.0,0.0,0.0,0.0,0.0,0.0,0.0,0.0,-25.746837615966797,0.780331015586853,0.4352162182331085,0.0,0.0,0.0,0.0,0.0,0.0,0.0,0.0,0.0,0.01960226520895958,-0.00926188938319683,0.04879848286509514,0.0,0.0,0.0,0.0,0.0,0.0,0.0,0.0,0.0
1606988877875504648,2345433,1606985277271898896,imu_link,-0.005219085607677698,-0.005791311152279377,0.22281646728515625,-0.9748293161392212,0.0,0.0,0.0,0.0,0.0,0.0,0.0,0.0,0.0,-25.746854782104492,0.7802136540412903,0.4351849853992462,0.0,0.0,0.0,0.0,0.0,0.0,0.0,0.0,0.0,0.01216824073344469,0.009236276149749756,0.06256787478923798,0.0,0.0,0.0,0.0,0.0,0.0,0.0,0.0,0.0
1606988877875522589,2345434,1606985277271975925,imu_link,-0.005219085607677698,-0.005791311152279377,0.22281646728515625,-0.9748293161392212,0.0,0.0,0.0,0.0,0.0,0.0,0.0,0.0,0.0,-25.746854782104492,0.7802136540412903,0.4351849853992462,0.0,0.0,0.0,0.0,0.0,0.0,0.0,0.0,0.0,0.01216824073344469,0.009236276149749756,0.06256787478923798,0.0,0.0,0.0,0.0,0.0,0.0,0.0,0.0,0.0
1606988877875537256,2345435,1606985277272090846,imu_link,-0.005219087935984135,-0.0057933637872338295,0.22281934320926666,-0.9748286008834839,0.0,0.0,0.0,0.0,0.0,0.0,0.0,0.0,0.0,-25.7471923828125,0.7804442048072815,0.4351305663585663,0.0,0.0,0.0,0.0,0.0,0.0,0.0,0.0,0.0,-0.006367557216435671,0.00800629798322916,0.04409020394086838,0.0,0.0,0.0,0.0,0.0,0.0,0.0,0.0,0.0
1606988877875551641,2345436,1606985277272174609,imu_link,-0.005219087935984135,-0.0057933637872338295,0.22281934320926666,-0.9748286008834839,0.0,0.0,0.0,0.0,0.0,0.0,0.0,0.0,0.0,-25.7471923828125,0.7804442048072815,0.4351305663585663,0.0,0.0,0.0,0.0,0.0,0.0,0.0,0.0,0.0,-0.006367557216435671,0.00800629798322916,0.04409020394086838,0.0,0.0,0.0,0.0,0.0,0.0,0.0,0.0,0.0
1606988877875581468,2345437,1606985277284692941,imu_link,-0.0052175382152199745,-0.005791072733700275,0.22281917929649353,-0.9748286604881287,0.0,0.0,0.0,0.0,0.0,0.0,0.0,0.0,0.0,-25.747173309326172,0.7801486253738403,0.43501612544059753,0.0,0.0,0.0,0.0,0.0,0.0,0.0,0.0,0.0,-0.019164539873600006,-0.0018029839266091585,0.02393893152475357,0.0,0.0,0.0,0.0,0.0,0.0,0.0,0.0,0.0
1606988877875597259,2345438,1606985277284848270,imu_link,-0.0052175382152199745,-0.005791072733700275,0.22281917929649353,-0.9748286604881287,0.0,0.0,0.0,0.0,0.0,0.0,0.0,0.0,0.0,-25.747173309326172,0.7801486253738403,0.43501612544059753,0.0,0.0,0.0,0.0,0.0,0.0,0.0,0.0,0.0,-0.019164539873600006,-0.0018029839266091585,0.02393893152475357,0.0,0.0,0.0,0.0,0.0,0.0,0.0,0.0,0.0
1606988877875646365,2345439,1606985277285004341,imu_link,-0.005216282792389393,-0.005787190981209278,0.22282198071479797,-0.9748280644416809,0.0,0.0,0.0,0.0,0.0,0.0,0.0,0.0,0.0,-25.747507095336914,0.7796842455863953,0.43497270345687866,0.0,0.0,0.0,0.0,0.0,0.0,0.0,0.0,0.0,-0.0041343048214912415,0.006662007886916399,0.04046357795596123,0.0,0.0,0.0,0.0,0.0,0.0,0.0,0.0,0.0
1606988877875677179,2345440,1606985277285101631,imu_link,-0.005216282792389393,-0.005787190981209278,0.22282198071479797,-0.9748280644416809,0.0,0.0,0.0,0.0,0.0,0.0,0.0,0.0,0.0,-25.747507095336914,0.7796842455863953,0.43497270345687866,0.0,0.0,0.0,0.0,0.0,0.0,0.0,0.0,0.0,-0.0041343048214912415,0.006662007886916399,0.04046357795596123,0.0,0.0,0.0,0.0,0.0,0.0,0.0,0.0,0.0
1606988877879558815,2345441,1606985277285240052,imu_link,-0.005217303521931171,-0.0057881614193320274,0.22281984984874725,-0.9748285412788391,0.0,0.0,0.0,0.0,0.0,0.0,0.0,0.0,0.0,-25.747251510620117,0.7798177003860474,0.4350636601448059,0.0,0.0,0.0,0.0,0.0,0.0,0.0,0.0,0.0,-0.0007401825860142708,-0.002362769329920411,0.04621804878115654,0.0,0.0,0.0,0.0,0.0,0.0,0.0,0.0,0.0
1606988877879584166,2345442,1606985277285357113,imu_link,-0.005217303521931171,-0.0057881614193320274,0.22281984984874725,-0.9748285412788391,0.0,0.0,0.0,0.0,0.0,0.0,0.0,0.0,0.0,-25.747251510620117,0.7798177003860474,0.4350636601448059,0.0,0.0,0.0,0.0,0.0,0.0,0.0,0.0,0.0,-0.0007401825860142708,-0.002362769329920411,0.04621804878115654,0.0,0.0,0.0,0.0,0.0,0.0,0.0,0.0,0.0
1606988877879599925,2345443,1606985277285474149,imu_link,-0.005216899327933788,-0.005790221504867077,0.22282123565673828,-0.9748282432556152,0.0,0.0,0.0,0.0,0.0,0.0,0.0,0.0,0.0,-25.747417449951172,0.7800381779670715,0.4349648058414459,0.0,0.0,0.0,0.0,0.0,0.0,0.0,0.0,0.0,-0.00621807761490345,-0.012552856467664242,0.030256280675530434,0.0,0.0,0.0,0.0,0.0,0.0,0.0,0.0,0.0
1606988877879618488,2345444,1606985277285591670,imu_link,-0.005216899327933788,-0.005790221504867077,0.22282123565673828,-0.9748282432556152,0.0,0.0,0.0,0.0,0.0,0.0,0.0,0.0,0.0,-25.747417449951172,0.7800381779670715,0.4349648058414459,0.0,0.0,0.0,0.0,0.0,0.0,0.0,0.0,0.0,-0.00621807761490345,-0.012552856467664242,0.030256280675530434,0.0,0.0,0.0,0.0,0.0,0.0,0.0,0.0,0.0
1606988877881152002,2345445,1606985277285685062,imu_link,-0.005217697471380234,-0.005789807997643948,0.22281958162784576,-0.9748286008834839,0.0,0.0,0.0,0.0,0.0,0.0,0.0,0.0,0.0,-25.747222900390625,0.7800115942955017,0.4350658357143402,0.0,0.0,0.0,0.0,0.0,0.0,0.0,0.0,0.0,0.001990815857425332,-0.007129243575036526,0.031085148453712463,0.0,0.0,0.0,0.0,0.0,0.0,0.0,0.0,0.0
1606988877881173782,2345446,1606985277285766350,imu_link,-0.005217697471380234,-0.005789807997643948,0.22281958162784576,-0.9748286008834839,0.0,0.0,0.0,0.0,0.0,0.0,0.0,0.0,0.0,-25.747222900390625,0.7800115942955017,0.4350658357143402,0.0,0.0,0.0,0.0,0.0,0.0,0.0,0.0,0.0,0.001990815857425332,-0.007129243575036526,0.031085148453712463,0.0,0.0,0.0,0.0,0.0,0.0,0.0,0.0,0.0
1606988877881184071,2345447,1606985277285850730,imu_link,-0.005219796672463417,-0.00578968646004796,0.2228202372789383,-0.9748283624649048,0.0,0.0,0.0,0.0,0.0,0.0,0.0,0.0,0.0,-25.747299194335938,0.7800519466400146,0.4353029727935791,0.0,0.0,0.0,0.0,0.0,0.0,0.0,0.0,0.0,0.01671103946864605,-0.001590263331308961,0.056709714233875275,0.0,0.0,0.0,0.0,0.0,0.0,0.0,0.0,0.0
1606988877888853428,2345448,1606985277298510819,imu_link,-0.005219796672463417,-0.00578968646004796,0.2228202372789383,-0.9748283624649048,0.0,0.0,0.0,0.0,0.0,0.0,0.0,0.0,0.0,-25.747299194335938,0.7800519466400146,0.4353029727935791,0.0,0.0,0.0,0.0,0.0,0.0,0.0,0.0,0.0,0.01671103946864605,-0.001590263331308961,0.056709714233875275,0.0,0.0,0.0,0.0,0.0,0.0,0.0,0.0,0.0
1606988877888877165,2345449,1606985277298658145,imu_link,-0.005219019949436188,-0.0057899621315300465,0.22282174229621887,-0.9748281240463257,0.0,0.0,0.0,0.0,0.0,0.0,0.0,0.0,0.0,-25.747474670410156,0.7800635695457458,0.43520796298980713,0.0,0.0,0.0,0.0,0.0,0.0,0.0,0.0,0.0,0.011035576462745667,0.003164992667734623,0.07511130720376968,0.0,0.0,0.0,0.0,0.0,0.0,0.0,0.0,0.0
1606988877888902760,2345450,1606985277298815464,imu_link,-0.005219019949436188,-0.0057899621315300465,0.22282174229621887,-0.9748281240463257,0.0,0.0,0.0,0.0,0.0,0.0,0.0,0.0,0.0,-25.747474670410156,0.7800635695457458,0.43520796298980713,0.0,0.0,0.0,0.0,0.0,0.0,0.0,0.0,0.0,0.011035576462745667,0.003164992667734623,0.07511130720376968,0.0,0.0,0.0,0.0,0.0,0.0,0.0,0.0,0.0
1606988877888913127,2345451,1606985277298911867,imu_link,-0.0052201454527676105,-0.005795384291559458,0.22282013297080994,-0.9748284220695496,0.0,0.0,0.0,0.0,0.0,0.0,0.0,0.0,0.0,-25.747283935546875,0.7806972861289978,0.43519651889801025,0.0,0.0,0.0,0.0,0.0,0.0,0.0,0.0,0.0,-0.013915753923356533,-0.00012668411363847554,0.06045237556099892,0.0,0.0,0.0,0.0,0.0,0.0,0.0,0.0,0.0
1606988877888924274,2345452,1606985277299039543,imu_link,-0.0052201454527676105,-0.005795384291559458,0.22282013297080994,-0.9748284220695496,0.0,0.0,0.0,0.0,0.0,0.0,0.0,0.0,0.0,-25.747283935546875,0.7806972861289978,0.43519651889801025,0.0,0.0,0.0,0.0,0.0,0.0,0.0,0.0,0.0,-0.013915753923356533,-0.00012668411363847554,0.06045237556099892,0.0,0.0,0.0,0.0,0.0,0.0,0.0,0.0,0.0
1606988877889663286,2345453,1606985277299130458,imu_link,-0.005220033694058657,-0.005795967765152454,0.22281816601753235,-0.9748287796974182,0.0,0.0,0.0,0.0,0.0,0.0,0.0,0.0,0.0,-25.747053146362305,0.7807587385177612,0.4351707398891449,0.0,0.0,0.0,0.0,0.0,0.0,0.0,0.0,0.0,-0.01649421453475952,-0.009456868283450603,0.05332988128066063,0.0,0.0,0.0,0.0,0.0,0.0,0.0,0.0,0.0
1606988877889679002,2345454,1606985277299241375,imu_link,-0.005220033694058657,-0.005795967765152454,0.22281816601753235,-0.9748287796974182,0.0,0.0,0.0,0.0,0.0,0.0,0.0,0.0,0.0,-25.747053146362305,0.7807587385177612,0.4351707398891449,0.0,0.0,0.0,0.0,0.0,0.0,0.0,0.0,0.0,-0.01649421453475952,-0.009456868283450603,0.05332988128066063,0.0,0.0,0.0,0.0,0.0,0.0,0.0,0.0,0.0
1606988877889691592,2345455,1606985277299328522,imu_link,-0.005220899824053049,-0.005792044103145599,0.2228187769651413,-0.9748286604881287,0.0,0.0,0.0,0.0,0.0,0.0,0.0,0.0,0.0,-25.747127532958984,0.7803427577018738,0.4353671967983246,0.0,0.0,0.0,0.0,0.0,0.0,0.0,0.0,0.0,-0.012782822363078594,0.009837529622018337,0.06658799201250076,0.0,0.0,0.0,0.0,0.0,0.0,0.0,0.0,0.0
1606988877889703018,2345456,1606985277299415954,imu_link,-0.005220899824053049,-0.005792044103145599,0.2228187769651413,-0.9748286604881287,0.0,0.0,0.0,0.0,0.0,0.0,0.0,0.0,0.0,-25.747127532958984,0.7803427577018738,0.4353671967983246,0.0,0.0,0.0,0.0,0.0,0.0,0.0,0.0,0.0,-0.012782822363078594,0.009837529622018337,0.06658799201250076,0.0,0.0,0.0,0.0,0.0,0.0,0.0,0.0,0.0
1606988877892967919,2345457,1606985277299497548,imu_link,-0.005221267230808735,-0.005792160052806139,0.22282034158706665,-0.9748284220695496,0.0,0.0,0.0,0.0,0.0,0.0,0.0,0.0,0.0,-25.747304916381836,0.7803658843040466,0.4354040324687958,0.0,0.0,0.0,0.0,0.0,0.0,0.0,0.0,0.0,-0.013334332033991814,0.01597331091761589,0.07750625908374786,0.0,0.0,0.0,0.0,0.0,0.0,0.0,0.0,0.0
1606988877892981624,2345458,1606985277299578721,imu_link,-0.005221267230808735,-0.005792160052806139,0.22282034158706665,-0.9748284220695496,0.0,0.0,0.0,0.0,0.0,0.0,0.0,0.0,0.0,-25.747304916381836,0.7803658843040466,0.4354040324687958,0.0,0.0,0.0,0.0,0.0,0.0,0.0,0.0,0.0,-0.013334332033991814,0.01597331091761589,0.07750625908374786,0.0,0.0,0.0,0.0,0.0,0.0,0.0,0.0,0.0
1606988877911062166,2345459,1606985277312038782,imu_link,-0.00521902134642005,-0.005789991933852434,0.22282840311527252,-0.9748265743255615,0.0,0.0,0.0,0.0,0.0,0.0,0.0,0.0,0.0,-25.74825668334961,0.7800699472427368,0.4352020025253296,0.0,0.0,0.0,0.0,0.0,0.0,0.0,0.0,0.0,-0.007882573641836643,-0.005592530593276024,0.05608860403299332,0.0,0.0,0.0,0.0,0.0,0.0,0.0,0.0,0.0
1606988877931908278,2345460,1606985277312163435,imu_link,-0.00521902134642005,-0.005789991933852434,0.22282840311527252,-0.9748265743255615,0.0,0.0,0.0,0.0,0.0,0.0,0.0,0.0,0.0,-25.74825668334961,0.7800699472427368,0.4352020025253296,0.0,0.0,0.0,0.0,0.0,0.0,0.0,0.0,0.0,-0.007882573641836643,-0.005592530593276024,0.05608860403299332,0.0,0.0,0.0,0.0,0.0,0.0,0.0,0.0,0.0
1606988877931935582,2345461,1606985277312331192,imu_link,-0.005219105165451765,-0.005792223382741213,0.22282898426055908,-0.9748263359069824,0.0,0.0,0.0,0.0,0.0,0.0,0.0,0.0,0.0,-25.748327255249023,0.7803215384483337,0.43515393137931824,0.0,0.0,0.0,0.0,0.0,0.0,0.0,0.0,0.0,0.004879666492342949,0.004268367774784565,0.044236499816179276,0.0,0.0,0.0,0.0,0.0,0.0,0.0,0.0,0.0
1606988877931948992,2345462,1606985277312406410,imu_link,-0.005219105165451765,-0.005792223382741213,0.22282898426055908,-0.9748263359069824,0.0,0.0,0.0,0.0,0.0,0.0,0.0,0.0,0.0,-25.748327255249023,0.7803215384483337,0.43515393137931824,0.0,0.0,0.0,0.0,0.0,0.0,0.0,0.0,0.0,0.004879666492342949,0.004268367774784565,0.044236499816179276,0.0,0.0,0.0,0.0,0.0,0.0,0.0,0.0,0.0
1606988877931962058,2345463,1606985277312471529,imu_link,-0.005218740552663803,-0.0057930732145905495,0.22283656895160675,-0.9748247265815735,0.0,0.0,0.0,0.0,0.0,0.0,0.0,0.0,0.0,-25.749217987060547,0.7804105877876282,0.4350854456424713,0.0,0.0,0.0,0.0,0.0,0.0,0.0,0.0,0.0,0.009003548882901669,0.007668566890060902,0.044939301908016205,0.0,0.0,0.0,0.0,0.0,0.0,0.0,0.0,0.0
1606988877933248511,2345464,1606985277312553671,imu_link,-0.005218740552663803,-0.0057930732145905495,0.22283656895160675,-0.9748247265815735,0.0,0.0,0.0,0.0,0.0,0.0,0.0,0.0,0.0,-25.749217987060547,0.7804105877876282,0.4350854456424713,0.0,0.0,0.0,0.0,0.0,0.0,0.0,0.0,0.0,0.009003548882901669,0.007668566890060902,0.044939301908016205,0.0,0.0,0.0,0.0,0.0,0.0,0.0,0.0,0.0
1606988877933267378,2345465,1606985277312644080,imu_link,-0.005218986421823502,-0.0057948618195950985,0.22283746302127838,-0.9748243689537048,0.0,0.0,0.0,0.0,0.0,0.0,0.0,0.0,0.0,-25.74932098388672,0.7806170582771301,0.4350665509700775,0.0,0.0,0.0,0.0,0.0,0.0,0.0,0.0,0.0,0.000626415538135916,0.005876253824681044,0.06246674433350563,0.0,0.0,0.0,0.0,0.0,0.0,0.0,0.0,0.0
1606988877933305268,2345466,1606985277312716403,imu_link,-0.005218986421823502,-0.0057948618195950985,0.22283746302127838,-0.9748243689537048,0.0,0.0,0.0,0.0,0.0,0.0,0.0,0.0,0.0,-25.74932098388672,0.7806170582771301,0.4350665509700775,0.0,0.0,0.0,0.0,0.0,0.0,0.0,0.0,0.0,0.000626415538135916,0.005876253824681044,0.06246674433350563,0.0,0.0,0.0,0.0,0.0,0.0,0.0,0.0,0.0
1606988877933325928,2345467,1606985277312793136,imu_link,-0.005217354279011488,-0.00579661363735795,0.2228383868932724,-0.9748241901397705,0.0,0.0,0.0,0.0,0.0,0.0,0.0,0.0,0.0,-25.749431610107422,0.7807714939117432,0.43483874201774597,0.0,0.0,0.0,0.0,0.0,0.0,0.0,0.0,0.0,-0.002062319777905941,0.006636850070208311,0.07690289616584778,0.0,0.0,0.0,0.0,0.0,0.0,0.0,0.0,0.0
1606988877933360838,2345468,1606985277312868760,imu_link,-0.005217354279011488,-0.00579661363735795,0.2228383868932724,-0.9748241901397705,0.0,0.0,0.0,0.0,0.0,0.0,0.0,0.0,0.0,-25.749431610107422,0.7807714939117432,0.43483874201774597,0.0,0.0,0.0,0.0,0.0,0.0,0.0,0.0,0.0,-0.002062319777905941,0.006636850070208311,0.07690289616584778,0.0,0.0,0.0,0.0,0.0,0.0,0.0,0.0,0.0
1606988877933379487,2345469,1606985277312941427,imu_link,-0.005216915626078844,-0.005796080455183983,0.22283703088760376,-0.9748245477676392,0.0,0.0,0.0,0.0,0.0,0.0,0.0,0.0,0.0,-25.74927520751953,0.780700147151947,0.43480440974235535,0.0,0.0,0.0,0.0,0.0,0.0,0.0,0.0,0.0,0.013983337208628654,-0.013188185170292854,0.058375511318445206,0.0,0.0,0.0,0.0,0.0,0.0,0.0,0.0,0.0
1606988877933394889,2345470,1606985277325820277,imu_link,-0.005216915626078844,-0.005796080455183983,0.22283703088760376,-0.9748245477676392,0.0,0.0,0.0,0.0,0.0,0.0,0.0,0.0,0.0,-25.74927520751953,0.780700147151947,0.43480440974235535,0.0,0.0,0.0,0.0,0.0,0.0,0.0,0.0,0.0,0.013983337208628654,-0.013188185170292854,0.058375511318445206,0.0,0.0,0.0,0.0,0.0,0.0,0.0,0.0,0.0
1606988877933422194,2345471,1606985277325960837,imu_link,-0.005220618098974228,-0.005795707926154137,0.22283896803855896,-0.974824070930481,0.0,0.0,0.0,0.0,0.0,0.0,0.0,0.0,0.0,-25.74949836730957,0.7807539105415344,0.4352259933948517,0.0,0.0,0.0,0.0,0.0,0.0,0.0,0.0,0.0,0.023486578837037086,-0.018192453309893608,0.055658891797065735,0.0,0.0,0.0,0.0,0.0,0.0,0.0,0.0,0.0
1606988877933470560,2345472,1606985277326144717,imu_link,-0.005220618098974228,-0.005795707926154137,0.22283896803855896,-0.974824070930481,0.0,0.0,0.0,0.0,0.0,0.0,0.0,0.0,0.0,-25.74949836730957,0.7807539105415344,0.4352259933948517,0.0,0.0,0.0,0.0,0.0,0.0,0.0,0.0,0.0,0.023486578837037086,-0.018192453309893608,0.055658891797065735,0.0,0.0,0.0,0.0,0.0,0.0,0.0,0.0,0.0
1606988877933507830,2345473,1606985277326267311,imu_link,-0.005221946630626917,-0.005795325618237257,0.22284045815467834,-0.9748237133026123,0.0,0.0,0.0,0.0,0.0,0.0,0.0,0.0,0.0,-25.749671936035156,0.780745804309845,0.43538302183151245,0.0,0.0,0.0,0.0,0.0,0.0,0.0,0.0,0.0,-0.0013809395022690296,0.006577480584383011,0.04684432968497276,0.0,0.0,0.0,0.0,0.0,0.0,0.0,0.0,0.0
1606988877933520362,2345474,1606985277326371758,imu_link,-0.005221946630626917,-0.005795325618237257,0.22284045815467834,-0.9748237133026123,0.0,0.0,0.0,0.0,0.0,0.0,0.0,0.0,0.0,-25.749671936035156,0.780745804309845,0.43538302183151245,0.0,0.0,0.0,0.0,0.0,0.0,0.0,0.0,0.0,-0.0013809395022690296,0.006577480584383011,0.04684432968497276,0.0,0.0,0.0,0.0,0.0,0.0,0.0,0.0,0.0
1606988877933536530,2345475,1606985277326503583,imu_link,-0.005222646053880453,-0.005796404555439949,0.22283312678337097,-0.974825382232666,0.0,0.0,0.0,0.0,0.0,0.0,0.0,0.0,0.0,-25.748809814453125,0.7808809280395508,0.43543946743011475,0.0,0.0,0.0,0.0,0.0,0.0,0.0,0.0,0.0,-0.02201753482222557,0.011138570494949818,0.0467267706990242,0.0,0.0,0.0,0.0,0.0,0.0,0.0,0.0,0.0
1606988877933577654,2345476,1606985277326587302,imu_link,-0.005222646053880453,-0.005796404555439949,0.22283312678337097,-0.974825382232666,0.0,0.0,0.0,0.0,0.0,0.0,0.0,0.0,0.0,-25.748809814453125,0.7808809280395508,0.43543946743011475,0.0,0.0,0.0,0.0,0.0,0.0,0.0,0.0,0.0,-0.02201753482222557,0.011138570494949818,0.0467267706990242,0.0,0.0,0.0,0.0,0.0,0.0,0.0,0.0,0.0
1606988877933595626,2345477,1606985277326665027,imu_link,-0.005222920794039965,-0.005800202023237944,0.2228318303823471,-0.9748256802558899,0.0,0.0,0.0,0.0,0.0,0.0,0.0,0.0,0.0,-25.7486572265625,0.781311571598053,0.4353742301464081,0.0,0.0,0.0,0.0,0.0,0.0,0.0,0.0,0.0,-0.018130363896489143,0.0032133636996150017,0.05265416204929352,0.0,0.0,0.0,0.0,0.0,0.0,0.0,0.0,0.0
1606988877933627971,2345478,1606985277326748144,imu_link,-0.005222920794039965,-0.005800202023237944,0.2228318303823471,-0.9748256802558899,0.0,0.0,0.0,0.0,0.0,0.0,0.0,0.0,0.0,-25.7486572265625,0.781311571598053,0.4353742301464081,0.0,0.0,0.0,0.0,0.0,0.0,0.0,0.0,0.0,-0.018130363896489143,0.0032133636996150017,0.05265416204929352,0.0,0.0,0.0,0.0,0.0,0.0,0.0,0.0,0.0
1606988877933638179,2345479,1606985277326835085,imu_link,-0.005221474915742874,-0.00579763064160943,0.22282488644123077,-0.9748272895812988,0.0,0.0,0.0,0.0,0.0,0.0,0.0,0.0,0.0,-25.747840881347656,0.7809843420982361,0.43528395891189575,0.0,0.0,0.0,0.0,0.0,0.0,0.0,0.0,0.0,-0.0035823401995003223,0.0006128023378551006,0.05971388518810272,0.0,0.0,0.0,0.0,0.0,0.0,0.0,0.0,0.0
1606988877933652961,2345480,1606985277326920954,imu_link,-0.005221474915742874,-0.00579763064160943,0.22282488644123077,-0.9748272895812988,0.0,0.0,0.0,0.0,0.0,0.0,0.0,0.0,0.0,-25.747840881347656,0.7809843420982361,0.43528395891189575,0.0,0.0,0.0,0.0,0.0,0.0,0.0,0.0,0.0,-0.0035823401995003223,0.0006128023378551006,0.05971388518810272,0.0,0.0,0.0,0.0,0.0,0.0,0.0,0.0,0.0
1606988877933661917,2345481,1606985277338816323,imu_link,-0.005221474915742874,-0.00579763064160943,0.22282488644123077,-0.9748272895812988,0.0,0.0,0.0,0.0,0.0,0.0,0.0,0.0,0.0,-25.747840881347656,0.7809843420982361,0.43528395891189575,0.0,0.0,0.0,0.0,0.0,0.0,0.0,0.0,0.0,0.0028816107660531998,-0.009716340340673923,0.0741920992732048,0.0,0.0,0.0,0.0,0.0,0.0,0.0,0.0,0.0
1606988877933676680,2345482,1606985277339006874,imu_link,-0.005221474915742874,-0.00579763064160943,0.22282488644123077,-0.9748272895812988,0.0,0.0,0.0,0.0,0.0,0.0,0.0,0.0,0.0,-25.747840881347656,0.7809843420982361,0.43528395891189575,0.0,0.0,0.0,0.0,0.0,0.0,0.0,0.0,0.0,0.0028816107660531998,-0.009716340340673923,0.0741920992732048,0.0,0.0,0.0,0.0,0.0,0.0,0.0,0.0,0.0
1606988877933709043,2345483,1606985277339118994,imu_link,-0.00522217620164156,-0.005796167533844709,0.22282148897647858,-0.9748280644416809,0.0,0.0,0.0,0.0,0.0,0.0,0.0,0.0,0.0,-25.74744415283203,0.7808372974395752,0.4354023337364197,0.0,0.0,0.0,0.0,0.0,0.0,0.0,0.0,0.0,0.008904863148927689,-0.01752680540084839,0.08586011826992035,0.0,0.0,0.0,0.0,0.0,0.0,0.0,0.0,0.0
1606988877933718663,2345484,1606985277339203169,imu_link,-0.00522217620164156,-0.005796167533844709,0.22282148897647858,-0.9748280644416809,0.0,0.0,0.0,0.0,0.0,0.0,0.0,0.0,0.0,-25.74744415283203,0.7808372974395752,0.4354023337364197,0.0,0.0,0.0,0.0,0.0,0.0,0.0,0.0,0.0,0.008904863148927689,-0.01752680540084839,0.08586011826992035,0.0,0.0,0.0,0.0,0.0,0.0,0.0,0.0,0.0
1606988877933754822,2345485,1606985277339293914,imu_link,-0.005222671665251255,-0.005795270670205355,0.22282268106937408,-0.9748278260231018,0.0,0.0,0.0,0.0,0.0,0.0,0.0,0.0,0.0,-25.747581481933594,0.7807502746582031,0.43547964096069336,0.0,0.0,0.0,0.0,0.0,0.0,0.0,0.0,0.0,0.01839212328195572,-0.02621508575975895,0.06665441393852234,0.0,0.0,0.0,0.0,0.0,0.0,0.0,0.0,0.0
1606988877933769422,2345486,1606985277339400089,imu_link,-0.005222671665251255,-0.005795270670205355,0.22282268106937408,-0.9748278260231018,0.0,0.0,0.0,0.0,0.0,0.0,0.0,0.0,0.0,-25.747581481933594,0.7807502746582031,0.43547964096069336,0.0,0.0,0.0,0.0,0.0,0.0,0.0,0.0,0.0,0.01839212328195572,-0.02621508575975895,0.06665441393852234,0.0,0.0,0.0,0.0,0.0,0.0,0.0,0.0,0.0
1606988877940462672,2345487,1606985277339492152,imu_link,-0.005228034686297178,-0.0057974006049335,0.2228190302848816,-0.9748286008834839,0.0,0.0,0.0,0.0,0.0,0.0,0.0,0.0,0.0,-25.747150421142578,0.7811235189437866,0.4360273778438568,0.0,0.0,0.0,0.0,0.0,0.0,0.0,0.0,0.0,0.014412635937333107,-0.0190639179199934,0.05207328498363495,0.0,0.0,0.0,0.0,0.0,0.0,0.0,0.0,0.0
1606988877940506383,2345488,1606985277339573526,imu_link,-0.005228034686297178,-0.0057974006049335,0.2228190302848816,-0.9748286008834839,0.0,0.0,0.0,0.0,0.0,0.0,0.0,0.0,0.0,-25.747150421142578,0.7811235189437866,0.4360273778438568,0.0,0.0,0.0,0.0,0.0,0.0,0.0,0.0,0.0,0.014412635937333107,-0.0190639179199934,0.05207328498363495,0.0,0.0,0.0,0.0,0.0,0.0,0.0,0.0,0.0
1606988877940522838,2345489,1606985277339662411,imu_link,-0.005228234454989433,-0.005799274891614914,0.2228195071220398,-0.9748284816741943,0.0,0.0,0.0,0.0,0.0,0.0,0.0,0.0,0.0,-25.747203826904297,0.7813382148742676,0.4360015094280243,0.0,0.0,0.0,0.0,0.0,0.0,0.0,0.0,0.0,0.0017619330901652575,-0.015838565304875374,0.06326737254858017,0.0,0.0,0.0,0.0,0.0,0.0,0.0,0.0,0.0
1606988877940542421,2345490,1606985277339744521,imu_link,-0.005228234454989433,-0.005799274891614914,0.2228195071220398,-0.9748284816741943,0.0,0.0,0.0,0.0,0.0,0.0,0.0,0.0,0.0,-25.747203826904297,0.7813382148742676,0.4360015094280243,0.0,0.0,0.0,0.0,0.0,0.0,0.0,0.0,0.0,0.0017619330901652575,-0.015838565304875374,0.06326737254858017,0.0,0.0,0.0,0.0,0.0,0.0,0.0,0.0,0.0
1606988877940558107,2345491,1606985277348658241,imu_link,-0.005230821669101715,-0.0057990094646811485,0.22282306849956512,-0.9748276472091675,0.0,0.0,0.0,0.0,0.0,0.0,0.0,0.0,0.0,-25.747621536254883,0.7813761830329895,0.4362943768501282,0.0,0.0,0.0,0.0,0.0,0.0,0.0,0.0,0.0,0.0058524031192064285,0.005901671946048737,0.05639723688364029,0.0,0.0,0.0,0.0,0.0,0.0,0.0,0.0,0.0
1606988877940576317,2345492,1606985277349050884,imu_link,-0.005230821669101715,-0.0057990094646811485,0.22282306849956512,-0.9748276472091675,0.0,0.0,0.0,0.0,0.0,0.0,0.0,0.0,0.0,-25.747621536254883,0.7813761830329895,0.4362943768501282,0.0,0.0,0.0,0.0,0.0,0.0,0.0,0.0,0.0,0.0058524031192064285,0.005901671946048737,0.05639723688364029,0.0,0.0,0.0,0.0,0.0,0.0,0.0,0.0,0.0
1606988877940595022,2345493,1606985277349150254,imu_link,-0.005232283845543861,-0.005798498634248972,0.22282394766807556,-0.9748274087905884,0.0,0.0,0.0,0.0,0.0,0.0,0.0,0.0,0.0,-25.747724533081055,0.7813568115234375,0.4364701509475708,0.0,0.0,0.0,0.0,0.0,0.0,0.0,0.0,0.0,0.012516493909060955,0.03043467551469803,0.0742124393582344,0.0,0.0,0.0,0.0,0.0,0.0,0.0,0.0,0.0
1606988877941968697,2345494,1606985277349419051,imu_link,-0.005232283845543861,-0.005798498634248972,0.22282394766807556,-0.9748274087905884,0.0,0.0,0.0,0.0,0.0,0.0,0.0,0.0,0.0,-25.747724533081055,0.7813568115234375,0.4364701509475708,0.0,0.0,0.0,0.0,0.0,0.0,0.0,0.0,0.0,0.012516493909060955,0.03043467551469803,0.0742124393582344,0.0,0.0,0.0,0.0,0.0,0.0,0.0,0.0,0.0
1606988877941991956,2345495,1606985277349572136,imu_link,-0.005227562505751848,-0.0058001866564154625,0.22283080220222473,-0.974825918674469,0.0,0.0,0.0,0.0,0.0,0.0,0.0,0.0,0.0,-25.74853515625,0.7814279794692993,0.43589404225349426,0.0,0.0,0.0,0.0,0.0,0.0,0.0,0.0,0.0,0.0036836317740380764,0.023723717778921127,0.07926616072654724,0.0,0.0,0.0,0.0,0.0,0.0,0.0,0.0,0.0
1606988877942006326,2345496,1606985277349656847,imu_link,-0.005227562505751848,-0.0058001866564154625,0.22283080220222473,-0.974825918674469,0.0,0.0,0.0,0.0,0.0,0.0,0.0,0.0,0.0,-25.74853515625,0.7814279794692993,0.43589404225349426,0.0,0.0,0.0,0.0,0.0,0.0,0.0,0.0,0.0,0.0036836317740380764,0.023723717778921127,0.07926616072654724,0.0,0.0,0.0,0.0,0.0,0.0,0.0,0.0,0.0
1606988877942024609,2345497,1606985277349780072,imu_link,-0.005226577632129192,-0.00579871516674757,0.2228316217660904,-0.9748257398605347,0.0,0.0,0.0,0.0,0.0,0.0,0.0,0.0,0.0,-25.74863052368164,0.7812387943267822,0.43582093715667725,0.0,0.0,0.0,0.0,0.0,0.0,0.0,0.0,0.0,-0.001813308335840702,0.012035389430820942,0.050205715000629425,0.0,0.0,0.0,0.0,0.0,0.0,0.0,0.0,0.0
1606988877946259794,2345498,1606985277349863580,imu_link,-0.005226577632129192,-0.00579871516674757,0.2228316217660904,-0.9748257398605347,0.0,0.0,0.0,0.0,0.0,0.0,0.0,0.0,0.0,-25.74863052368164,0.7812387943267822,0.43582093715667725,0.0,0.0,0.0,0.0,0.0,0.0,0.0,0.0,0.0,-0.001813308335840702,0.012035389430820942,0.050205715000629425,0.0,0.0,0.0,0.0,0.0,0.0,0.0,0.0,0.0
1606988877951458932,2345499,1606985277361988868,imu_link,-0.005223792977631092,-0.005797750782221556,0.22283071279525757,-0.974825918674469,0.0,0.0,0.0,0.0,0.0,0.0,0.0,0.0,0.0,-25.74852752685547,0.7810594439506531,0.435535192489624,0.0,0.0,0.0,0.0,0.0,0.0,0.0,0.0,0.0,-0.0005275433650240302,0.011378123424947262,0.0351421982049942,0.0,0.0,0.0,0.0,0.0,0.0,0.0,0.0,0.0
1606988877953510373,2345500,1606985277362084266,imu_link,-0.005223792977631092,-0.005797750782221556,0.22283071279525757,-0.974825918674469,0.0,0.0,0.0,0.0,0.0,0.0,0.0,0.0,0.0,-25.74852752685547,0.7810594439506531,0.435535192489624,0.0,0.0,0.0,0.0,0.0,0.0,0.0,0.0,0.0,-0.0005275433650240302,0.011378123424947262,0.0351421982049942,0.0,0.0,0.0,0.0,0.0,0.0,0.0,0.0,0.0
1606988877953524988,2345501,1606985277362258922,imu_link,-0.005224392283707857,-0.005799454636871815,0.22283117473125458,-0.9748257994651794,0.0,0.0,0.0,0.0,0.0,0.0,0.0,0.0,0.0,-25.748579025268555,0.781265377998352,0.4355582892894745,0.0,0.0,0.0,0.0,0.0,0.0,0.0,0.0,0.0,-0.008668282069265842,0.010919000953435898,0.045533038675785065,0.0,0.0,0.0,0.0,0.0,0.0,0.0,0.0,0.0
1606988877953537532,2345502,1606985277362363685,imu_link,-0.005224392283707857,-0.005799454636871815,0.22283117473125458,-0.9748257994651794,0.0,0.0,0.0,0.0,0.0,0.0,0.0,0.0,0.0,-25.748579025268555,0.781265377998352,0.4355582892894745,0.0,0.0,0.0,0.0,0.0,0.0,0.0,0.0,0.0,-0.008668282069265842,0.010919000953435898,0.045533038675785065,0.0,0.0,0.0,0.0,0.0,0.0,0.0,0.0,0.0
1606988877953542707,2345503,1606985277362440110,imu_link,-0.005223532672971487,-0.00579850934445858,0.2228298932313919,-0.9748260974884033,0.0,0.0,0.0,0.0,0.0,0.0,0.0,0.0,0.0,-25.748430252075195,0.7811371684074402,0.43548741936683655,0.0,0.0,0.0,0.0,0.0,0.0,0.0,0.0,0.0,-0.022784847766160965,-0.0005182850873097777,0.045633550733327866,0.0,0.0,0.0,0.0,0.0,0.0,0.0,0.0,0.0
1606988877953554026,2345504,1606985277362514086,imu_link,-0.005223532672971487,-0.00579850934445858,0.2228298932313919,-0.9748260974884033,0.0,0.0,0.0,0.0,0.0,0.0,0.0,0.0,0.0,-25.748430252075195,0.7811371684074402,0.43548741936683655,0.0,0.0,0.0,0.0,0.0,0.0,0.0,0.0,0.0,-0.022784847766160965,-0.0005182850873097777,0.045633550733327866,0.0,0.0,0.0,0.0,0.0,0.0,0.0,0.0,0.0
1606988877953575808,2345505,1606985277362627219,imu_link,-0.005224305670708418,-0.005799975246191025,0.22282876074314117,-0.9748263359069824,0.0,0.0,0.0,0.0,0.0,0.0,0.0,0.0,0.0,-25.748294830322266,0.7813202142715454,0.4355372190475464,0.0,0.0,0.0,0.0,0.0,0.0,0.0,0.0,0.0,-0.028129538521170616,-0.010405887849628925,0.0347539559006691,0.0,0.0,0.0,0.0,0.0,0.0,0.0,0.0,0.0
1606988877953598028,2345506,1606985277362705746,imu_link,-0.005224305670708418,-0.005799975246191025,0.22282876074314117,-0.9748263359069824,0.0,0.0,0.0,0.0,0.0,0.0,0.0,0.0,0.0,-25.748294830322266,0.7813202142715454,0.4355372190475464,0.0,0.0,0.0,0.0,0.0,0.0,0.0,0.0,0.0,-0.028129538521170616,-0.010405887849628925,0.0347539559006691,0.0,0.0,0.0,0.0,0.0,0.0,0.0,0.0,0.0
1606988877953604328,2345507,1606985277362776841,imu_link,-0.005224788095802069,-0.00579562084749341,0.22282518446445465,-0.974827229976654,0.0,0.0,0.0,0.0,0.0,0.0,0.0,0.0,0.0,-25.74787712097168,0.780844509601593,0.43570515513420105,0.0,0.0,0.0,0.0,0.0,0.0,0.0,0.0,0.0,-0.011841312982141972,-0.017621885985136032,0.052938513457775116,0.0,0.0,0.0,0.0,0.0,0.0,0.0,0.0,0.0
1606988877953627139,2345508,1606985277362844406,imu_link,-0.005224788095802069,-0.00579562084749341,0.22282518446445465,-0.974827229976654,0.0,0.0,0.0,0.0,0.0,0.0,0.0,0.0,0.0,-25.74787712097168,0.780844509601593,0.43570515513420105,0.0,0.0,0.0,0.0,0.0,0.0,0.0,0.0,0.0,-0.011841312982141972,-0.017621885985136032,0.052938513457775116,0.0,0.0,0.0,0.0,0.0,0.0,0.0,0.0,0.0
1606988877953633296,2345509,1606985277362916225,imu_link,-0.0052261739037930965,-0.005797156598418951,0.22282373905181885,-0.9748275279998779,0.0,0.0,0.0,0.0,0.0,0.0,0.0,0.0,0.0,-25.747705459594727,0.7810507416725159,0.43582192063331604,0.0,0.0,0.0,0.0,0.0,0.0,0.0,0.0,0.0,0.0019267008174210787,-0.020961806178092957,0.04397233575582504,0.0,0.0,0.0,0.0,0.0,0.0,0.0,0.0,0.0
1606988877966115140,2345510,1606985277375809044,imu_link,-0.0052261739037930965,-0.005797156598418951,0.22282373905181885,-0.9748275279998779,0.0,0.0,0.0,0.0,0.0,0.0,0.0,0.0,0.0,-25.747705459594727,0.7810507416725159,0.43582192063331604,0.0,0.0,0.0,0.0,0.0,0.0,0.0,0.0,0.0,0.0019267008174210787,-0.020961806178092957,0.04397233575582504,0.0,0.0,0.0,0.0,0.0,0.0,0.0,0.0,0.0
1606988877966148912,2345511,1606985277375947409,imu_link,-0.005228342022746801,-0.00579784857109189,0.22281895577907562,-0.9748286008834839,0.0,0.0,0.0,0.0,0.0,0.0,0.0,0.0,0.0,-25.74713897705078,0.7811813354492188,0.43605026602745056,0.0,0.0,0.0,0.0,0.0,0.0,0.0,0.0,0.0,-0.011759568005800247,-0.013050330802798271,0.04848787188529968,0.0,0.0,0.0,0.0,0.0,0.0,0.0,0.0,0.0
1606988877966155401,2345512,1606985277376063580,imu_link,-0.005228342022746801,-0.00579784857109189,0.22281895577907562,-0.9748286008834839,0.0,0.0,0.0,0.0,0.0,0.0,0.0,0.0,0.0,-25.74713897705078,0.7811813354492188,0.43605026602745056,0.0,0.0,0.0,0.0,0.0,0.0,0.0,0.0,0.0,-0.011759568005800247,-0.013050330802798271,0.04848787188529968,0.0,0.0,0.0,0.0,0.0,0.0,0.0,0.0,0.0
1606988877966162088,2345513,1606985277376140960,imu_link,-0.005226907320320606,-0.005797337740659714,0.22281868755817413,-0.9748286604881287,0.0,0.0,0.0,0.0,0.0,0.0,0.0,0.0,0.0,-25.74711036682129,0.7810875177383423,0.43590328097343445,0.0,0.0,0.0,0.0,0.0,0.0,0.0,0.0,0.0,-0.015451766550540924,0.0030177156440913677,0.06213760003447533,0.0,0.0,0.0,0.0,0.0,0.0,0.0,0.0,0.0
1606988877966169770,2345514,1606985277376213754,imu_link,-0.005226907320320606,-0.005797337740659714,0.22281868755817413,-0.9748286604881287,0.0,0.0,0.0,0.0,0.0,0.0,0.0,0.0,0.0,-25.74711036682129,0.7810875177383423,0.43590328097343445,0.0,0.0,0.0,0.0,0.0,0.0,0.0,0.0,0.0,-0.015451766550540924,0.0030177156440913677,0.06213760003447533,0.0,0.0,0.0,0.0,0.0,0.0,0.0,0.0,0.0
1606988877967518261,2345515,1606985277376321835,imu_link,-0.005227918270975351,-0.005795999895781279,0.2228224128484726,-0.9748278260231018,0.0,0.0,0.0,0.0,0.0,0.0,0.0,0.0,0.0,-25.74754524230957,0.7809655666351318,0.43604737520217896,0.0,0.0,0.0,0.0,0.0,0.0,0.0,0.0,0.0,-0.006918555125594139,0.008784670382738113,0.07069021463394165,0.0,0.0,0.0,0.0,0.0,0.0,0.0,0.0,0.0
1606988877967539118,2345516,1606985277376408071,imu_link,-0.005227918270975351,-0.005795999895781279,0.2228224128484726,-0.9748278260231018,0.0,0.0,0.0,0.0,0.0,0.0,0.0,0.0,0.0,-25.74754524230957,0.7809655666351318,0.43604737520217896,0.0,0.0,0.0,0.0,0.0,0.0,0.0,0.0,0.0,-0.006918555125594139,0.008784670382738113,0.07069021463394165,0.0,0.0,0.0,0.0,0.0,0.0,0.0,0.0,0.0
1606988877967550610,2345517,1606985277376491713,imu_link,-0.005229441914707422,-0.005797622725367546,0.22282344102859497,-0.9748275876045227,0.0,0.0,0.0,0.0,0.0,0.0,0.0,0.0,0.0,-25.747665405273438,0.7811862230300903,0.43617531657218933,0.0,0.0,0.0,0.0,0.0,0.0,0.0,0.0,0.0,0.007547024637460709,-0.006264763884246349,0.09168970584869385,0.0,0.0,0.0,0.0,0.0,0.0,0.0,0.0,0.0
1606988877967560500,2345518,1606985277376557536,imu_link,-0.005229441914707422,-0.005797622725367546,0.22282344102859497,-0.9748275876045227,0.0,0.0,0.0,0.0,0.0,0.0,0.0,0.0,0.0,-25.747665405273438,0.7811862230300903,0.43617531657218933,0.0,0.0,0.0,0.0,0.0,0.0,0.0,0.0,0.0,0.007547024637460709,-0.006264763884246349,0.09168970584869385,0.0,0.0,0.0,0.0,0.0,0.0,0.0,0.0,0.0
1606988877967569932,2345519,1606985277376635722,imu_link,-0.005231096874922514,-0.005799966864287853,0.22282835841178894,-0.974826455116272,0.0,0.0,0.0,0.0,0.0,0.0,0.0,0.0,0.0,-25.748241424560547,0.7814925312995911,0.4362964332103729,0.0,0.0,0.0,0.0,0.0,0.0,0.0,0.0,0.0,0.019515853375196457,-0.008174550719559193,0.08248037099838257,0.0,0.0,0.0,0.0,0.0,0.0,0.0,0.0,0.0
1606988877967594061,2345520,1606985277376710668,imu_link,-0.005231096874922514,-0.005799966864287853,0.22282835841178894,-0.974826455116272,0.0,0.0,0.0,0.0,0.0,0.0,0.0,0.0,0.0,-25.748241424560547,0.7814925312995911,0.4362964332103729,0.0,0.0,0.0,0.0,0.0,0.0,0.0,0.0,0.0,0.019515853375196457,-0.008174550719559193,0.08248037099838257,0.0,0.0,0.0,0.0,0.0,0.0,0.0,0.0,0.0
1606988877978409259,2345521,1606985277388799464,imu_link,-0.005234230309724808,-0.005797610152512789,0.22282622754573822,-0.9748269319534302,0.0,0.0,0.0,0.0,0.0,0.0,0.0,0.0,0.0,-25.74799156188965,0.7813082933425903,0.4367084205150604,0.0,0.0,0.0,0.0,0.0,0.0,0.0,0.0,0.0,0.011448864825069904,-0.005578412674367428,0.08432681113481522,0.0,0.0,0.0,0.0,0.0,0.0,0.0,0.0,0.0
1606988877981313128,2345522,1606985277388925092,imu_link,-0.005234230309724808,-0.005797610152512789,0.22282622754573822,-0.9748269319534302,0.0,0.0,0.0,0.0,0.0,0.0,0.0,0.0,0.0,-25.74799156188965,0.7813082933425903,0.4367084205150604,0.0,0.0,0.0,0.0,0.0,0.0,0.0,0.0,0.0,0.011448864825069904,-0.005578412674367428,0.08432681113481522,0.0,0.0,0.0,0.0,0.0,0.0,0.0,0.0,0.0
1606988877981331589,2345523,1606985277389088394,imu_link,-0.005236844532191753,-0.005797990597784519,0.22283270955085754,-0.9748254418373108,0.0,0.0,0.0,0.0,0.0,0.0,0.0,0.0,0.0,-25.748748779296875,0.7814204692840576,0.4369855225086212,0.0,0.0,0.0,0.0,0.0,0.0,0.0,0.0,0.0,-0.0036350195296108723,-0.011127916164696217,0.07938019931316376,0.0,0.0,0.0,0.0,0.0,0.0,0.0,0.0,0.0
1606988877981346746,2345524,1606985277389180603,imu_link,-0.005236844532191753,-0.005797990597784519,0.22283270955085754,-0.9748254418373108,0.0,0.0,0.0,0.0,0.0,0.0,0.0,0.0,0.0,-25.748748779296875,0.7814204692840576,0.4369855225086212,0.0,0.0,0.0,0.0,0.0,0.0,0.0,0.0,0.0,-0.0036350195296108723,-0.011127916164696217,0.07938019931316376,0.0,0.0,0.0,0.0,0.0,0.0,0.0,0.0,0.0
1606988877981361554,2345525,1606985277389249661,imu_link,-0.005234960466623306,-0.0057958802208304405,0.22283174097537994,-0.9748256802558899,0.0,0.0,0.0,0.0,0.0,0.0,0.0,0.0,0.0,-25.748640060424805,0.781136155128479,0.43682974576950073,0.0,0.0,0.0,0.0,0.0,0.0,0.0,0.0,0.0,-0.0030262786895036697,0.007731337565928698,0.06485389173030853,0.0,0.0,0.0,0.0,0.0,0.0,0.0,0.0,0.0
1606988877981377938,2345526,1606985277389352441,imu_link,-0.005234960466623306,-0.0057958802208304405,0.22283174097537994,-0.9748256802558899,0.0,0.0,0.0,0.0,0.0,0.0,0.0,0.0,0.0,-25.748640060424805,0.781136155128479,0.43682974576950073,0.0,0.0,0.0,0.0,0.0,0.0,0.0,0.0,0.0,-0.0030262786895036697,0.007731337565928698,0.06485389173030853,0.0,0.0,0.0,0.0,0.0,0.0,0.0,0.0,0.0
1606988877981384693,2345527,1606985277389454464,imu_link,-0.005232762545347214,-0.0057968636974692345,0.22283923625946045,-0.9748239517211914,0.0,0.0,0.0,0.0,0.0,0.0,0.0,0.0,0.0,-25.74951934814453,0.7811933159828186,0.43655306100845337,0.0,0.0,0.0,0.0,0.0,0.0,0.0,0.0,0.0,-0.0010607133153825998,0.015801867470145226,0.08146002143621445,0.0,0.0,0.0,0.0,0.0,0.0,0.0,0.0,0.0
1606988877981398617,2345528,1606985277389531451,imu_link,-0.005232762545347214,-0.0057968636974692345,0.22283923625946045,-0.9748239517211914,0.0,0.0,0.0,0.0,0.0,0.0,0.0,0.0,0.0,-25.74951934814453,0.7811933159828186,0.43655306100845337,0.0,0.0,0.0,0.0,0.0,0.0,0.0,0.0,0.0,-0.0010607133153825998,0.015801867470145226,0.08146002143621445,0.0,0.0,0.0,0.0,0.0,0.0,0.0,0.0,0.0
1606988877981421424,2345529,1606985277389600036,imu_link,-0.00523307966068387,-0.005797554273158312,0.22283688187599182,-0.9748244881629944,0.0,0.0,0.0,0.0,0.0,0.0,0.0,0.0,0.0,-25.74924087524414,0.7812774181365967,0.43657276034355164,0.0,0.0,0.0,0.0,0.0,0.0,0.0,0.0,0.0,-0.005836053751409054,-0.00204593688249588,0.0743364542722702,0.0,0.0,0.0,0.0,0.0,0.0,0.0,0.0,0.0
1606988877981449354,2345530,1606985277389673953,imu_link,-0.00523307966068387,-0.005797554273158312,0.22283688187599182,-0.9748244881629944,0.0,0.0,0.0,0.0,0.0,0.0,0.0,0.0,0.0,-25.74924087524414,0.7812774181365967,0.43657276034355164,0.0,0.0,0.0,0.0,0.0,0.0,0.0,0.0,0.0,-0.005836053751409054,-0.00204593688249588,0.0743364542722702,0.0,0.0,0.0,0.0,0.0,0.0,0.0,0.0,0.0
1606988877991193177,2345531,1606985277402172630,imu_link,-0.005232369061559439,-0.005795074626803398,0.2228437215089798,-0.9748229384422302,0.0,0.0,0.0,0.0,0.0,0.0,0.0,0.0,0.0,-25.750045776367188,0.7809853553771973,0.43655118346214294,0.0,0.0,0.0,0.0,0.0,0.0,0.0,0.0,0.0,-3.252062015235424e-06,-0.008054469712078571,0.052365295588970184,0.0,0.0,0.0,0.0,0.0,0.0,0.0,0.0,0.0
1606988877993938133,2345532,1606985277402298482,imu_link,-0.005232369061559439,-0.005795074626803398,0.2228437215089798,-0.9748229384422302,0.0,0.0,0.0,0.0,0.0,0.0,0.0,0.0,0.0,-25.750045776367188,0.7809853553771973,0.43655118346214294,0.0,0.0,0.0,0.0,0.0,0.0,0.0,0.0,0.0,-3.252062015235424e-06,-0.008054469712078571,0.052365295588970184,0.0,0.0,0.0,0.0,0.0,0.0,0.0,0.0,0.0
1606988877993971982,2345533,1606985277402454599,imu_link,-0.005231344606727362,-0.005795148201286793,0.22284404933452606,-0.9748228788375854,0.0,0.0,0.0,0.0,0.0,0.0,0.0,0.0,0.0,-25.750085830688477,0.7809675931930542,0.43643462657928467,0.0,0.0,0.0,0.0,0.0,0.0,0.0,0.0,0.0,-0.006385873071849346,0.00574060995131731,0.04027751833200455,0.0,0.0,0.0,0.0,0.0,0.0,0.0,0.0,0.0
1606988877993993361,2345534,1606985277402530539,imu_link,-0.005231344606727362,-0.005795148201286793,0.22284404933452606,-0.9748228788375854,0.0,0.0,0.0,0.0,0.0,0.0,0.0,0.0,0.0,-25.750085830688477,0.7809675931930542,0.43643462657928467,0.0,0.0,0.0,0.0,0.0,0.0,0.0,0.0,0.0,-0.006385873071849346,0.00574060995131731,0.04027751833200455,0.0,0.0,0.0,0.0,0.0,0.0,0.0,0.0,0.0
1606988877994044909,2345535,1606985277402599031,imu_link,-0.00522950105369091,-0.005796443670988083,0.22284983098506927,-0.9748215675354004,0.0,0.0,0.0,0.0,0.0,0.0,0.0,0.0,0.0,-25.750770568847656,0.7810677886009216,0.4361909031867981,0.0,0.0,0.0,0.0,0.0,0.0,0.0,0.0,0.0,-0.004595883656293154,0.015826547518372536,0.018514011055231094,0.0,0.0,0.0,0.0,0.0,0.0,0.0,0.0,0.0
1606988877994055798,2345536,1606985277402681452,imu_link,-0.00522950105369091,-0.005796443670988083,0.22284983098506927,-0.9748215675354004,0.0,0.0,0.0,0.0,0.0,0.0,0.0,0.0,0.0,-25.750770568847656,0.7810677886009216,0.4361909031867981,0.0,0.0,0.0,0.0,0.0,0.0,0.0,0.0,0.0,-0.004595883656293154,0.015826547518372536,0.018514011055231094,0.0,0.0,0.0,0.0,0.0,0.0,0.0,0.0,0.0
1606988877994069077,2345537,1606985277402796738,imu_link,-0.005229572765529156,-0.005796997807919979,0.2228526920080185,-0.9748208522796631,0.0,0.0,0.0,0.0,0.0,0.0,0.0,0.0,0.0,-25.75110626220703,0.7811327576637268,0.43618249893188477,0.0,0.0,0.0,0.0,0.0,0.0,0.0,0.0,0.0,-0.002585388021543622,0.009956899099051952,0.03584017604589462,0.0,0.0,0.0,0.0,0.0,0.0,0.0,0.0,0.0
1606988877994112334,2345538,1606985277402889935,imu_link,-0.005229572765529156,-0.005796997807919979,0.2228526920080185,-0.9748208522796631,0.0,0.0,0.0,0.0,0.0,0.0,0.0,0.0,0.0,-25.75110626220703,0.7811327576637268,0.43618249893188477,0.0,0.0,0.0,0.0,0.0,0.0,0.0,0.0,0.0,-0.002585388021543622,0.009956899099051952,0.03584017604589462,0.0,0.0,0.0,0.0,0.0,0.0,0.0,0.0,0.0
1606988877994139770,2345539,1606985277403006494,imu_link,-0.005227478686720133,-0.00579587509855628,0.22284819185733795,-0.974821925163269,0.0,0.0,0.0,0.0,0.0,0.0,0.0,0.0,0.0,-25.750577926635742,0.7809518575668335,0.43598082661628723,0.0,0.0,0.0,0.0,0.0,0.0,0.0,0.0,0.0,-0.005231605842709541,-0.010564789175987244,0.0729435384273529,0.0,0.0,0.0,0.0,0.0,0.0,0.0,0.0,0.0
1606988877994151627,2345540,1606985277403083458,imu_link,-0.005227478686720133,-0.00579587509855628,0.22284819185733795,-0.974821925163269,0.0,0.0,0.0,0.0,0.0,0.0,0.0,0.0,0.0,-25.750577926635742,0.7809518575668335,0.43598082661628723,0.0,0.0,0.0,0.0,0.0,0.0,0.0,0.0,0.0,-0.005231605842709541,-0.010564789175987244,0.0729435384273529,0.0,0.0,0.0,0.0,0.0,0.0,0.0,0.0,0.0
1606988877994183765,2345541,1606985277403151019,imu_link,-0.0052286661230027676,-0.0057966564781963825,0.2228490263223648,-0.9748217463493347,0.0,0.0,0.0,0.0,0.0,0.0,0.0,0.0,0.0,-25.750675201416016,0.7810698747634888,0.4360928535461426,0.0,0.0,0.0,0.0,0.0,0.0,0.0,0.0,0.0,0.014117937535047531,-0.004250889644026756,0.076722651720047,0.0,0.0,0.0,0.0,0.0,0.0,0.0,0.0,0.0
1606988878006954732,2345542,1606985277416011595,imu_link,-0.0052286661230027676,-0.0057966564781963825,0.2228490263223648,-0.9748217463493347,0.0,0.0,0.0,0.0,0.0,0.0,0.0,0.0,0.0,-25.750675201416016,0.7810698747634888,0.4360928535461426,0.0,0.0,0.0,0.0,0.0,0.0,0.0,0.0,0.0,0.014117937535047531,-0.004250889644026756,0.076722651720047,0.0,0.0,0.0,0.0,0.0,0.0,0.0,0.0,0.0
1606988878006985621,2345543,1606985277416134243,imu_link,-0.005230638664215803,-0.005798011086881161,0.2228481024503708,-0.9748219847679138,0.0,0.0,0.0,0.0,0.0,0.0,0.0,0.0,0.0,-25.75056266784668,0.78127121925354,0.43627938628196716,0.0,0.0,0.0,0.0,0.0,0.0,0.0,0.0,0.0,0.008495038375258446,0.003212302690371871,0.059736695140600204,0.0,0.0,0.0,0.0,0.0,0.0,0.0,0.0,0.0
1606988878007018823,2345544,1606985277416240525,imu_link,-0.005230638664215803,-0.005798011086881161,0.2228481024503708,-0.9748219847679138,0.0,0.0,0.0,0.0,0.0,0.0,0.0,0.0,0.0,-25.75056266784668,0.78127121925354,0.43627938628196716,0.0,0.0,0.0,0.0,0.0,0.0,0.0,0.0,0.0,0.008495038375258446,0.003212302690371871,0.059736695140600204,0.0,0.0,0.0,0.0,0.0,0.0,0.0,0.0,0.0
1606988878007029650,2345545,1606985277416313093,imu_link,-0.005232757888734341,-0.005798885133117437,0.22284822165966034,-0.974821925163269,0.0,0.0,0.0,0.0,0.0,0.0,0.0,0.0,0.0,-25.75057601928711,0.781423032283783,0.4364936947822571,0.0,0.0,0.0,0.0,0.0,0.0,0.0,0.0,0.0,-0.005532333627343178,-0.006060444749891758,0.06510318070650101,0.0,0.0,0.0,0.0,0.0,0.0,0.0,0.0,0.0
1606988878007043297,2345546,1606985277416382342,imu_link,-0.005232757888734341,-0.005798885133117437,0.22284822165966034,-0.974821925163269,0.0,0.0,0.0,0.0,0.0,0.0,0.0,0.0,0.0,-25.75057601928711,0.781423032283783,0.4364936947822571,0.0,0.0,0.0,0.0,0.0,0.0,0.0,0.0,0.0,-0.005532333627343178,-0.006060444749891758,0.06510318070650101,0.0,0.0,0.0,0.0,0.0,0.0,0.0,0.0,0.0
1606988878008088481,2345547,1606985277416453903,imu_link,-0.005233150906860828,-0.00579924276098609,0.22284692525863647,-0.9748221635818481,0.0,0.0,0.0,0.0,0.0,0.0,0.0,0.0,0.0,-25.750425338745117,0.781472384929657,0.43652957677841187,0.0,0.0,0.0,0.0,0.0,0.0,0.0,0.0,0.0,0.001352528459392488,0.008325237780809402,0.07971766591072083,0.0,0.0,0.0,0.0,0.0,0.0,0.0,0.0,0.0
1606988878008112172,2345548,1606985277416549854,imu_link,-0.005233150906860828,-0.00579924276098609,0.22284692525863647,-0.9748221635818481,0.0,0.0,0.0,0.0,0.0,0.0,0.0,0.0,0.0,-25.750425338745117,0.781472384929657,0.43652957677841187,0.0,0.0,0.0,0.0,0.0,0.0,0.0,0.0,0.0,0.001352528459392488,0.008325237780809402,0.07971766591072083,0.0,0.0,0.0,0.0,0.0,0.0,0.0,0.0,0.0
1606988878008136157,2345549,1606985277416661125,imu_link,-0.005235250573605299,-0.005801753606647253,0.22284771502017975,-0.9748219847679138,0.0,0.0,0.0,0.0,0.0,0.0,0.0,0.0,0.0,-25.75051498413086,0.7818068861961365,0.43669936060905457,0.0,0.0,0.0,0.0,0.0,0.0,0.0,0.0,0.0,0.01365644671022892,0.025371981784701347,0.07333090901374817,0.0,0.0,0.0,0.0,0.0,0.0,0.0,0.0,0.0
1606988878008145545,2345550,1606985277416738517,imu_link,-0.005235250573605299,-0.005801753606647253,0.22284771502017975,-0.9748219847679138,0.0,0.0,0.0,0.0,0.0,0.0,0.0,0.0,0.0,-25.75051498413086,0.7818068861961365,0.43669936060905457,0.0,0.0,0.0,0.0,0.0,0.0,0.0,0.0,0.0,0.01365644671022892,0.025371981784701347,0.07333090901374817,0.0,0.0,0.0,0.0,0.0,0.0,0.0,0.0,0.0
1606988878008152627,2345551,1606985277416884331,imu_link,-0.005231302231550217,-0.0058062137104570866,0.22284910082817078,-0.9748216271400452,0.0,0.0,0.0,0.0,0.0,0.0,0.0,0.0,0.0,-25.750680923461914,0.7822048664093018,0.43614327907562256,0.0,0.0,0.0,0.0,0.0,0.0,0.0,0.0,0.0,0.019348595291376114,0.033451080322265625,0.06421301513910294,0.0,0.0,0.0,0.0,0.0,0.0,0.0,0.0,0.0
1606988878008157528,2345552,1606985277416968281,imu_link,-0.005231302231550217,-0.0058062137104570866,0.22284910082817078,-0.9748216271400452,0.0,0.0,0.0,0.0,0.0,0.0,0.0,0.0,0.0,-25.750680923461914,0.7822048664093018,0.43614327907562256,0.0,0.0,0.0,0.0,0.0,0.0,0.0,0.0,0.0,0.019348595291376114,0.033451080322265625,0.06421301513910294,0.0,0.0,0.0,0.0,0.0,0.0,0.0,0.0,0.0
1606988878019079180,2345553,1606985277429482777,imu_link,-0.005231062415987253,-0.005807905923575163,0.2228507548570633,-0.9748212695121765,0.0,0.0,0.0,0.0,0.0,0.0,0.0,0.0,0.0,-25.750877380371094,0.7823885679244995,0.4360719621181488,0.0,0.0,0.0,0.0,0.0,0.0,0.0,0.0,0.0,0.014223186299204826,0.018195610493421555,0.057626571506261826,0.0,0.0,0.0,0.0,0.0,0.0,0.0,0.0,0.0
1606988878020910319,2345554,1606985277429604530,imu_link,-0.005231062415987253,-0.005807905923575163,0.2228507548570633,-0.9748212695121765,0.0,0.0,0.0,0.0,0.0,0.0,0.0,0.0,0.0,-25.750877380371094,0.7823885679244995,0.4360719621181488,0.0,0.0,0.0,0.0,0.0,0.0,0.0,0.0,0.0,0.014223186299204826,0.018195610493421555,0.057626571506261826,0.0,0.0,0.0,0.0,0.0,0.0,0.0,0.0,0.0
1606988878020928352,2345555,1606985277429757742,imu_link,-0.005228257272392511,-0.005811902694404125,0.22284777462482452,-0.9748218655586243,0.0,0.0,0.0,0.0,0.0,0.0,0.0,0.0,0.0,-25.750526428222656,0.7827620506286621,0.43565893173217773,0.0,0.0,0.0,0.0,0.0,0.0,0.0,0.0,0.0,0.004919528029859066,-0.013712177984416485,0.0587037168443203,0.0,0.0,0.0,0.0,0.0,0.0,0.0,0.0,0.0
1606988878020957739,2345556,1606985277429828964,imu_link,-0.005228257272392511,-0.005811902694404125,0.22284777462482452,-0.9748218655586243,0.0,0.0,0.0,0.0,0.0,0.0,0.0,0.0,0.0,-25.750526428222656,0.7827620506286621,0.43565893173217773,0.0,0.0,0.0,0.0,0.0,0.0,0.0,0.0,0.0,0.004919528029859066,-0.013712177984416485,0.0587037168443203,0.0,0.0,0.0,0.0,0.0,0.0,0.0,0.0,0.0
1606988878020968840,2345557,1606985277429899613,imu_link,-0.005228567868471146,-0.005812245886772871,0.22284777462482452,-0.9748218655586243,0.0,0.0,0.0,0.0,0.0,0.0,0.0,0.0,0.0,-25.750526428222656,0.7828083038330078,0.43568482995033264,0.0,0.0,0.0,0.0,0.0,0.0,0.0,0.0,0.0,0.0033417758531868458,-0.020482469350099564,0.06853671371936798,0.0,0.0,0.0,0.0,0.0,0.0,0.0,0.0,0.0
1606988878020983666,2345558,1606985277429978417,imu_link,-0.005228567868471146,-0.005812245886772871,0.22284777462482452,-0.9748218655586243,0.0,0.0,0.0,0.0,0.0,0.0,0.0,0.0,0.0,-25.750526428222656,0.7828083038330078,0.43568482995033264,0.0,0.0,0.0,0.0,0.0,0.0,0.0,0.0,0.0,0.0033417758531868458,-0.020482469350099564,0.06853671371936798,0.0,0.0,0.0,0.0,0.0,0.0,0.0,0.0,0.0
1606988878020989405,2345559,1606985277430076404,imu_link,-0.0052335429936647415,-0.00581120140850544,0.22284598648548126,-0.9748223423957825,0.0,0.0,0.0,0.0,0.0,0.0,0.0,0.0,0.0,-25.75031280517578,0.7828178405761719,0.43626880645751953,0.0,0.0,0.0,0.0,0.0,0.0,0.0,0.0,0.0,-0.002800937043502927,-0.009205937385559082,0.06803616881370544,0.0,0.0,0.0,0.0,0.0,0.0,0.0,0.0,0.0
1606988878020993670,2345560,1606985277430172956,imu_link,-0.0052335429936647415,-0.00581120140850544,0.22284598648548126,-0.9748223423957825,0.0,0.0,0.0,0.0,0.0,0.0,0.0,0.0,0.0,-25.75031280517578,0.7828178405761719,0.43626880645751953,0.0,0.0,0.0,0.0,0.0,0.0,0.0,0.0,0.0,-0.002800937043502927,-0.009205937385559082,0.06803616881370544,0.0,0.0,0.0,0.0,0.0,0.0,0.0,0.0,0.0
1606988878021004229,2345561,1606985277430249913,imu_link,-0.005234208423644304,-0.005810745991766453,0.22284573316574097,-0.9748224020004272,0.0,0.0,0.0,0.0,0.0,0.0,0.0,0.0,0.0,-25.750282287597656,0.7827839255332947,0.43635493516921997,0.0,0.0,0.0,0.0,0.0,0.0,0.0,0.0,0.0,-0.01852676458656788,-0.006873867474496365,0.07290348410606384,0.0,0.0,0.0,0.0,0.0,0.0,0.0,0.0,0.0
1606988878021020388,2345562,1606985277430318203,imu_link,-0.005234208423644304,-0.005810745991766453,0.22284573316574097,-0.9748224020004272,0.0,0.0,0.0,0.0,0.0,0.0,0.0,0.0,0.0,-25.750282287597656,0.7827839255332947,0.43635493516921997,0.0,0.0,0.0,0.0,0.0,0.0,0.0,0.0,0.0,-0.01852676458656788,-0.006873867474496365,0.07290348410606384,0.0,0.0,0.0,0.0,0.0,0.0,0.0,0.0,0.0
1606988878021031480,2345563,1606985277430392384,imu_link,-0.0052362182177603245,-0.005807904526591301,0.22284546494483948,-0.974822461605072,0.0,0.0,0.0,0.0,0.0,0.0,0.0,0.0,0.0,-25.750247955322266,0.7825177311897278,0.436652272939682,0.0,0.0,0.0,0.0,0.0,0.0,0.0,0.0,0.0,-0.01865706965327263,-0.01486288383603096,0.06519407778978348,0.0,0.0,0.0,0.0,0.0,0.0,0.0,0.0,0.0
1606988878033536374,2345564,1606985277443285900,imu_link,-0.0052362182177603245,-0.005807904526591301,0.22284546494483948,-0.974822461605072,0.0,0.0,0.0,0.0,0.0,0.0,0.0,0.0,0.0,-25.750247955322266,0.7825177311897278,0.436652272939682,0.0,0.0,0.0,0.0,0.0,0.0,0.0,0.0,0.0,-0.01865706965327263,-0.01486288383603096,0.06519407778978348,0.0,0.0,0.0,0.0,0.0,0.0,0.0,0.0,0.0
1606988878034118353,2345565,1606985277443400823,imu_link,-0.005234780255705118,-0.005807951558381319,0.2228451669216156,-0.9748225808143616,0.0,0.0,0.0,0.0,0.0,0.0,0.0,0.0,0.0,-25.750215530395508,0.7824861407279968,0.43649059534072876,0.0,0.0,0.0,0.0,0.0,0.0,0.0,0.0,0.0,0.0032978281378746033,-0.005555187352001667,0.06043849512934685,0.0,0.0,0.0,0.0,0.0,0.0,0.0,0.0,0.0
1606988878034154138,2345566,1606985277443548290,imu_link,-0.005234780255705118,-0.005807951558381319,0.2228451669216156,-0.9748225808143616,0.0,0.0,0.0,0.0,0.0,0.0,0.0,0.0,0.0,-25.750215530395508,0.7824861407279968,0.43649059534072876,0.0,0.0,0.0,0.0,0.0,0.0,0.0,0.0,0.0,0.0032978281378746033,-0.005555187352001667,0.06043849512934685,0.0,0.0,0.0,0.0,0.0,0.0,0.0,0.0,0.0
1606988878034211371,2345567,1606985277443619985,imu_link,-0.005235763266682625,-0.005805956665426493,0.22284440696239471,-0.9748227596282959,0.0,0.0,0.0,0.0,0.0,0.0,0.0,0.0,0.0,-25.750125885009766,0.7822880148887634,0.43665197491645813,0.0,0.0,0.0,0.0,0.0,0.0,0.0,0.0,0.0,0.010007837787270546,0.0018003515433520079,0.05202538147568703,0.0,0.0,0.0,0.0,0.0,0.0,0.0,0.0,0.0
1606988878034228740,2345568,1606985277443688503,imu_link,-0.005235763266682625,-0.005805956665426493,0.22284440696239471,-0.9748227596282959,0.0,0.0,0.0,0.0,0.0,0.0,0.0,0.0,0.0,-25.750125885009766,0.7822880148887634,0.43665197491645813,0.0,0.0,0.0,0.0,0.0,0.0,0.0,0.0,0.0,0.010007837787270546,0.0018003515433520079,0.05202538147568703,0.0,0.0,0.0,0.0,0.0,0.0,0.0,0.0,0.0
1606988878034249129,2345569,1606985277443789363,imu_link,-0.005235914606601,-0.005805307067930698,0.22284545004367828,-0.9748225212097168,0.0,0.0,0.0,0.0,0.0,0.0,0.0,0.0,0.0,-25.750246047973633,0.7822197675704956,0.43668463826179504,0.0,0.0,0.0,0.0,0.0,0.0,0.0,0.0,0.0,-0.0024034359958022833,0.0015648886328563094,0.05141037702560425,0.0,0.0,0.0,0.0,0.0,0.0,0.0,0.0,0.0
1606988878034270083,2345570,1606985277443870698,imu_link,-0.005235914606601,-0.005805307067930698,0.22284545004367828,-0.9748225212097168,0.0,0.0,0.0,0.0,0.0,0.0,0.0,0.0,0.0,-25.750246047973633,0.7822197675704956,0.43668463826179504,0.0,0.0,0.0,0.0,0.0,0.0,0.0,0.0,0.0,-0.0024034359958022833,0.0015648886328563094,0.05141037702560425,0.0,0.0,0.0,0.0,0.0,0.0,0.0,0.0,0.0
1606988878034290897,2345571,1606985277443959406,imu_link,-0.005234711803495884,-0.005803969688713551,0.2228381633758545,-0.9748241901397705,0.0,0.0,0.0,0.0,0.0,0.0,0.0,0.0,0.0,-25.7493896484375,0.7820363640785217,0.4365902543067932,0.0,0.0,0.0,0.0,0.0,0.0,0.0,0.0,0.0,0.0031943409703671932,-0.003248335560783744,0.06685470789670944,0.0,0.0,0.0,0.0,0.0,0.0,0.0,0.0,0.0
1606988878034329434,2345572,1606985277444029145,imu_link,-0.005234711803495884,-0.005803969688713551,0.2228381633758545,-0.9748241901397705,0.0,0.0,0.0,0.0,0.0,0.0,0.0,0.0,0.0,-25.7493896484375,0.7820363640785217,0.4365902543067932,0.0,0.0,0.0,0.0,0.0,0.0,0.0,0.0,0.0,0.0031943409703671932,-0.003248335560783744,0.06685470789670944,0.0,0.0,0.0,0.0,0.0,0.0,0.0,0.0,0.0
1606988878049770801,2345573,1606985277444098243,imu_link,-0.005236322991549969,-0.005804244428873062,0.2228386253118515,-0.974824070930481,0.0,0.0,0.0,0.0,0.0,0.0,0.0,0.0,0.0,-25.74944496154785,0.7821084260940552,0.43676286935806274,0.0,0.0,0.0,0.0,0.0,0.0,0.0,0.0,0.0,0.008288738317787647,-0.015957903116941452,0.058174747973680496,0.0,0.0,0.0,0.0,0.0,0.0,0.0,0.0,0.0
1606988878049786226,2345574,1606985277444171092,imu_link,-0.005236322991549969,-0.005804244428873062,0.2228386253118515,-0.974824070930481,0.0,0.0,0.0,0.0,0.0,0.0,0.0,0.0,0.0,-25.74944496154785,0.7821084260940552,0.43676286935806274,0.0,0.0,0.0,0.0,0.0,0.0,0.0,0.0,0.0,0.008288738317787647,-0.015957903116941452,0.058174747973680496,0.0,0.0,0.0,0.0,0.0,0.0,0.0,0.0,0.0
1606988878052498876,2345575,1606985277456250991,imu_link,-0.005240567959845066,-0.005803115665912628,0.22282876074314117,-0.9748262166976929,0.0,0.0,0.0,0.0,0.0,0.0,0.0,0.0,0.0,-25.7482852935791,0.7820862531661987,0.43727385997772217,0.0,0.0,0.0,0.0,0.0,0.0,0.0,0.0,0.0,-0.005315893329679966,-0.006742498837411404,0.05768228694796562,0.0,0.0,0.0,0.0,0.0,0.0,0.0,0.0,0.0
1606988878052523039,2345576,1606985277456374806,imu_link,-0.005240567959845066,-0.005803115665912628,0.22282876074314117,-0.9748262166976929,0.0,0.0,0.0,0.0,0.0,0.0,0.0,0.0,0.0,-25.7482852935791,0.7820862531661987,0.43727385997772217,0.0,0.0,0.0,0.0,0.0,0.0,0.0,0.0,0.0,-0.005315893329679966,-0.006742498837411404,0.05768228694796562,0.0,0.0,0.0,0.0,0.0,0.0,0.0,0.0,0.0
1606988878052544105,2345577,1606985277456533481,imu_link,-0.0052392249926924706,-0.005804867949336767,0.22282877564430237,-0.9748262166976929,0.0,0.0,0.0,0.0,0.0,0.0,0.0,0.0,0.0,-25.748287200927734,0.7822477221488953,0.4370791018009186,0.0,0.0,0.0,0.0,0.0,0.0,0.0,0.0,0.0,-0.011202341876924038,-0.0021051496732980013,0.03157283738255501,0.0,0.0,0.0,0.0,0.0,0.0,0.0,0.0,0.0
1606988878052559072,2345578,1606985277456625084,imu_link,-0.0052392249926924706,-0.005804867949336767,0.22282877564430237,-0.9748262166976929,0.0,0.0,0.0,0.0,0.0,0.0,0.0,0.0,0.0,-25.748287200927734,0.7822477221488953,0.4370791018009186,0.0,0.0,0.0,0.0,0.0,0.0,0.0,0.0,0.0,-0.011202341876924038,-0.0021051496732980013,0.03157283738255501,0.0,0.0,0.0,0.0,0.0,0.0,0.0,0.0,0.0
1606988878052588185,2345579,1606985277456704449,imu_link,-0.005240537691861391,-0.005802057217806578,0.222830668091774,-0.9748258590698242,0.0,0.0,0.0,0.0,0.0,0.0,0.0,0.0,0.0,-25.748506546020508,0.7819681763648987,0.43729597330093384,0.0,0.0,0.0,0.0,0.0,0.0,0.0,0.0,0.0,0.00708217965438962,-0.002030748873949051,0.03371994569897652,0.0,0.0,0.0,0.0,0.0,0.0,0.0,0.0,0.0
1606988878052628428,2345580,1606985277456799893,imu_link,-0.005240537691861391,-0.005802057217806578,0.222830668091774,-0.9748258590698242,0.0,0.0,0.0,0.0,0.0,0.0,0.0,0.0,0.0,-25.748506546020508,0.7819681763648987,0.43729597330093384,0.0,0.0,0.0,0.0,0.0,0.0,0.0,0.0,0.0,0.00708217965438962,-0.002030748873949051,0.03371994569897652,0.0,0.0,0.0,0.0,0.0,0.0,0.0,0.0,0.0
1606988878052674123,2345581,1606985277456869498,imu_link,-0.005238981917500496,-0.00580375362187624,0.22283117473125458,-0.9748257398605347,0.0,0.0,0.0,0.0,0.0,0.0,0.0,0.0,0.0,-25.74856948852539,0.7821181416511536,0.43707844614982605,0.0,0.0,0.0,0.0,0.0,0.0,0.0,0.0,0.0,0.0117212338373065,-0.00410036277025938,0.09029021114110947,0.0,0.0,0.0,0.0,0.0,0.0,0.0,0.0,0.0
1606988878052702601,2345582,1606985277456937861,imu_link,-0.005238981917500496,-0.00580375362187624,0.22283117473125458,-0.9748257398605347,0.0,0.0,0.0,0.0,0.0,0.0,0.0,0.0,0.0,-25.74856948852539,0.7821181416511536,0.43707844614982605,0.0,0.0,0.0,0.0,0.0,0.0,0.0,0.0,0.0,0.0117212338373065,-0.00410036277025938,0.09029021114110947,0.0,0.0,0.0,0.0,0.0,0.0,0.0,0.0,0.0
1606988878057741281,2345583,1606985277457017654,imu_link,-0.00523917144164443,-0.005806065164506435,0.2228294312953949,-0.9748260974884033,0.0,0.0,0.0,0.0,0.0,0.0,0.0,0.0,0.0,-25.748363494873047,0.7823804616928101,0.4370420575141907,0.0,0.0,0.0,0.0,0.0,0.0,0.0,0.0,0.0,0.007763565052300692,0.0004731435328722,0.09580294042825699,0.0,0.0,0.0,0.0,0.0,0.0,0.0,0.0,0.0
1606988878057753603,2345584,1606985277457094552,imu_link,-0.00523917144164443,-0.005806065164506435,0.2228294312953949,-0.9748260974884033,0.0,0.0,0.0,0.0,0.0,0.0,0.0,0.0,0.0,-25.748363494873047,0.7823804616928101,0.4370420575141907,0.0,0.0,0.0,0.0,0.0,0.0,0.0,0.0,0.0,0.007763565052300692,0.0004731435328722,0.09580294042825699,0.0,0.0,0.0,0.0,0.0,0.0,0.0,0.0,0.0
1606988878059184298,2345585,1606985277469622548,imu_link,-0.005242771934717894,-0.005805945489555597,0.22282929718494415,-0.9748260974884033,0.0,0.0,0.0,0.0,0.0,0.0,0.0,0.0,0.0,-25.748342514038086,0.7824589014053345,0.4374474287033081,0.0,0.0,0.0,0.0,0.0,0.0,0.0,0.0,0.0,0.013225557282567024,0.01324395090341568,0.0811164602637291,0.0,0.0,0.0,0.0,0.0,0.0,0.0,0.0,0.0
1606988878059209488,2345586,1606985277469798982,imu_link,-0.005242771934717894,-0.005805945489555597,0.22282929718494415,-0.9748260974884033,0.0,0.0,0.0,0.0,0.0,0.0,0.0,0.0,0.0,-25.748342514038086,0.7824589014053345,0.4374474287033081,0.0,0.0,0.0,0.0,0.0,0.0,0.0,0.0,0.0,0.013225557282567024,0.01324395090341568,0.0811164602637291,0.0,0.0,0.0,0.0,0.0,0.0,0.0,0.0,0.0
1606988878059223405,2345587,1606985277469904611,imu_link,-0.005240551196038723,-0.005807444918900728,0.22283180058002472,-0.9748255610466003,0.0,0.0,0.0,0.0,0.0,0.0,0.0,0.0,0.0,-25.748640060424805,0.7825708985328674,0.4371590316295624,0.0,0.0,0.0,0.0,0.0,0.0,0.0,0.0,0.0,0.0058660623617470264,0.008214281871914864,0.06366297602653503,0.0,0.0,0.0,0.0,0.0,0.0,0.0,0.0,0.0
1606988878059237556,2345588,1606985277469984882,imu_link,-0.005240551196038723,-0.005807444918900728,0.22283180058002472,-0.9748255610466003,0.0,0.0,0.0,0.0,0.0,0.0,0.0,0.0,0.0,-25.748640060424805,0.7825708985328674,0.4371590316295624,0.0,0.0,0.0,0.0,0.0,0.0,0.0,0.0,0.0,0.0058660623617470264,0.008214281871914864,0.06366297602653503,0.0,0.0,0.0,0.0,0.0,0.0,0.0,0.0,0.0
1606988878063444640,2345589,1606985277470082247,imu_link,-0.005241226404905319,-0.005806474015116692,0.22283127903938293,-0.9748256802558899,0.0,0.0,0.0,0.0,0.0,0.0,0.0,0.0,0.0,-25.748579025268555,0.782479465007782,0.437259703874588,0.0,0.0,0.0,0.0,0.0,0.0,0.0,0.0,0.0,-0.007956364192068577,0.008418903686106205,0.06251595169305801,0.0,0.0,0.0,0.0,0.0,0.0,0.0,0.0,0.0
1606988878063458966,2345590,1606985277470169128,imu_link,-0.005241226404905319,-0.005806474015116692,0.22283127903938293,-0.9748256802558899,0.0,0.0,0.0,0.0,0.0,0.0,0.0,0.0,0.0,-25.748579025268555,0.782479465007782,0.437259703874588,0.0,0.0,0.0,0.0,0.0,0.0,0.0,0.0,0.0,-0.007956364192068577,0.008418903686106205,0.06251595169305801,0.0,0.0,0.0,0.0,0.0,0.0,0.0,0.0,0.0
1606988878063471615,2345591,1606985277470267215,imu_link,-0.005237750243395567,-0.005804876796901226,0.22283431887626648,-0.9748250246047974,0.0,0.0,0.0,0.0,0.0,0.0,0.0,0.0,0.0,-25.748937606811523,0.7822136282920837,0.43690964579582214,0.0,0.0,0.0,0.0,0.0,0.0,0.0,0.0,0.0,-0.017856894060969353,0.006830071564763784,0.06522001326084137,0.0,0.0,0.0,0.0,0.0,0.0,0.0,0.0,0.0
1606988878063475982,2345592,1606985277470413920,imu_link,-0.005237750243395567,-0.005804876796901226,0.22283431887626648,-0.9748250246047974,0.0,0.0,0.0,0.0,0.0,0.0,0.0,0.0,0.0,-25.748937606811523,0.7822136282920837,0.43690964579582214,0.0,0.0,0.0,0.0,0.0,0.0,0.0,0.0,0.0,-0.017856894060969353,0.006830071564763784,0.06522001326084137,0.0,0.0,0.0,0.0,0.0,0.0,0.0,0.0,0.0
1606988878066646004,2345593,1606985277470503502,imu_link,-0.005238479934632778,-0.005803144536912441,0.222833514213562,-0.9748252034187317,0.0,0.0,0.0,0.0,0.0,0.0,0.0,0.0,0.0,-25.748842239379883,0.7820383906364441,0.43703606724739075,0.0,0.0,0.0,0.0,0.0,0.0,0.0,0.0,0.0,-0.006608257070183754,0.0011601727455854416,0.04789188876748085,0.0,0.0,0.0,0.0,0.0,0.0,0.0,0.0,0.0
1606988878066661019,2345594,1606985277470581944,imu_link,-0.005238479934632778,-0.005803144536912441,0.222833514213562,-0.9748252034187317,0.0,0.0,0.0,0.0,0.0,0.0,0.0,0.0,0.0,-25.748842239379883,0.7820383906364441,0.43703606724739075,0.0,0.0,0.0,0.0,0.0,0.0,0.0,0.0,0.0,-0.006608257070183754,0.0011601727455854416,0.04789188876748085,0.0,0.0,0.0,0.0,0.0,0.0,0.0,0.0,0.0
1606988878066668893,2345595,1606985277470659899,imu_link,-0.005237959790974855,-0.005802199710160494,0.22282779216766357,-0.9748265147209167,0.0,0.0,0.0,0.0,0.0,0.0,0.0,0.0,0.0,-25.748170852661133,0.7819169759750366,0.4370066225528717,0.0,0.0,0.0,0.0,0.0,0.0,0.0,0.0,0.0,0.022895652800798416,0.0075976247899234295,0.05836234241724014,0.0,0.0,0.0,0.0,0.0,0.0,0.0,0.0,0.0
1606988878073863102,2345596,1606985277483515827,imu_link,-0.005237959790974855,-0.005802199710160494,0.22282779216766357,-0.9748265147209167,0.0,0.0,0.0,0.0,0.0,0.0,0.0,0.0,0.0,-25.748170852661133,0.7819169759750366,0.4370066225528717,0.0,0.0,0.0,0.0,0.0,0.0,0.0,0.0,0.0,0.022895652800798416,0.0075976247899234295,0.05836234241724014,0.0,0.0,0.0,0.0,0.0,0.0,0.0,0.0,0.0
1606988878077277038,2345597,1606985277483666846,imu_link,-0.005238047800958157,-0.005801773630082607,0.22282613813877106,-0.9748268723487854,0.0,0.0,0.0,0.0,0.0,0.0,0.0,0.0,0.0,-25.74797821044922,0.7818708419799805,0.437028706073761,0.0,0.0,0.0,0.0,0.0,0.0,0.0,0.0,0.0,0.024910463020205498,0.01272139884531498,0.06718759983778,0.0,0.0,0.0,0.0,0.0,0.0,0.0,0.0,0.0
1606988878077303409,2345598,1606985277483751778,imu_link,-0.005238047800958157,-0.005801773630082607,0.22282613813877106,-0.9748268723487854,0.0,0.0,0.0,0.0,0.0,0.0,0.0,0.0,0.0,-25.74797821044922,0.7818708419799805,0.437028706073761,0.0,0.0,0.0,0.0,0.0,0.0,0.0,0.0,0.0,0.024910463020205498,0.01272139884531498,0.06718759983778,0.0,0.0,0.0,0.0,0.0,0.0,0.0,0.0,0.0
1606988878077364849,2345599,1606985277483835797,imu_link,-0.005237012170255184,-0.00580659881234169,0.2228204756975174,-0.9748281836509705,0.0,0.0,0.0,0.0,0.0,0.0,0.0,0.0,0.0,-25.747310638427734,0.7823809385299683,0.43679434061050415,0.0,0.0,0.0,0.0,0.0,0.0,0.0,0.0,0.0,-0.00441301055252552,0.016317883506417274,0.08681633323431015,0.0,0.0,0.0,0.0,0.0,0.0,0.0,0.0,0.0
1606988878077380123,2345600,1606985277483919611,imu_link,-0.005237012170255184,-0.00580659881234169,0.2228204756975174,-0.9748281836509705,0.0,0.0,0.0,0.0,0.0,0.0,0.0,0.0,0.0,-25.747310638427734,0.7823809385299683,0.43679434061050415,0.0,0.0,0.0,0.0,0.0,0.0,0.0,0.0,0.0,-0.00441301055252552,0.016317883506417274,0.08681633323431015,0.0,0.0,0.0,0.0,0.0,0.0,0.0,0.0,0.0
1606988878077395955,2345601,1606985277484001045,imu_link,-0.00523608410730958,-0.005807125940918922,0.22281906008720398,-0.9748284816741943,0.0,0.0,0.0,0.0,0.0,0.0,0.0,0.0,0.0,-25.747146606445312,0.7824154496192932,0.43667832016944885,0.0,0.0,0.0,0.0,0.0,0.0,0.0,0.0,0.0,-0.011068418622016907,-0.0005634956760331988,0.08922716230154037,0.0,0.0,0.0,0.0,0.0,0.0,0.0,0.0,0.0
1606988878077407974,2345602,1606985277484141274,imu_link,-0.00523608410730958,-0.005807125940918922,0.22281906008720398,-0.9748284816741943,0.0,0.0,0.0,0.0,0.0,0.0,0.0,0.0,0.0,-25.747146606445312,0.7824154496192932,0.43667832016944885,0.0,0.0,0.0,0.0,0.0,0.0,0.0,0.0,0.0,-0.011068418622016907,-0.0005634956760331988,0.08922716230154037,0.0,0.0,0.0,0.0,0.0,0.0,0.0,0.0,0.0
1606988878077434574,2345603,1606985277484250221,imu_link,-0.005235923919826746,-0.0058027710765600204,0.22281800210475922,-0.9748287200927734,0.0,0.0,0.0,0.0,0.0,0.0,0.0,0.0,0.0,-25.747020721435547,0.7819243669509888,0.43677249550819397,0.0,0.0,0.0,0.0,0.0,0.0,0.0,0.0,0.0,-0.0022727283649146557,-0.01883293315768242,0.06768958270549774,0.0,0.0,0.0,0.0,0.0,0.0,0.0,0.0,0.0
1606988878077448950,2345604,1606985277484332627,imu_link,-0.005235923919826746,-0.0058027710765600204,0.22281800210475922,-0.9748287200927734,0.0,0.0,0.0,0.0,0.0,0.0,0.0,0.0,0.0,-25.747020721435547,0.7819243669509888,0.43677249550819397,0.0,0.0,0.0,0.0,0.0,0.0,0.0,0.0,0.0,-0.0022727283649146557,-0.01883293315768242,0.06768958270549774,0.0,0.0,0.0,0.0,0.0,0.0,0.0,0.0,0.0
1606988878077458543,2345605,1606985277484414597,imu_link,-0.005235403776168823,-0.005805076099932194,0.22281715273857117,-0.9748288989067078,0.0,0.0,0.0,0.0,0.0,0.0,0.0,0.0,0.0,-25.746923446655273,0.7821682095527649,0.4366562068462372,0.0,0.0,0.0,0.0,0.0,0.0,0.0,0.0,0.0,0.0015365886501967907,-0.0029954162891954184,0.0652192011475563,0.0,0.0,0.0,0.0,0.0,0.0,0.0,0.0,0.0
1606988878077465891,2345606,1606985277484491475,imu_link,-0.005235403776168823,-0.005805076099932194,0.22281715273857117,-0.9748288989067078,0.0,0.0,0.0,0.0,0.0,0.0,0.0,0.0,0.0,-25.746923446655273,0.7821682095527649,0.4366562068462372,0.0,0.0,0.0,0.0,0.0,0.0,0.0,0.0,0.0,0.0015365886501967907,-0.0029954162891954184,0.0652192011475563,0.0,0.0,0.0,0.0,0.0,0.0,0.0,0.0,0.0
1606988878096450835,2345607,1606985277496987384,imu_link,-0.005237158387899399,-0.005805640947073698,0.22281354665756226,-0.9748297333717346,0.0,0.0,0.0,0.0,0.0,0.0,0.0,0.0,0.0,-25.74650001525879,0.7822744846343994,0.4368407130241394,0.0,0.0,0.0,0.0,0.0,0.0,0.0,0.0,0.0,0.0057352809235453606,-0.005381336435675621,0.05553269013762474,0.0,0.0,0.0,0.0,0.0,0.0,0.0,0.0,0.0
1606988878101921417,2345608,1606985277497134194,imu_link,-0.005237158387899399,-0.005805640947073698,0.22281354665756226,-0.9748297333717346,0.0,0.0,0.0,0.0,0.0,0.0,0.0,0.0,0.0,-25.74650001525879,0.7822744846343994,0.4368407130241394,0.0,0.0,0.0,0.0,0.0,0.0,0.0,0.0,0.0,0.0057352809235453606,-0.005381336435675621,0.05553269013762474,0.0,0.0,0.0,0.0,0.0,0.0,0.0,0.0,0.0
1606988878101942789,2345609,1606985277497323046,imu_link,-0.005237644538283348,-0.005804430227726698,0.2228126972913742,-0.974829912185669,0.0,0.0,0.0,0.0,0.0,0.0,0.0,0.0,0.0,-25.746397018432617,0.7821512818336487,0.43692660331726074,0.0,0.0,0.0,0.0,0.0,0.0,0.0,0.0,0.0,-0.00395248644053936,-0.01734837144613266,0.04865490645170212,0.0,0.0,0.0,0.0,0.0,0.0,0.0,0.0,0.0
1606988878101984233,2345610,1606985277497439435,imu_link,-0.005237644538283348,-0.005804430227726698,0.2228126972913742,-0.974829912185669,0.0,0.0,0.0,0.0,0.0,0.0,0.0,0.0,0.0,-25.746397018432617,0.7821512818336487,0.43692660331726074,0.0,0.0,0.0,0.0,0.0,0.0,0.0,0.0,0.0,-0.00395248644053936,-0.01734837144613266,0.04865490645170212,0.0,0.0,0.0,0.0,0.0,0.0,0.0,0.0,0.0
1606988878102048968,2345611,1606985277497537216,imu_link,-0.005240242462605238,-0.0058028255589306355,0.22281506657600403,-0.9748294353485107,0.0,0.0,0.0,0.0,0.0,0.0,0.0,0.0,0.0,-25.746671676635742,0.78203946352005,0.4372559189796448,0.0,0.0,0.0,0.0,0.0,0.0,0.0,0.0,0.0,-0.004810789134353399,-0.01657329499721527,0.04717141389846802,0.0,0.0,0.0,0.0,0.0,0.0,0.0,0.0,0.0
1606988878102059560,2345612,1606985277497648709,imu_link,-0.005240242462605238,-0.0058028255589306355,0.22281506657600403,-0.9748294353485107,0.0,0.0,0.0,0.0,0.0,0.0,0.0,0.0,0.0,-25.746671676635742,0.78203946352005,0.4372559189796448,0.0,0.0,0.0,0.0,0.0,0.0,0.0,0.0,0.0,-0.004810789134353399,-0.01657329499721527,0.04717141389846802,0.0,0.0,0.0,0.0,0.0,0.0,0.0,0.0,0.0
1606988878102069320,2345613,1606985277497735094,imu_link,-0.00524026108905673,-0.005805774591863155,0.222814679145813,-0.9748294949531555,0.0,0.0,0.0,0.0,0.0,0.0,0.0,0.0,0.0,-25.746625900268555,0.7823691964149475,0.4371830224990845,0.0,0.0,0.0,0.0,0.0,0.0,0.0,0.0,0.0,0.006267284043133259,-0.012933839112520218,0.0375690720975399,0.0,0.0,0.0,0.0,0.0,0.0,0.0,0.0,0.0
1606988878102081048,2345614,1606985277497819961,imu_link,-0.00524026108905673,-0.005805774591863155,0.222814679145813,-0.9748294949531555,0.0,0.0,0.0,0.0,0.0,0.0,0.0,0.0,0.0,-25.746625900268555,0.7823691964149475,0.4371830224990845,0.0,0.0,0.0,0.0,0.0,0.0,0.0,0.0,0.0,0.006267284043133259,-0.012933839112520218,0.0375690720975399,0.0,0.0,0.0,0.0,0.0,0.0,0.0,0.0,0.0
1606988878102093137,2345615,1606985277497906952,imu_link,-0.005244366358965635,-0.005805199034512043,0.2228156328201294,-0.9748292565345764,0.0,0.0,0.0,0.0,0.0,0.0,0.0,0.0,0.0,-25.746736526489258,0.7824101448059082,0.4376555383205414,0.0,0.0,0.0,0.0,0.0,0.0,0.0,0.0,0.0,0.011327587068080902,-0.003929987084120512,0.029931556433439255,0.0,0.0,0.0,0.0,0.0,0.0,0.0,0.0,0.0
1606988878104277937,2345616,1606985277497990470,imu_link,-0.005244366358965635,-0.005805199034512043,0.2228156328201294,-0.9748292565345764,0.0,0.0,0.0,0.0,0.0,0.0,0.0,0.0,0.0,-25.746736526489258,0.7824101448059082,0.4376555383205414,0.0,0.0,0.0,0.0,0.0,0.0,0.0,0.0,0.0,0.011327587068080902,-0.003929987084120512,0.029931556433439255,0.0,0.0,0.0,0.0,0.0,0.0,0.0,0.0,0.0
1606988878104299654,2345617,1606985277498063309,imu_link,-0.0052445330657064915,-0.00580318970605731,0.22281605005264282,-0.9748291969299316,0.0,0.0,0.0,0.0,0.0,0.0,0.0,0.0,0.0,-25.74678611755371,0.7821901440620422,0.43772515654563904,0.0,0.0,0.0,0.0,0.0,0.0,0.0,0.0,0.0,0.007323041558265686,0.011110953986644745,0.03786439076066017,0.0,0.0,0.0,0.0,0.0,0.0,0.0,0.0,0.0
1606988878104321583,2345618,1606985277509862446,imu_link,-0.0052445330657064915,-0.00580318970605731,0.22281605005264282,-0.9748291969299316,0.0,0.0,0.0,0.0,0.0,0.0,0.0,0.0,0.0,-25.74678611755371,0.7821901440620422,0.43772515654563904,0.0,0.0,0.0,0.0,0.0,0.0,0.0,0.0,0.0,0.007323041558265686,0.011110953986644745,0.03786439076066017,0.0,0.0,0.0,0.0,0.0,0.0,0.0,0.0,0.0
1606988878104341925,2345619,1606985277510005677,imu_link,-0.005243769381195307,-0.005806890781968832,0.22281521558761597,-0.974829375743866,0.0,0.0,0.0,0.0,0.0,0.0,0.0,0.0,0.0,-25.746686935424805,0.7825837135314941,0.4375460147857666,0.0,0.0,0.0,0.0,0.0,0.0,0.0,0.0,0.0,-0.0027114502154290676,0.014314278028905392,0.05546348914504051,0.0,0.0,0.0,0.0,0.0,0.0,0.0,0.0,0.0
1606988878104369342,2345620,1606985277510188721,imu_link,-0.005243769381195307,-0.005806890781968832,0.22281521558761597,-0.974829375743866,0.0,0.0,0.0,0.0,0.0,0.0,0.0,0.0,0.0,-25.746686935424805,0.7825837135314941,0.4375460147857666,0.0,0.0,0.0,0.0,0.0,0.0,0.0,0.0,0.0,-0.0027114502154290676,0.014314278028905392,0.05546348914504051,0.0,0.0,0.0,0.0,0.0,0.0,0.0,0.0,0.0
1606988878104381538,2345621,1606985277510284973,imu_link,-0.005245639011263847,-0.005805895663797855,0.22281363606452942,-0.9748297333717346,0.0,0.0,0.0,0.0,0.0,0.0,0.0,0.0,0.0,-25.74650001525879,0.7825195789337158,0.43778160214424133,0.0,0.0,0.0,0.0,0.0,0.0,0.0,0.0,0.0,0.0015627623070031404,0.006610032171010971,0.06803910434246063,0.0,0.0,0.0,0.0,0.0,0.0,0.0,0.0,0.0
1606988878104407440,2345622,1606985277510372977,imu_link,-0.005245639011263847,-0.005805895663797855,0.22281363606452942,-0.9748297333717346,0.0,0.0,0.0,0.0,0.0,0.0,0.0,0.0,0.0,-25.74650001525879,0.7825195789337158,0.43778160214424133,0.0,0.0,0.0,0.0,0.0,0.0,0.0,0.0,0.0,0.0015627623070031404,0.006610032171010971,0.06803910434246063,0.0,0.0,0.0,0.0,0.0,0.0,0.0,0.0,0.0
1606988878104519834,2345623,1606985277510480205,imu_link,-0.005242100916802883,-0.005807338748127222,0.22281238436698914,-0.9748300313949585,0.0,0.0,0.0,0.0,0.0,0.0,0.0,0.0,0.0,-25.746355056762695,0.7825899124145508,0.43735042214393616,0.0,0.0,0.0,0.0,0.0,0.0,0.0,0.0,0.0,0.010110350325703621,0.0056965891271829605,0.08030179142951965,0.0,0.0,0.0,0.0,0.0,0.0,0.0,0.0,0.0
1606988878104555320,2345624,1606985277510564160,imu_link,-0.005242100916802883,-0.005807338748127222,0.22281238436698914,-0.9748300313949585,0.0,0.0,0.0,0.0,0.0,0.0,0.0,0.0,0.0,-25.746355056762695,0.7825899124145508,0.43735042214393616,0.0,0.0,0.0,0.0,0.0,0.0,0.0,0.0,0.0,0.010110350325703621,0.0056965891271829605,0.08030179142951965,0.0,0.0,0.0,0.0,0.0,0.0,0.0,0.0,0.0
1606988878117469416,2345625,1606985277510640446,imu_link,-0.005242577288299799,-0.005808159708976746,0.22281362116336823,-0.9748297333717346,0.0,0.0,0.0,0.0,0.0,0.0,0.0,0.0,0.0,-25.74650001525879,0.7826942801475525,0.4373817443847656,0.0,0.0,0.0,0.0,0.0,0.0,0.0,0.0,0.0,0.012821953743696213,-0.0053900014609098434,0.07582621276378632,0.0,0.0,0.0,0.0,0.0,0.0,0.0,0.0,0.0
1606988878117484922,2345626,1606985277510726400,imu_link,-0.005242577288299799,-0.005808159708976746,0.22281362116336823,-0.9748297333717346,0.0,0.0,0.0,0.0,0.0,0.0,0.0,0.0,0.0,-25.74650001525879,0.7826942801475525,0.4373817443847656,0.0,0.0,0.0,0.0,0.0,0.0,0.0,0.0,0.0,0.012821953743696213,-0.0053900014609098434,0.07582621276378632,0.0,0.0,0.0,0.0,0.0,0.0,0.0,0.0,0.0
1606988878117493562,2345627,1606985277510811773,imu_link,-0.005246356595307589,-0.005809044931083918,0.2228134423494339,-0.9748297333717346,0.0,0.0,0.0,0.0,0.0,0.0,0.0,0.0,0.0,-25.746477127075195,0.7828896045684814,0.43778151273727417,0.0,0.0,0.0,0.0,0.0,0.0,0.0,0.0,0.0,0.005651126150041819,-0.008944000117480755,0.0691237524151802,0.0,0.0,0.0,0.0,0.0,0.0,0.0,0.0,0.0
1606988878117505729,2345628,1606985277523568486,imu_link,-0.005246356595307589,-0.005809044931083918,0.2228134423494339,-0.9748297333717346,0.0,0.0,0.0,0.0,0.0,0.0,0.0,0.0,0.0,-25.746477127075195,0.7828896045684814,0.43778151273727417,0.0,0.0,0.0,0.0,0.0,0.0,0.0,0.0,0.0,0.005651126150041819,-0.008944000117480755,0.0691237524151802,0.0,0.0,0.0,0.0,0.0,0.0,0.0,0.0,0.0
1606988878117520788,2345629,1606985277523710038,imu_link,-0.005246530286967754,-0.005808396730571985,0.2228120118379593,-0.9748300909996033,0.0,0.0,0.0,0.0,0.0,0.0,0.0,0.0,0.0,-25.746307373046875,0.782820999622345,0.43781861662864685,0.0,0.0,0.0,0.0,0.0,0.0,0.0,0.0,0.0,-0.0052690692245960236,-0.007233468350023031,0.07179804146289825,0.0,0.0,0.0,0.0,0.0,0.0,0.0,0.0,0.0
1606988878117531353,2345630,1606985277523912121,imu_link,-0.005246530286967754,-0.005808396730571985,0.2228120118379593,-0.9748300909996033,0.0,0.0,0.0,0.0,0.0,0.0,0.0,0.0,0.0,-25.746307373046875,0.782820999622345,0.43781861662864685,0.0,0.0,0.0,0.0,0.0,0.0,0.0,0.0,0.0,-0.0052690692245960236,-0.007233468350023031,0.07179804146289825,0.0,0.0,0.0,0.0,0.0,0.0,0.0,0.0,0.0
1606988878117541263,2345631,1606985277524015375,imu_link,-0.005248326808214188,-0.00580776808783412,0.22281543910503387,-0.9748292565345764,0.0,0.0,0.0,0.0,0.0,0.0,0.0,0.0,0.0,-25.74671173095703,0.7827981114387512,0.4380325973033905,0.0,0.0,0.0,0.0,0.0,0.0,0.0,0.0,0.0,-0.0003955399733968079,0.009125757962465286,0.06082630529999733,0.0,0.0,0.0,0.0,0.0,0.0,0.0,0.0,0.0
