%time,field.header.seq,field.header.stamp,field.header.frame_id,field.orientation.x,field.orientation.y,field.orientation.z,field.orientation.w,field.orientation_covariance0,field.orientation_covariance1,field.orientation_covariance2,field.orientation_covariance3,field.orientation_covariance4,field.orientation_covariance5,field.orientation_covariance6,field.orientation_covariance7,field.orientation_covariance8,field.angular_velocity.x,field.angular_velocity.y,field.angular_velocity.z,field.angular_velocity_covariance0,field.angular_velocity_covariance1,field.angular_velocity_covariance2,field.angular_velocity_covariance3,field.angular_velocity_covariance4,field.angular_velocity_covariance5,field.angular_velocity_covariance6,field.angular_velocity_covariance7,field.angular_velocity_covariance8,field.linear_acceleration.x,field.linear_acceleration.y,field.linear_acceleration.z,field.linear_acceleration_covariance0,field.linear_acceleration_covariance1,field.linear_acceleration_covariance2,field.linear_acceleration_covariance3,field.linear_acceleration_covariance4,field.linear_acceleration_covariance5,field.linear_acceleration_covariance6,field.linear_acceleration_covariance7,field.linear_acceleration_covariance8
1606987357357521330,1128965,1606983756675417280,imu_link,0.00814608670771122,0.00569135183468461,0.5827296376228333,0.8126053810119629,0.0,0.0,0.0,0.0,0.0,0.0,0.0,0.0,0.0,71.28943634033203,-0.013996550813317299,1.1386650800704956,0.0,0.0,0.0,0.0,0.0,0.0,0.0,0.0,0.0,0.16518856585025787,1.5998190641403198,-1.0754358768463135,0.0,0.0,0.0,0.0,0.0,0.0,0.0,0.0,0.0
1606987357357539407,1128966,1606983756675542584,imu_link,0.00814608670771122,0.00569135183468461,0.5827296376228333,0.8126053810119629,0.0,0.0,0.0,0.0,0.0,0.0,0.0,0.0,0.0,71.28943634033203,-0.013996550813317299,1.1386650800704956,0.0,0.0,0.0,0.0,0.0,0.0,0.0,0.0,0.0,0.16518856585025787,1.5998190641403198,-1.0754358768463135,0.0,0.0,0.0,0.0,0.0,0.0,0.0,0.0,0.0
1606987357357553651,1128967,1606983756675665450,imu_link,0.00800181832164526,0.00575431901961565,0.5825101733207703,0.8127636313438416,0.0,0.0,0.0,0.0,0.0,0.0,0.0,0.0,0.0,71.25858306884766,0.0018060513539239764,1.1294344663619995,0.0,0.0,0.0,0.0,0.0,0.0,0.0,0.0,0.0,0.17415471374988556,0.9366724491119385,-1.0013560056686401,0.0,0.0,0.0,0.0,0.0,0.0,0.0,0.0,0.0
1606987357357558661,1128968,1606983756675751031,imu_link,0.00800181832164526,0.00575431901961565,0.5825101733207703,0.8127636313438416,0.0,0.0,0.0,0.0,0.0,0.0,0.0,0.0,0.0,71.25858306884766,0.0018060513539239764,1.1294344663619995,0.0,0.0,0.0,0.0,0.0,0.0,0.0,0.0,0.0,0.17415471374988556,0.9366724491119385,-1.0013560056686401,0.0,0.0,0.0,0.0,0.0,0.0,0.0,0.0,0.0
1606987357364989220,1128969,1606983756675828258,imu_link,0.007853953167796135,0.005818725097924471,0.582284688949585,0.8129262924194336,0.0,0.0,0.0,0.0,0.0,0.0,0.0,0.0,0.0,71.22687530517578,0.017986074090003967,1.119956135749817,0.0,0.0,0.0,0.0,0.0,0.0,0.0,0.0,0.0,0.2678004205226898,0.10177604109048843,-0.9547016024589539,0.0,0.0,0.0,0.0,0.0,0.0,0.0,0.0,0.0
1606987357365006030,1128970,1606983756675897298,imu_link,0.007853953167796135,0.005818725097924471,0.582284688949585,0.8129262924194336,0.0,0.0,0.0,0.0,0.0,0.0,0.0,0.0,0.0,71.22687530517578,0.017986074090003967,1.119956135749817,0.0,0.0,0.0,0.0,0.0,0.0,0.0,0.0,0.0,0.2678004205226898,0.10177604109048843,-0.9547016024589539,0.0,0.0,0.0,0.0,0.0,0.0,0.0,0.0,0.0
1606987357365011448,1128971,1606983756675984838,imu_link,0.007703442592173815,0.005881904624402523,0.5820730924606323,0.8130787014961243,0.0,0.0,0.0,0.0,0.0,0.0,0.0,0.0,0.0,71.19715118408203,0.03420382738113403,1.110141396522522,0.0,0.0,0.0,0.0,0.0,0.0,0.0,0.0,0.0,0.5067899823188782,-0.29887279868125916,-0.8514659404754639,0.0,0.0,0.0,0.0,0.0,0.0,0.0,0.0,0.0
1606987357365017990,1128972,1606983756676059254,imu_link,0.007703442592173815,0.005881904624402523,0.5820730924606323,0.8130787014961243,0.0,0.0,0.0,0.0,0.0,0.0,0.0,0.0,0.0,71.19715118408203,0.03420382738113403,1.110141396522522,0.0,0.0,0.0,0.0,0.0,0.0,0.0,0.0,0.0,0.5067899823188782,-0.29887279868125916,-0.8514659404754639,0.0,0.0,0.0,0.0,0.0,0.0,0.0,0.0,0.0
1606987357406181242,1128973,1606983756676130077,imu_link,0.0075559294782578945,0.005940220784395933,0.5818576812744141,0.8132337927818298,0.0,0.0,0.0,0.0,0.0,0.0,0.0,0.0,0.0,71.16687774658203,0.0497686043381691,1.1002732515335083,0.0,0.0,0.0,0.0,0.0,0.0,0.0,0.0,0.0,0.839238166809082,-0.041832417249679565,-0.7508084177970886,0.0,0.0,0.0,0.0,0.0,0.0,0.0,0.0,0.0
1606987357406204769,1128974,1606983756676201567,imu_link,0.0075559294782578945,0.005940220784395933,0.5818576812744141,0.8132337927818298,0.0,0.0,0.0,0.0,0.0,0.0,0.0,0.0,0.0,71.16687774658203,0.0497686043381691,1.1002732515335083,0.0,0.0,0.0,0.0,0.0,0.0,0.0,0.0,0.0,0.839238166809082,-0.041832417249679565,-0.7508084177970886,0.0,0.0,0.0,0.0,0.0,0.0,0.0,0.0,0.0
1606987357406212532,1128975,1606983756676277226,imu_link,0.007415350526571274,0.006003051530569792,0.581658124923706,0.8133774399757385,0.0,0.0,0.0,0.0,0.0,0.0,0.0,0.0,0.0,71.13884735107422,0.06526540219783783,1.0913450717926025,0.0,0.0,0.0,0.0,0.0,0.0,0.0,0.0,0.0,1.0148279666900635,0.6690157055854797,-0.6176034808158875,0.0,0.0,0.0,0.0,0.0,0.0,0.0,0.0,0.0
1606987357406229621,1128976,1606983756689402168,imu_link,0.007415350526571274,0.006003051530569792,0.581658124923706,0.8133774399757385,0.0,0.0,0.0,0.0,0.0,0.0,0.0,0.0,0.0,71.13884735107422,0.06526540219783783,1.0913450717926025,0.0,0.0,0.0,0.0,0.0,0.0,0.0,0.0,0.0,1.0148279666900635,0.6690157055854797,-0.6176034808158875,0.0,0.0,0.0,0.0,0.0,0.0,0.0,0.0,0.0
1606987357406261568,1128977,1606983756689527435,imu_link,0.0072848317213356495,0.006067666690796614,0.5814558863639832,0.8135226964950562,0.0,0.0,0.0,0.0,0.0,0.0,0.0,0.0,0.0,71.1104507446289,0.08025725185871124,1.0834664106369019,0.0,0.0,0.0,0.0,0.0,0.0,0.0,0.0,0.0,0.9442819952964783,1.3355470895767212,-0.5109919309616089,0.0,0.0,0.0,0.0,0.0,0.0,0.0,0.0,0.0
1606987357444405182,1128978,1606983756689662816,imu_link,0.0072848317213356495,0.006067666690796614,0.5814558863639832,0.8135226964950562,0.0,0.0,0.0,0.0,0.0,0.0,0.0,0.0,0.0,71.1104507446289,0.08025725185871124,1.0834664106369019,0.0,0.0,0.0,0.0,0.0,0.0,0.0,0.0,0.0,0.9442819952964783,1.3355470895767212,-0.5109919309616089,0.0,0.0,0.0,0.0,0.0,0.0,0.0,0.0,0.0
1606987357444421829,1128979,1606983756689744730,imu_link,0.00716005964204669,0.0061357044614851475,0.5812694430351257,0.8136565089225769,0.0,0.0,0.0,0.0,0.0,0.0,0.0,0.0,0.0,71.08428955078125,0.0951605811715126,1.0763460397720337,0.0,0.0,0.0,0.0,0.0,0.0,0.0,0.0,0.0,0.7333782315254211,1.4413641691207886,-0.5021249055862427,0.0,0.0,0.0,0.0,0.0,0.0,0.0,0.0,0.0
1606987357444427276,1128980,1606983756689835816,imu_link,0.00716005964204669,0.0061357044614851475,0.5812694430351257,0.8136565089225769,0.0,0.0,0.0,0.0,0.0,0.0,0.0,0.0,0.0,71.08428955078125,0.0951605811715126,1.0763460397720337,0.0,0.0,0.0,0.0,0.0,0.0,0.0,0.0,0.0,0.7333782315254211,1.4413641691207886,-0.5021249055862427,0.0,0.0,0.0,0.0,0.0,0.0,0.0,0.0,0.0
1606987357444444225,1128981,1606983756689908192,imu_link,0.0070354510098695755,0.006205790676176548,0.5810805559158325,0.8137919902801514,0.0,0.0,0.0,0.0,0.0,0.0,0.0,0.0,0.0,71.05777740478516,0.11024390161037445,1.069370150566101,0.0,0.0,0.0,0.0,0.0,0.0,0.0,0.0,0.0,0.4347018003463745,1.0180277824401855,-0.3588423728942871,0.0,0.0,0.0,0.0,0.0,0.0,0.0,0.0,0.0
1606987357471956427,1128982,1606983756689992280,imu_link,0.0070354510098695755,0.006205790676176548,0.5810805559158325,0.8137919902801514,0.0,0.0,0.0,0.0,0.0,0.0,0.0,0.0,0.0,71.05777740478516,0.11024390161037445,1.069370150566101,0.0,0.0,0.0,0.0,0.0,0.0,0.0,0.0,0.0,0.4347018003463745,1.0180277824401855,-0.3588423728942871,0.0,0.0,0.0,0.0,0.0,0.0,0.0,0.0,0.0
1606987357471971383,1128983,1606983756690100905,imu_link,0.0069113667123019695,0.006275980733335018,0.5809044241905212,0.8139182925224304,0.0,0.0,0.0,0.0,0.0,0.0,0.0,0.0,0.0,71.03307342529297,0.1252821385860443,1.0624454021453857,0.0,0.0,0.0,0.0,0.0,0.0,0.0,0.0,0.0,0.31641194224357605,0.38879847526550293,-0.1868906319141388,0.0,0.0,0.0,0.0,0.0,0.0,0.0,0.0,0.0
1606987357472001088,1128984,1606983756690205520,imu_link,0.0069113667123019695,0.006275980733335018,0.5809044241905212,0.8139182925224304,0.0,0.0,0.0,0.0,0.0,0.0,0.0,0.0,0.0,71.03307342529297,0.1252821385860443,1.0624454021453857,0.0,0.0,0.0,0.0,0.0,0.0,0.0,0.0,0.0,0.31641194224357605,0.38879847526550293,-0.1868906319141388,0.0,0.0,0.0,0.0,0.0,0.0,0.0,0.0,0.0
1606987357472038248,1128985,1606983756690328934,imu_link,0.006786172743886709,0.00634356215596199,0.5807215571403503,0.8140493035316467,0.0,0.0,0.0,0.0,0.0,0.0,0.0,0.0,0.0,71.00743103027344,0.1401565670967102,1.055235743522644,0.0,0.0,0.0,0.0,0.0,0.0,0.0,0.0,0.0,0.5619889497756958,-0.1299668699502945,-0.06523946672677994,0.0,0.0,0.0,0.0,0.0,0.0,0.0,0.0,0.0
1606987357472057686,1128986,1606983756690422070,imu_link,0.006786172743886709,0.00634356215596199,0.5807215571403503,0.8140493035316467,0.0,0.0,0.0,0.0,0.0,0.0,0.0,0.0,0.0,71.00743103027344,0.1401565670967102,1.055235743522644,0.0,0.0,0.0,0.0,0.0,0.0,0.0,0.0,0.0,0.5619889497756958,-0.1299668699502945,-0.06523946672677994,0.0,0.0,0.0,0.0,0.0,0.0,0.0,0.0,0.0
1606987357497992330,1128987,1606983756702757522,imu_link,0.006660057697445154,0.006407689303159714,0.5805469751358032,0.8141742944717407,0.0,0.0,0.0,0.0,0.0,0.0,0.0,0.0,0.0,70.98294830322266,0.15475600957870483,1.0477054119110107,0.0,0.0,0.0,0.0,0.0,0.0,0.0,0.0,0.0,0.93267822265625,-0.2121712863445282,0.0467919185757637,0.0,0.0,0.0,0.0,0.0,0.0,0.0,0.0,0.0
1606987357498025093,1128988,1606983756702900493,imu_link,0.006660057697445154,0.006407689303159714,0.5805469751358032,0.8141742944717407,0.0,0.0,0.0,0.0,0.0,0.0,0.0,0.0,0.0,70.98294830322266,0.15475600957870483,1.0477054119110107,0.0,0.0,0.0,0.0,0.0,0.0,0.0,0.0,0.0,0.93267822265625,-0.2121712863445282,0.0467919185757637,0.0,0.0,0.0,0.0,0.0,0.0,0.0,0.0,0.0
1606987357498058756,1128989,1606983756703066442,imu_link,0.006535198539495468,0.006466259248554707,0.580372154712677,0.8142995834350586,0.0,0.0,0.0,0.0,0.0,0.0,0.0,0.0,0.0,70.95841979980469,0.16875059902668,1.0399162769317627,0.0,0.0,0.0,0.0,0.0,0.0,0.0,0.0,0.0,1.24825119972229,0.10400933772325516,0.10827145725488663,0.0,0.0,0.0,0.0,0.0,0.0,0.0,0.0,0.0
1606987357498068024,1128990,1606983756703174412,imu_link,0.006535198539495468,0.006466259248554707,0.580372154712677,0.8142995834350586,0.0,0.0,0.0,0.0,0.0,0.0,0.0,0.0,0.0,70.95841979980469,0.16875059902668,1.0399162769317627,0.0,0.0,0.0,0.0,0.0,0.0,0.0,0.0,0.0,1.24825119972229,0.10400933772325516,0.10827145725488663,0.0,0.0,0.0,0.0,0.0,0.0,0.0,0.0,0.0
1606987357527443094,1128991,1606983756703265207,imu_link,0.006417715921998024,0.0065264408476650715,0.5802030563354492,0.8144204616546631,0.0,0.0,0.0,0.0,0.0,0.0,0.0,0.0,0.0,70.93470764160156,0.1823943853378296,1.0329182147979736,0.0,0.0,0.0,0.0,0.0,0.0,0.0,0.0,0.0,1.2897454500198364,0.5960163474082947,0.18559041619300842,0.0,0.0,0.0,0.0,0.0,0.0,0.0,0.0,0.0
1606987357527473054,1128992,1606983756703345353,imu_link,0.006417715921998024,0.0065264408476650715,0.5802030563354492,0.8144204616546631,0.0,0.0,0.0,0.0,0.0,0.0,0.0,0.0,0.0,70.93470764160156,0.1823943853378296,1.0329182147979736,0.0,0.0,0.0,0.0,0.0,0.0,0.0,0.0,0.0,1.2897454500198364,0.5960163474082947,0.18559041619300842,0.0,0.0,0.0,0.0,0.0,0.0,0.0,0.0,0.0
1606987357527503697,1128993,1606983756703452781,imu_link,0.006307578645646572,0.006585478782653809,0.5800344347953796,0.8145409822463989,0.0,0.0,0.0,0.0,0.0,0.0,0.0,0.0,0.0,70.91106414794922,0.1954396665096283,1.0265244245529175,0.0,0.0,0.0,0.0,0.0,0.0,0.0,0.0,0.0,1.0408225059509277,0.950745701789856,0.26485615968704224,0.0,0.0,0.0,0.0,0.0,0.0,0.0,0.0,0.0
1606987357527514799,1128994,1606983756703533388,imu_link,0.006307578645646572,0.006585478782653809,0.5800344347953796,0.8145409822463989,0.0,0.0,0.0,0.0,0.0,0.0,0.0,0.0,0.0,70.91106414794922,0.1954396665096283,1.0265244245529175,0.0,0.0,0.0,0.0,0.0,0.0,0.0,0.0,0.0,1.0408225059509277,0.950745701789856,0.26485615968704224,0.0,0.0,0.0,0.0,0.0,0.0,0.0,0.0,0.0
1606987357527520244,1128995,1606983756703659891,imu_link,0.00619834428653121,0.006644661072641611,0.579868733882904,0.8146592378616333,0.0,0.0,0.0,0.0,0.0,0.0,0.0,0.0,0.0,70.8878402709961,0.20843201875686646,1.0202200412750244,0.0,0.0,0.0,0.0,0.0,0.0,0.0,0.0,0.0,0.7120912075042725,0.9414075016975403,0.3454274833202362,0.0,0.0,0.0,0.0,0.0,0.0,0.0,0.0,0.0
1606987357533610100,1128996,1606983756703745403,imu_link,0.00619834428653121,0.006644661072641611,0.579868733882904,0.8146592378616333,0.0,0.0,0.0,0.0,0.0,0.0,0.0,0.0,0.0,70.8878402709961,0.20843201875686646,1.0202200412750244,0.0,0.0,0.0,0.0,0.0,0.0,0.0,0.0,0.0,0.7120912075042725,0.9414075016975403,0.3454274833202362,0.0,0.0,0.0,0.0,0.0,0.0,0.0,0.0,0.0
1606987357533631661,1128997,1606983756703833407,imu_link,0.006090093869715929,0.0067049129866063595,0.5797027945518494,0.8147777318954468,0.0,0.0,0.0,0.0,0.0,0.0,0.0,0.0,0.0,70.86457824707031,0.22145669162273407,1.0140730142593384,0.0,0.0,0.0,0.0,0.0,0.0,0.0,0.0,0.0,0.5573133230209351,0.5740405917167664,0.4221703112125397,0.0,0.0,0.0,0.0,0.0,0.0,0.0,0.0,0.0
1606987357533640572,1128998,1606983756716565764,imu_link,0.006090093869715929,0.0067049129866063595,0.5797027945518494,0.8147777318954468,0.0,0.0,0.0,0.0,0.0,0.0,0.0,0.0,0.0,70.86457824707031,0.22145669162273407,1.0140730142593384,0.0,0.0,0.0,0.0,0.0,0.0,0.0,0.0,0.0,0.5573133230209351,0.5740405917167664,0.4221703112125397,0.0,0.0,0.0,0.0,0.0,0.0,0.0,0.0,0.0
1606987357533646746,1128999,1606983756716705657,imu_link,0.005982365924865007,0.006762068718671799,0.5795373320579529,0.8148956298828125,0.0,0.0,0.0,0.0,0.0,0.0,0.0,0.0,0.0,70.84139251708984,0.23415423929691315,1.007764220237732,0.0,0.0,0.0,0.0,0.0,0.0,0.0,0.0,0.0,1.0842245817184448,-0.04685153067111969,0.5595139265060425,0.0,0.0,0.0,0.0,0.0,0.0,0.0,0.0,0.0
1606987357567453785,1129000,1606983756716858541,imu_link,0.005982365924865007,0.006762068718671799,0.5795373320579529,0.8148956298828125,0.0,0.0,0.0,0.0,0.0,0.0,0.0,0.0,0.0,70.84139251708984,0.23415423929691315,1.007764220237732,0.0,0.0,0.0,0.0,0.0,0.0,0.0,0.0,0.0,1.0842245817184448,-0.04685153067111969,0.5595139265060425,0.0,0.0,0.0,0.0,0.0,0.0,0.0,0.0,0.0
1606987357567524233,1129001,1606983756716960713,imu_link,0.005871006287634373,0.006808449048548937,0.5793648362159729,0.8150188326835632,0.0,0.0,0.0,0.0,0.0,0.0,0.0,0.0,0.0,70.81719207763672,0.24609293043613434,1.000393271446228,0.0,0.0,0.0,0.0,0.0,0.0,0.0,0.0,0.0,1.9586806297302246,-0.5719280242919922,0.5496721267700195,0.0,0.0,0.0,0.0,0.0,0.0,0.0,0.0,0.0
1606987357567544187,1129002,1606983756717041545,imu_link,0.005871006287634373,0.006808449048548937,0.5793648362159729,0.8150188326835632,0.0,0.0,0.0,0.0,0.0,0.0,0.0,0.0,0.0,70.81719207763672,0.24609293043613434,1.000393271446228,0.0,0.0,0.0,0.0,0.0,0.0,0.0,0.0,0.0,1.9586806297302246,-0.5719280242919922,0.5496721267700195,0.0,0.0,0.0,0.0,0.0,0.0,0.0,0.0,0.0
1606987357567580912,1129003,1606983756717143862,imu_link,0.005766690708696842,0.006839711684733629,0.5791913866996765,0.8151424527168274,0.0,0.0,0.0,0.0,0.0,0.0,0.0,0.0,0.0,70.79285430908203,0.25614985823631287,0.9926719069480896,0.0,0.0,0.0,0.0,0.0,0.0,0.0,0.0,0.0,2.3077752590179443,-0.41287994384765625,0.6614462733268738,0.0,0.0,0.0,0.0,0.0,0.0,0.0,0.0,0.0
1606987357567600855,1129004,1606983756717230051,imu_link,0.005766690708696842,0.006839711684733629,0.5791913866996765,0.8151424527168274,0.0,0.0,0.0,0.0,0.0,0.0,0.0,0.0,0.0,70.79285430908203,0.25614985823631287,0.9926719069480896,0.0,0.0,0.0,0.0,0.0,0.0,0.0,0.0,0.0,2.3077752590179443,-0.41287994384765625,0.6614462733268738,0.0,0.0,0.0,0.0,0.0,0.0,0.0,0.0,0.0
1606987357576131598,1129005,1606983756717302865,imu_link,0.005671646445989609,0.006867231801152229,0.5790091753005981,0.8152724504470825,0.0,0.0,0.0,0.0,0.0,0.0,0.0,0.0,0.0,70.76727294921875,0.2652494013309479,0.9855608940124512,0.0,0.0,0.0,0.0,0.0,0.0,0.0,0.0,0.0,1.927770733833313,0.5633158087730408,0.6853125095367432,0.0,0.0,0.0,0.0,0.0,0.0,0.0,0.0,0.0
1606987357576177547,1129006,1606983756717381567,imu_link,0.005671646445989609,0.006867231801152229,0.5790091753005981,0.8152724504470825,0.0,0.0,0.0,0.0,0.0,0.0,0.0,0.0,0.0,70.76727294921875,0.2652494013309479,0.9855608940124512,0.0,0.0,0.0,0.0,0.0,0.0,0.0,0.0,0.0,1.927770733833313,0.5633158087730408,0.6853125095367432,0.0,0.0,0.0,0.0,0.0,0.0,0.0,0.0,0.0
1606987357576204709,1129007,1606983756717461437,imu_link,0.005585665348917246,0.006899776868522167,0.5788294672966003,0.815400242805481,0.0,0.0,0.0,0.0,0.0,0.0,0.0,0.0,0.0,70.7420654296875,0.2742108106613159,0.9796274304389954,0.0,0.0,0.0,0.0,0.0,0.0,0.0,0.0,0.0,0.909966766834259,1.5960438251495361,0.6239815354347229,0.0,0.0,0.0,0.0,0.0,0.0,0.0,0.0,0.0
1606987357576218328,1129008,1606983756717540164,imu_link,0.005585665348917246,0.006899776868522167,0.5788294672966003,0.815400242805481,0.0,0.0,0.0,0.0,0.0,0.0,0.0,0.0,0.0,70.7420654296875,0.2742108106613159,0.9796274304389954,0.0,0.0,0.0,0.0,0.0,0.0,0.0,0.0,0.0,0.909966766834259,1.5960438251495361,0.6239815354347229,0.0,0.0,0.0,0.0,0.0,0.0,0.0,0.0,0.0
1606987357595200128,1129009,1606983756729557736,imu_link,0.0055034467950463295,0.006940683349967003,0.5786476135253906,0.8155296444892883,0.0,0.0,0.0,0.0,0.0,0.0,0.0,0.0,0.0,70.716552734375,0.2837042808532715,0.9745950698852539,0.0,0.0,0.0,0.0,0.0,0.0,0.0,0.0,0.0,-0.054548799991607666,1.970449686050415,0.6791377067565918,0.0,0.0,0.0,0.0,0.0,0.0,0.0,0.0,0.0
1606987357595259053,1129010,1606983756729699309,imu_link,0.0055034467950463295,0.006940683349967003,0.5786476135253906,0.8155296444892883,0.0,0.0,0.0,0.0,0.0,0.0,0.0,0.0,0.0,70.716552734375,0.2837042808532715,0.9745950698852539,0.0,0.0,0.0,0.0,0.0,0.0,0.0,0.0,0.0,-0.054548799991607666,1.970449686050415,0.6791377067565918,0.0,0.0,0.0,0.0,0.0,0.0,0.0,0.0,0.0
1606987357595281317,1129011,1606983756729861494,imu_link,0.005419343709945679,0.006989572197198868,0.5784643292427063,0.815659761428833,0.0,0.0,0.0,0.0,0.0,0.0,0.0,0.0,0.0,70.69087219238281,0.294067919254303,0.9699114561080933,0.0,0.0,0.0,0.0,0.0,0.0,0.0,0.0,0.0,-0.3745744526386261,1.6275097131729126,0.5824865698814392,0.0,0.0,0.0,0.0,0.0,0.0,0.0,0.0,0.0
1606987357595307583,1129012,1606983756729956960,imu_link,0.005419343709945679,0.006989572197198868,0.5784643292427063,0.815659761428833,0.0,0.0,0.0,0.0,0.0,0.0,0.0,0.0,0.0,70.69087219238281,0.294067919254303,0.9699114561080933,0.0,0.0,0.0,0.0,0.0,0.0,0.0,0.0,0.0,-0.3745744526386261,1.6275097131729126,0.5824865698814392,0.0,0.0,0.0,0.0,0.0,0.0,0.0,0.0,0.0
1606987357595324159,1129013,1606983756730030375,imu_link,0.005338394548743963,0.0070398966781795025,0.5782749652862549,0.8157941699028015,0.0,0.0,0.0,0.0,0.0,0.0,0.0,0.0,0.0,70.66433715820312,0.3043619990348816,0.965610682964325,0.0,0.0,0.0,0.0,0.0,0.0,0.0,0.0,0.0,0.018544400110840797,0.9041501879692078,0.6523239612579346,0.0,0.0,0.0,0.0,0.0,0.0,0.0,0.0,0.0
1606987357624478874,1129014,1606983756730133734,imu_link,0.005338394548743963,0.0070398966781795025,0.5782749652862549,0.8157941699028015,0.0,0.0,0.0,0.0,0.0,0.0,0.0,0.0,0.0,70.66433715820312,0.3043619990348816,0.965610682964325,0.0,0.0,0.0,0.0,0.0,0.0,0.0,0.0,0.0,0.018544400110840797,0.9041501879692078,0.6523239612579346,0.0,0.0,0.0,0.0,0.0,0.0,0.0,0.0,0.0
1606987357624509930,1129015,1606983756730217723,imu_link,0.005259628873318434,0.007082778494805098,0.5780764222145081,0.815934956073761,0.0,0.0,0.0,0.0,0.0,0.0,0.0,0.0,0.0,70.63650512695312,0.31382420659065247,0.9610130190849304,0.0,0.0,0.0,0.0,0.0,0.0,0.0,0.0,0.0,0.9683473110198975,0.3791444003582001,0.6499078273773193,0.0,0.0,0.0,0.0,0.0,0.0,0.0,0.0,0.0
1606987357624556769,1129016,1606983756730299478,imu_link,0.005259628873318434,0.007082778494805098,0.5780764222145081,0.815934956073761,0.0,0.0,0.0,0.0,0.0,0.0,0.0,0.0,0.0,70.63650512695312,0.31382420659065247,0.9610130190849304,0.0,0.0,0.0,0.0,0.0,0.0,0.0,0.0,0.0,0.9683473110198975,0.3791444003582001,0.6499078273773193,0.0,0.0,0.0,0.0,0.0,0.0,0.0,0.0,0.0
1606987357624570384,1129017,1606983756730380370,imu_link,0.00518407067283988,0.007114313077181578,0.577875018119812,0.8160778880119324,0.0,0.0,0.0,0.0,0.0,0.0,0.0,0.0,0.0,70.60826873779297,0.32201412320137024,0.9559579491615295,0.0,0.0,0.0,0.0,0.0,0.0,0.0,0.0,0.0,1.7065072059631348,0.3465459644794464,0.6228013634681702,0.0,0.0,0.0,0.0,0.0,0.0,0.0,0.0,0.0
1606987357629847542,1129018,1606983756730463723,imu_link,0.00518407067283988,0.007114313077181578,0.577875018119812,0.8160778880119324,0.0,0.0,0.0,0.0,0.0,0.0,0.0,0.0,0.0,70.60826873779297,0.32201412320137024,0.9559579491615295,0.0,0.0,0.0,0.0,0.0,0.0,0.0,0.0,0.0,1.7065072059631348,0.3465459644794464,0.6228013634681702,0.0,0.0,0.0,0.0,0.0,0.0,0.0,0.0,0.0
1606987357629881333,1129019,1606983756742785870,imu_link,0.005116874817758799,0.007138574495911598,0.5776605606079102,0.8162298798561096,0.0,0.0,0.0,0.0,0.0,0.0,0.0,0.0,0.0,70.57818603515625,0.3289828300476074,0.951194167137146,0.0,0.0,0.0,0.0,0.0,0.0,0.0,0.0,0.0,1.6087583303451538,0.89022296667099,0.6097913980484009,0.0,0.0,0.0,0.0,0.0,0.0,0.0,0.0,0.0
1606987357629902145,1129020,1606983756742905737,imu_link,0.005116874817758799,0.007138574495911598,0.5776605606079102,0.8162298798561096,0.0,0.0,0.0,0.0,0.0,0.0,0.0,0.0,0.0,70.57818603515625,0.3289828300476074,0.951194167137146,0.0,0.0,0.0,0.0,0.0,0.0,0.0,0.0,0.0,1.6087583303451538,0.89022296667099,0.6097913980484009,0.0,0.0,0.0,0.0,0.0,0.0,0.0,0.0,0.0
1606987357629922319,1129021,1606983756743047395,imu_link,0.00505694979801774,0.0071701775304973125,0.577453076839447,0.816376805305481,0.0,0.0,0.0,0.0,0.0,0.0,0.0,0.0,0.0,70.54910278320312,0.3361465632915497,0.9475961923599243,0.0,0.0,0.0,0.0,0.0,0.0,0.0,0.0,0.0,0.7482467293739319,1.7759451866149902,0.5155007839202881,0.0,0.0,0.0,0.0,0.0,0.0,0.0,0.0,0.0
1606987357629945147,1129022,1606983756743138005,imu_link,0.00505694979801774,0.0071701775304973125,0.577453076839447,0.816376805305481,0.0,0.0,0.0,0.0,0.0,0.0,0.0,0.0,0.0,70.54910278320312,0.3361465632915497,0.9475961923599243,0.0,0.0,0.0,0.0,0.0,0.0,0.0,0.0,0.0,0.7482467293739319,1.7759451866149902,0.5155007839202881,0.0,0.0,0.0,0.0,0.0,0.0,0.0,0.0,0.0
1606987357638897912,1129023,1606983756743228765,imu_link,0.005006028804928064,0.007209718227386475,0.577233612537384,0.8165319561958313,0.0,0.0,0.0,0.0,0.0,0.0,0.0,0.0,0.0,70.51835632324219,0.3434692919254303,0.9453569054603577,0.0,0.0,0.0,0.0,0.0,0.0,0.0,0.0,0.0,-0.15886205434799194,2.1753382682800293,0.48383840918540955,0.0,0.0,0.0,0.0,0.0,0.0,0.0,0.0,0.0
1606987357638928385,1129024,1606983756743301814,imu_link,0.005006028804928064,0.007209718227386475,0.577233612537384,0.8165319561958313,0.0,0.0,0.0,0.0,0.0,0.0,0.0,0.0,0.0,70.51835632324219,0.3434692919254303,0.9453569054603577,0.0,0.0,0.0,0.0,0.0,0.0,0.0,0.0,0.0,-0.15886205434799194,2.1753382682800293,0.48383840918540955,0.0,0.0,0.0,0.0,0.0,0.0,0.0,0.0,0.0
1606987357638950413,1129025,1606983756743403504,imu_link,0.004956148564815521,0.007257980760186911,0.577014684677124,0.8166865110397339,0.0,0.0,0.0,0.0,0.0,0.0,0.0,0.0,0.0,70.48770904541016,0.3515375554561615,0.943788468837738,0.0,0.0,0.0,0.0,0.0,0.0,0.0,0.0,0.0,-0.44124653935432434,1.7611615657806396,0.42657268047332764,0.0,0.0,0.0,0.0,0.0,0.0,0.0,0.0,0.0
1606987357638966608,1129026,1606983756743486020,imu_link,0.004956148564815521,0.007257980760186911,0.577014684677124,0.8166865110397339,0.0,0.0,0.0,0.0,0.0,0.0,0.0,0.0,0.0,70.48770904541016,0.3515375554561615,0.943788468837738,0.0,0.0,0.0,0.0,0.0,0.0,0.0,0.0,0.0,-0.44124653935432434,1.7611615657806396,0.42657268047332764,0.0,0.0,0.0,0.0,0.0,0.0,0.0,0.0,0.0
1606987357695478847,1129027,1606983756743564737,imu_link,0.004907174967229366,0.007306603714823723,0.5767842531204224,0.8168491125106812,0.0,0.0,0.0,0.0,0.0,0.0,0.0,0.0,0.0,70.4554443359375,0.3595919609069824,0.9423193335533142,0.0,0.0,0.0,0.0,0.0,0.0,0.0,0.0,0.0,0.07514539361000061,0.8181626796722412,0.42569446563720703,0.0,0.0,0.0,0.0,0.0,0.0,0.0,0.0,0.0
1606987357695495683,1129028,1606983756743646136,imu_link,0.004907174967229366,0.007306603714823723,0.5767842531204224,0.8168491125106812,0.0,0.0,0.0,0.0,0.0,0.0,0.0,0.0,0.0,70.4554443359375,0.3595919609069824,0.9423193335533142,0.0,0.0,0.0,0.0,0.0,0.0,0.0,0.0,0.0,0.07514539361000061,0.8181626796722412,0.42569446563720703,0.0,0.0,0.0,0.0,0.0,0.0,0.0,0.0,0.0
1606987357695516804,1129029,1606983756743732731,imu_link,0.004857695661485195,0.00734437070786953,0.5765486359596252,0.8170154094696045,0.0,0.0,0.0,0.0,0.0,0.0,0.0,0.0,0.0,70.42244720458984,0.3666686713695526,0.9400785565376282,0.0,0.0,0.0,0.0,0.0,0.0,0.0,0.0,0.0,1.1009010076522827,-0.12473592907190323,0.36257967352867126,0.0,0.0,0.0,0.0,0.0,0.0,0.0,0.0,0.0
1606987357695524264,1129030,1606983756756645991,imu_link,0.004857695661485195,0.00734437070786953,0.5765486359596252,0.8170154094696045,0.0,0.0,0.0,0.0,0.0,0.0,0.0,0.0,0.0,70.42244720458984,0.3666686713695526,0.9400785565376282,0.0,0.0,0.0,0.0,0.0,0.0,0.0,0.0,0.0,1.1009010076522827,-0.12473592907190323,0.36257967352867126,0.0,0.0,0.0,0.0,0.0,0.0,0.0,0.0,0.0
1606987357695532555,1129031,1606983756756822831,imu_link,0.004813090432435274,0.007369488477706909,0.5763050317764282,0.8171873092651367,0.0,0.0,0.0,0.0,0.0,0.0,0.0,0.0,0.0,70.38832092285156,0.3722468912601471,0.9374513030052185,0.0,0.0,0.0,0.0,0.0,0.0,0.0,0.0,0.0,1.89010751247406,-0.43707528710365295,0.3285473585128784,0.0,0.0,0.0,0.0,0.0,0.0,0.0,0.0,0.0
1606987357701598659,1129032,1606983756756924862,imu_link,0.004813090432435274,0.007369488477706909,0.5763050317764282,0.8171873092651367,0.0,0.0,0.0,0.0,0.0,0.0,0.0,0.0,0.0,70.38832092285156,0.3722468912601471,0.9374513030052185,0.0,0.0,0.0,0.0,0.0,0.0,0.0,0.0,0.0,1.89010751247406,-0.43707528710365295,0.3285473585128784,0.0,0.0,0.0,0.0,0.0,0.0,0.0,0.0,0.0
1606987357701614851,1129033,1606983756757046127,imu_link,0.004772932268679142,0.007381248287856579,0.5760514140129089,0.8173661231994629,0.0,0.0,0.0,0.0,0.0,0.0,0.0,0.0,0.0,70.35279083251953,0.37629014253616333,0.934350848197937,0.0,0.0,0.0,0.0,0.0,0.0,0.0,0.0,0.0,1.813902497291565,-0.13160695135593414,0.33561038970947266,0.0,0.0,0.0,0.0,0.0,0.0,0.0,0.0,0.0
1606987357701631585,1129034,1606983756757131174,imu_link,0.004772932268679142,0.007381248287856579,0.5760514140129089,0.8173661231994629,0.0,0.0,0.0,0.0,0.0,0.0,0.0,0.0,0.0,70.35279083251953,0.37629014253616333,0.934350848197937,0.0,0.0,0.0,0.0,0.0,0.0,0.0,0.0,0.0,1.813902497291565,-0.13160695135593414,0.33561038970947266,0.0,0.0,0.0,0.0,0.0,0.0,0.0,0.0,0.0
1606987357701650288,1129035,1606983756757212964,imu_link,0.004739586263895035,0.007393829990178347,0.5758016705513,0.8175422549247742,0.0,0.0,0.0,0.0,0.0,0.0,0.0,0.0,0.0,70.31778717041016,0.3799547255039215,0.9319419860839844,0.0,0.0,0.0,0.0,0.0,0.0,0.0,0.0,0.0,1.0129220485687256,0.43162596225738525,0.29530051350593567,0.0,0.0,0.0,0.0,0.0,0.0,0.0,0.0,0.0
1606987357710545825,1129036,1606983756757314433,imu_link,0.004739586263895035,0.007393829990178347,0.5758016705513,0.8175422549247742,0.0,0.0,0.0,0.0,0.0,0.0,0.0,0.0,0.0,70.31778717041016,0.3799547255039215,0.9319419860839844,0.0,0.0,0.0,0.0,0.0,0.0,0.0,0.0,0.0,1.0129220485687256,0.43162596225738525,0.29530051350593567,0.0,0.0,0.0,0.0,0.0,0.0,0.0,0.0,0.0
1606987357710559289,1129037,1606983756757395862,imu_link,0.004705554805696011,0.007416378241032362,0.5755416750907898,0.8177252411842346,0.0,0.0,0.0,0.0,0.0,0.0,0.0,0.0,0.0,70.28138732910156,0.3846084475517273,0.9301197528839111,0.0,0.0,0.0,0.0,0.0,0.0,0.0,0.0,0.0,-0.034393589943647385,0.7886852622032166,0.25329169631004333,0.0,0.0,0.0,0.0,0.0,0.0,0.0,0.0,0.0
1606987357710565000,1129038,1606983756757541915,imu_link,0.004705554805696011,0.007416378241032362,0.5755416750907898,0.8177252411842346,0.0,0.0,0.0,0.0,0.0,0.0,0.0,0.0,0.0,70.28138732910156,0.3846084475517273,0.9301197528839111,0.0,0.0,0.0,0.0,0.0,0.0,0.0,0.0,0.0,-0.034393589943647385,0.7886852622032166,0.25329169631004333,0.0,0.0,0.0,0.0,0.0,0.0,0.0,0.0,0.0
1606987357710579711,1129039,1606983756757632149,imu_link,0.004672888666391373,0.007442931644618511,0.5752847194671631,0.8179060220718384,0.0,0.0,0.0,0.0,0.0,0.0,0.0,0.0,0.0,70.24541473388672,0.3895428776741028,0.9286879897117615,0.0,0.0,0.0,0.0,0.0,0.0,0.0,0.0,0.0,-0.5456333160400391,0.6864220499992371,0.19730708003044128,0.0,0.0,0.0,0.0,0.0,0.0,0.0,0.0,0.0
1606987357718925986,1129040,1606983756757790475,imu_link,0.004672888666391373,0.007442931644618511,0.5752847194671631,0.8179060220718384,0.0,0.0,0.0,0.0,0.0,0.0,0.0,0.0,0.0,70.24541473388672,0.3895428776741028,0.9286879897117615,0.0,0.0,0.0,0.0,0.0,0.0,0.0,0.0,0.0,-0.5456333160400391,0.6864220499992371,0.19730708003044128,0.0,0.0,0.0,0.0,0.0,0.0,0.0,0.0,0.0
1606987357718952762,1129041,1606983756770079706,imu_link,0.004636938683688641,0.007468457333743572,0.5750139951705933,0.818096399307251,0.0,0.0,0.0,0.0,0.0,0.0,0.0,0.0,0.0,70.20751953125,0.3946121335029602,0.9268708229064941,0.0,0.0,0.0,0.0,0.0,0.0,0.0,0.0,0.0,0.00605768570676446,0.03247544541954994,0.23537929356098175,0.0,0.0,0.0,0.0,0.0,0.0,0.0,0.0,0.0
1606987357718963086,1129042,1606983756770195534,imu_link,0.004636938683688641,0.007468457333743572,0.5750139951705933,0.818096399307251,0.0,0.0,0.0,0.0,0.0,0.0,0.0,0.0,0.0,70.20751953125,0.3946121335029602,0.9268708229064941,0.0,0.0,0.0,0.0,0.0,0.0,0.0,0.0,0.0,0.00605768570676446,0.03247544541954994,0.23537929356098175,0.0,0.0,0.0,0.0,0.0,0.0,0.0,0.0,0.0
1606987357718970955,1129043,1606983756770279002,imu_link,0.00460082245990634,0.007482059765607119,0.5747485160827637,0.818282961845398,0.0,0.0,0.0,0.0,0.0,0.0,0.0,0.0,0.0,70.17036437988281,0.3985670804977417,0.9242522120475769,0.0,0.0,0.0,0.0,0.0,0.0,0.0,0.0,0.0,1.1956150531768799,-0.7949128150939941,0.2810472548007965,0.0,0.0,0.0,0.0,0.0,0.0,0.0,0.0,0.0
1606987357718987871,1129044,1606983756770368409,imu_link,0.00460082245990634,0.007482059765607119,0.5747485160827637,0.818282961845398,0.0,0.0,0.0,0.0,0.0,0.0,0.0,0.0,0.0,70.17036437988281,0.3985670804977417,0.9242522120475769,0.0,0.0,0.0,0.0,0.0,0.0,0.0,0.0,0.0,1.1956150531768799,-0.7949128150939941,0.2810472548007965,0.0,0.0,0.0,0.0,0.0,0.0,0.0,0.0,0.0
1606987357777907259,1129045,1606983756770448464,imu_link,0.004569076467305422,0.007477561477571726,0.5744674801826477,0.8184805512428284,0.0,0.0,0.0,0.0,0.0,0.0,0.0,0.0,0.0,70.13099670410156,0.4005526006221771,0.9208413362503052,0.0,0.0,0.0,0.0,0.0,0.0,0.0,0.0,0.0,2.123201847076416,-1.1406278610229492,0.3522261679172516,0.0,0.0,0.0,0.0,0.0,0.0,0.0,0.0,0.0
1606987357777934545,1129046,1606983756770543670,imu_link,0.004569076467305422,0.007477561477571726,0.5744674801826477,0.8184805512428284,0.0,0.0,0.0,0.0,0.0,0.0,0.0,0.0,0.0,70.13099670410156,0.4005526006221771,0.9208413362503052,0.0,0.0,0.0,0.0,0.0,0.0,0.0,0.0,0.0,2.123201847076416,-1.1406278610229492,0.3522261679172516,0.0,0.0,0.0,0.0,0.0,0.0,0.0,0.0,0.0
1606987357777947324,1129047,1606983756770628912,imu_link,0.004541368689388037,0.007458945270627737,0.5741909742355347,0.8186748623847961,0.0,0.0,0.0,0.0,0.0,0.0,0.0,0.0,0.0,70.09225463867188,0.40094059705734253,0.9168814420700073,0.0,0.0,0.0,0.0,0.0,0.0,0.0,0.0,0.0,2.1871914863586426,-0.9608272314071655,0.3287285268306732,0.0,0.0,0.0,0.0,0.0,0.0,0.0,0.0,0.0
1606987357777960634,1129048,1606983756770750614,imu_link,0.004541368689388037,0.007458945270627737,0.5741909742355347,0.8186748623847961,0.0,0.0,0.0,0.0,0.0,0.0,0.0,0.0,0.0,70.09225463867188,0.40094059705734253,0.9168814420700073,0.0,0.0,0.0,0.0,0.0,0.0,0.0,0.0,0.0,2.1871914863586426,-0.9608272314071655,0.3287285268306732,0.0,0.0,0.0,0.0,0.0,0.0,0.0,0.0,0.0
1606987357783562900,1129049,1606983756770835540,imu_link,0.004515193402767181,0.007432741113007069,0.5739049911499023,0.818875789642334,0.0,0.0,0.0,0.0,0.0,0.0,0.0,0.0,0.0,70.05218505859375,0.4005236327648163,0.9125613570213318,0.0,0.0,0.0,0.0,0.0,0.0,0.0,0.0,0.0,1.3645238876342773,-0.5247873067855835,0.30471333861351013,0.0,0.0,0.0,0.0,0.0,0.0,0.0,0.0,0.0
1606987357783584667,1129050,1606983756770911556,imu_link,0.004515193402767181,0.007432741113007069,0.5739049911499023,0.818875789642334,0.0,0.0,0.0,0.0,0.0,0.0,0.0,0.0,0.0,70.05218505859375,0.4005236327648163,0.9125613570213318,0.0,0.0,0.0,0.0,0.0,0.0,0.0,0.0,0.0,1.3645238876342773,-0.5247873067855835,0.30471333861351013,0.0,0.0,0.0,0.0,0.0,0.0,0.0,0.0,0.0
1606987357783591613,1129051,1606983756771015802,imu_link,0.004489107057452202,0.007413343992084265,0.5736242532730103,0.8190727829933167,0.0,0.0,0.0,0.0,0.0,0.0,0.0,0.0,0.0,70.01287841796875,0.40073078870773315,0.9087000489234924,0.0,0.0,0.0,0.0,0.0,0.0,0.0,0.0,0.0,0.136479914188385,-0.13389772176742554,0.35543113946914673,0.0,0.0,0.0,0.0,0.0,0.0,0.0,0.0,0.0
1606987357783602684,1129052,1606983756783063384,imu_link,0.004489107057452202,0.007413343992084265,0.5736242532730103,0.8190727829933167,0.0,0.0,0.0,0.0,0.0,0.0,0.0,0.0,0.0,70.01287841796875,0.40073078870773315,0.9087000489234924,0.0,0.0,0.0,0.0,0.0,0.0,0.0,0.0,0.0,0.136479914188385,-0.13389772176742554,0.35543113946914673,0.0,0.0,0.0,0.0,0.0,0.0,0.0,0.0,0.0
1606987357783672207,1129053,1606983756783178045,imu_link,0.004458559211343527,0.007399361580610275,0.5733377933502197,0.8192735314369202,0.0,0.0,0.0,0.0,0.0,0.0,0.0,0.0,0.0,69.97278594970703,0.40174299478530884,0.9047731161117554,0.0,0.0,0.0,0.0,0.0,0.0,0.0,0.0,0.0,-0.5929325222969055,0.030213626101613045,0.3376885950565338,0.0,0.0,0.0,0.0,0.0,0.0,0.0,0.0,0.0
1606987357789122081,1129054,1606983756783308291,imu_link,0.004458559211343527,0.007399361580610275,0.5733377933502197,0.8192735314369202,0.0,0.0,0.0,0.0,0.0,0.0,0.0,0.0,0.0,69.97278594970703,0.40174299478530884,0.9047731161117554,0.0,0.0,0.0,0.0,0.0,0.0,0.0,0.0,0.0,-0.5929325222969055,0.030213626101613045,0.3376885950565338,0.0,0.0,0.0,0.0,0.0,0.0,0.0,0.0,0.0
1606987357789146297,1129055,1606983756783395568,imu_link,0.00442813616245985,0.0073875542730093,0.5730507969856262,0.8194746375083923,0.0,0.0,0.0,0.0,0.0,0.0,0.0,0.0,0.0,69.9326171875,0.4029492139816284,0.9009997844696045,0.0,0.0,0.0,0.0,0.0,0.0,0.0,0.0,0.0,-0.33558568358421326,0.00884820707142353,0.41090238094329834,0.0,0.0,0.0,0.0,0.0,0.0,0.0,0.0,0.0
1606987357789158331,1129056,1606983756783482464,imu_link,0.00442813616245985,0.0073875542730093,0.5730507969856262,0.8194746375083923,0.0,0.0,0.0,0.0,0.0,0.0,0.0,0.0,0.0,69.9326171875,0.4029492139816284,0.9009997844696045,0.0,0.0,0.0,0.0,0.0,0.0,0.0,0.0,0.0,-0.33558568358421326,0.00884820707142353,0.41090238094329834,0.0,0.0,0.0,0.0,0.0,0.0,0.0,0.0,0.0
1606987357789167186,1129057,1606983756783583889,imu_link,0.004400286357849836,0.007369567174464464,0.5727633833885193,0.8196758031845093,0.0,0.0,0.0,0.0,0.0,0.0,0.0,0.0,0.0,69.89241027832031,0.40340378880500793,0.8970617055892944,0.0,0.0,0.0,0.0,0.0,0.0,0.0,0.0,0.0,0.7052198648452759,-0.15406575798988342,0.44149473309516907,0.0,0.0,0.0,0.0,0.0,0.0,0.0,0.0,0.0
1606987357807794307,1129058,1606983756783667803,imu_link,0.004400286357849836,0.007369567174464464,0.5727633833885193,0.8196758031845093,0.0,0.0,0.0,0.0,0.0,0.0,0.0,0.0,0.0,69.89241027832031,0.40340378880500793,0.8970617055892944,0.0,0.0,0.0,0.0,0.0,0.0,0.0,0.0,0.0,0.7052198648452759,-0.15406575798988342,0.44149473309516907,0.0,0.0,0.0,0.0,0.0,0.0,0.0,0.0,0.0
1606987357807911382,1129059,1606983756783745112,imu_link,0.004380339290946722,0.007337023504078388,0.5724751949310303,0.819877564907074,0.0,0.0,0.0,0.0,0.0,0.0,0.0,0.0,0.0,69.85205841064453,0.40197044610977173,0.8929101824760437,0.0,0.0,0.0,0.0,0.0,0.0,0.0,0.0,0.0,1.683980107307434,-0.5760167241096497,0.47489842772483826,0.0,0.0,0.0,0.0,0.0,0.0,0.0,0.0,0.0
1606987357807995383,1129060,1606983756783827302,imu_link,0.004380339290946722,0.007337023504078388,0.5724751949310303,0.819877564907074,0.0,0.0,0.0,0.0,0.0,0.0,0.0,0.0,0.0,69.85205841064453,0.40197044610977173,0.8929101824760437,0.0,0.0,0.0,0.0,0.0,0.0,0.0,0.0,0.0,1.683980107307434,-0.5760167241096497,0.47489842772483826,0.0,0.0,0.0,0.0,0.0,0.0,0.0,0.0,0.0
1606987357808017360,1129061,1606983756783904025,imu_link,0.00436421250924468,0.007290550507605076,0.5721832513809204,0.8200818300247192,0.0,0.0,0.0,0.0,0.0,0.0,0.0,0.0,0.0,69.81119537353516,0.3989787697792053,0.8882036805152893,0.0,0.0,0.0,0.0,0.0,0.0,0.0,0.0,0.0,1.7396436929702759,-1.0439395904541016,0.5213981866836548,0.0,0.0,0.0,0.0,0.0,0.0,0.0,0.0,0.0
1606987357808038176,1129062,1606983756796887432,imu_link,0.00436421250924468,0.007290550507605076,0.5721832513809204,0.8200818300247192,0.0,0.0,0.0,0.0,0.0,0.0,0.0,0.0,0.0,69.81119537353516,0.3989787697792053,0.8882036805152893,0.0,0.0,0.0,0.0,0.0,0.0,0.0,0.0,0.0,1.7396436929702759,-1.0439395904541016,0.5213981866836548,0.0,0.0,0.0,0.0,0.0,0.0,0.0,0.0,0.0
1606987357882021616,1129063,1606983756797028849,imu_link,0.004344828426837921,0.007241774816066027,0.571889340877533,0.8202873468399048,0.0,0.0,0.0,0.0,0.0,0.0,0.0,0.0,0.0,69.77005004882812,0.39598286151885986,0.8830413818359375,0.0,0.0,0.0,0.0,0.0,0.0,0.0,0.0,0.0,0.8313158750534058,-1.1480884552001953,0.5604763031005859,0.0,0.0,0.0,0.0,0.0,0.0,0.0,0.0,0.0
1606987357882046844,1129064,1606983756797222909,imu_link,0.004344828426837921,0.007241774816066027,0.571889340877533,0.8202873468399048,0.0,0.0,0.0,0.0,0.0,0.0,0.0,0.0,0.0,69.77005004882812,0.39598286151885986,0.8830413818359375,0.0,0.0,0.0,0.0,0.0,0.0,0.0,0.0,0.0,0.8313158750534058,-1.1480884552001953,0.5604763031005859,0.0,0.0,0.0,0.0,0.0,0.0,0.0,0.0,0.0
1606987357882063050,1129065,1606983756797319487,imu_link,0.004317740444093943,0.007192415185272694,0.5715985298156738,0.8204906582832336,0.0,0.0,0.0,0.0,0.0,0.0,0.0,0.0,0.0,69.72935485839844,0.3934297561645508,0.8771201372146606,0.0,0.0,0.0,0.0,0.0,0.0,0.0,0.0,0.0,-0.4888043999671936,-1.2042324542999268,0.5757551789283752,0.0,0.0,0.0,0.0,0.0,0.0,0.0,0.0,0.0
1606987357882076806,1129066,1606983756797481537,imu_link,0.004317740444093943,0.007192415185272694,0.5715985298156738,0.8204906582832336,0.0,0.0,0.0,0.0,0.0,0.0,0.0,0.0,0.0,69.72935485839844,0.3934297561645508,0.8771201372146606,0.0,0.0,0.0,0.0,0.0,0.0,0.0,0.0,0.0,-0.4888043999671936,-1.2042324542999268,0.5757551789283752,0.0,0.0,0.0,0.0,0.0,0.0,0.0,0.0,0.0
1606987357887811610,1129067,1606983756797570749,imu_link,0.004285568371415138,0.007150741759687662,0.5712995529174805,0.8206993341445923,0.0,0.0,0.0,0.0,0.0,0.0,0.0,0.0,0.0,69.68754577636719,0.39193663001060486,0.8712223172187805,0.0,0.0,0.0,0.0,0.0,0.0,0.0,0.0,0.0,-1.231390357017517,-1.0845767259597778,0.474886417388916,0.0,0.0,0.0,0.0,0.0,0.0,0.0,0.0,0.0
1606987357887842520,1129068,1606983756797678077,imu_link,0.004285568371415138,0.007150741759687662,0.5712995529174805,0.8206993341445923,0.0,0.0,0.0,0.0,0.0,0.0,0.0,0.0,0.0,69.68754577636719,0.39193663001060486,0.8712223172187805,0.0,0.0,0.0,0.0,0.0,0.0,0.0,0.0,0.0,-1.231390357017517,-1.0845767259597778,0.474886417388916,0.0,0.0,0.0,0.0,0.0,0.0,0.0,0.0,0.0
1606987357887854701,1129069,1606983756797761305,imu_link,0.004250884056091309,0.007113054860383272,0.571013867855072,0.8208985924720764,0.0,0.0,0.0,0.0,0.0,0.0,0.0,0.0,0.0,69.64759826660156,0.3909645676612854,0.8653565049171448,0.0,0.0,0.0,0.0,0.0,0.0,0.0,0.0,0.0,-1.0320602655410767,-0.9365289807319641,0.7005828022956848,0.0,0.0,0.0,0.0,0.0,0.0,0.0,0.0,0.0
1606987357887870598,1129070,1606983756797843094,imu_link,0.004250884056091309,0.007113054860383272,0.571013867855072,0.8208985924720764,0.0,0.0,0.0,0.0,0.0,0.0,0.0,0.0,0.0,69.64759826660156,0.3909645676612854,0.8653565049171448,0.0,0.0,0.0,0.0,0.0,0.0,0.0,0.0,0.0,-1.0320602655410767,-0.9365289807319641,0.7005828022956848,0.0,0.0,0.0,0.0,0.0,0.0,0.0,0.0,0.0
1606987357887879604,1129071,1606983756797924031,imu_link,0.004209517035633326,0.0070697409100830555,0.5707090497016907,0.8211112022399902,0.0,0.0,0.0,0.0,0.0,0.0,0.0,0.0,0.0,69.60498046875,0.3899161219596863,0.8584855198860168,0.0,0.0,0.0,0.0,0.0,0.0,0.0,0.0,0.0,-0.07516923546791077,-1.121546745300293,0.6867818832397461,0.0,0.0,0.0,0.0,0.0,0.0,0.0,0.0,0.0
1606987357912020013,1129072,1606983756798004608,imu_link,0.004209517035633326,0.0070697409100830555,0.5707090497016907,0.8211112022399902,0.0,0.0,0.0,0.0,0.0,0.0,0.0,0.0,0.0,69.60498046875,0.3899161219596863,0.8584855198860168,0.0,0.0,0.0,0.0,0.0,0.0,0.0,0.0,0.0,-0.07516923546791077,-1.121546745300293,0.6867818832397461,0.0,0.0,0.0,0.0,0.0,0.0,0.0,0.0,0.0
1606987357912068682,1129073,1606983756810309294,imu_link,0.0041714441031217575,0.007014085538685322,0.5704259276390076,0.8213085532188416,0.0,0.0,0.0,0.0,0.0,0.0,0.0,0.0,0.0,69.56539154052734,0.38746318221092224,0.8511289954185486,0.0,0.0,0.0,0.0,0.0,0.0,0.0,0.0,0.0,0.9938835501670837,-1.4582085609436035,0.6775959134101868,0.0,0.0,0.0,0.0,0.0,0.0,0.0,0.0,0.0
1606987357912081719,1129074,1606983756810453809,imu_link,0.0041714441031217575,0.007014085538685322,0.5704259276390076,0.8213085532188416,0.0,0.0,0.0,0.0,0.0,0.0,0.0,0.0,0.0,69.56539154052734,0.38746318221092224,0.8511289954185486,0.0,0.0,0.0,0.0,0.0,0.0,0.0,0.0,0.0,0.9938835501670837,-1.4582085609436035,0.6775959134101868,0.0,0.0,0.0,0.0,0.0,0.0,0.0,0.0,0.0
1606987357912098244,1129075,1606983756810589202,imu_link,0.004131918773055077,0.006945354864001274,0.5701159238815308,0.8215245604515076,0.0,0.0,0.0,0.0,0.0,0.0,0.0,0.0,0.0,69.52203369140625,0.3838968276977539,0.8427704572677612,0.0,0.0,0.0,0.0,0.0,0.0,0.0,0.0,0.0,1.3161875009536743,-1.7637938261032104,0.709314227104187,0.0,0.0,0.0,0.0,0.0,0.0,0.0,0.0,0.0
1606987357918479393,1129076,1606983756810692251,imu_link,0.004131918773055077,0.006945354864001274,0.5701159238815308,0.8215245604515076,0.0,0.0,0.0,0.0,0.0,0.0,0.0,0.0,0.0,69.52203369140625,0.3838968276977539,0.8427704572677612,0.0,0.0,0.0,0.0,0.0,0.0,0.0,0.0,0.0,1.3161875009536743,-1.7637938261032104,0.709314227104187,0.0,0.0,0.0,0.0,0.0,0.0,0.0,0.0,0.0
1606987357918521283,1129077,1606983756810781628,imu_link,0.004089689813554287,0.006869978737086058,0.5698279142379761,0.8217251896858215,0.0,0.0,0.0,0.0,0.0,0.0,0.0,0.0,0.0,69.48175048828125,0.3798525929450989,0.8337363600730896,0.0,0.0,0.0,0.0,0.0,0.0,0.0,0.0,0.0,0.8107931613922119,-1.5366357564926147,0.5987899303436279,0.0,0.0,0.0,0.0,0.0,0.0,0.0,0.0,0.0
1606987357918542048,1129078,1606983756810868193,imu_link,0.004089689813554287,0.006869978737086058,0.5698279142379761,0.8217251896858215,0.0,0.0,0.0,0.0,0.0,0.0,0.0,0.0,0.0,69.48175048828125,0.3798525929450989,0.8337363600730896,0.0,0.0,0.0,0.0,0.0,0.0,0.0,0.0,0.0,0.8107931613922119,-1.5366357564926147,0.5987899303436279,0.0,0.0,0.0,0.0,0.0,0.0,0.0,0.0,0.0
1606987357918563003,1129079,1606983756811002915,imu_link,0.004043091554194689,0.006797994486987591,0.5695127844810486,0.8219444751739502,0.0,0.0,0.0,0.0,0.0,0.0,0.0,0.0,0.0,69.43769836425781,0.3764338791370392,0.8245027661323547,0.0,0.0,0.0,0.0,0.0,0.0,0.0,0.0,0.0,-0.11165747046470642,-0.9244213700294495,0.6670545935630798,0.0,0.0,0.0,0.0,0.0,0.0,0.0,0.0,0.0
1606987357918584449,1129080,1606983756811088177,imu_link,0.004043091554194689,0.006797994486987591,0.5695127844810486,0.8219444751739502,0.0,0.0,0.0,0.0,0.0,0.0,0.0,0.0,0.0,69.43769836425781,0.3764338791370392,0.8245027661323547,0.0,0.0,0.0,0.0,0.0,0.0,0.0,0.0,0.0,-0.11165747046470642,-0.9244213700294495,0.6670545935630798,0.0,0.0,0.0,0.0,0.0,0.0,0.0,0.0,0.0
1606987357974475488,1129081,1606983756811179138,imu_link,0.003997656982392073,0.006732563953846693,0.569219708442688,0.8221482038497925,0.0,0.0,0.0,0.0,0.0,0.0,0.0,0.0,0.0,69.39674377441406,0.3735275864601135,0.815819263458252,0.0,0.0,0.0,0.0,0.0,0.0,0.0,0.0,0.0,-0.6830712556838989,-0.33930546045303345,0.5913680195808411,0.0,0.0,0.0,0.0,0.0,0.0,0.0,0.0,0.0
1606987357974497820,1129082,1606983756811260897,imu_link,0.003997656982392073,0.006732563953846693,0.569219708442688,0.8221482038497925,0.0,0.0,0.0,0.0,0.0,0.0,0.0,0.0,0.0,69.39674377441406,0.3735275864601135,0.815819263458252,0.0,0.0,0.0,0.0,0.0,0.0,0.0,0.0,0.0,-0.6830712556838989,-0.33930546045303345,0.5913680195808411,0.0,0.0,0.0,0.0,0.0,0.0,0.0,0.0,0.0
1606987357974525348,1129083,1606983756811341573,imu_link,0.003948216792196035,0.006668314803391695,0.5689143538475037,0.8223603367805481,0.0,0.0,0.0,0.0,0.0,0.0,0.0,0.0,0.0,69.35409545898438,0.37099966406822205,0.8068317770957947,0.0,0.0,0.0,0.0,0.0,0.0,0.0,0.0,0.0,-0.6077227592468262,-0.28285378217697144,0.584667980670929,0.0,0.0,0.0,0.0,0.0,0.0,0.0,0.0,0.0
1606987357974538158,1129084,1606983756824175199,imu_link,0.003948216792196035,0.006668314803391695,0.5689143538475037,0.8223603367805481,0.0,0.0,0.0,0.0,0.0,0.0,0.0,0.0,0.0,69.35409545898438,0.37099966406822205,0.8068317770957947,0.0,0.0,0.0,0.0,0.0,0.0,0.0,0.0,0.0,-0.6077227592468262,-0.28285378217697144,0.584667980670929,0.0,0.0,0.0,0.0,0.0,0.0,0.0,0.0,0.0
1606987357984532921,1129085,1606983756824347969,imu_link,0.003901583142578602,0.006601639557629824,0.5686113834381104,0.8225705623626709,0.0,0.0,0.0,0.0,0.0,0.0,0.0,0.0,0.0,69.31178283691406,0.36805108189582825,0.7979540228843689,0.0,0.0,0.0,0.0,0.0,0.0,0.0,0.0,0.0,0.06265044957399368,-0.5177608728408813,0.5997092127799988,0.0,0.0,0.0,0.0,0.0,0.0,0.0,0.0,0.0
1606987357984557109,1129086,1606983756824445901,imu_link,0.003901583142578602,0.006601639557629824,0.5686113834381104,0.8225705623626709,0.0,0.0,0.0,0.0,0.0,0.0,0.0,0.0,0.0,69.31178283691406,0.36805108189582825,0.7979540228843689,0.0,0.0,0.0,0.0,0.0,0.0,0.0,0.0,0.0,0.06265044957399368,-0.5177608728408813,0.5997092127799988,0.0,0.0,0.0,0.0,0.0,0.0,0.0,0.0,0.0
1606987357984568243,1129087,1606983756824564485,imu_link,0.003856656374409795,0.006528383586555719,0.5683012008666992,0.8227856755256653,0.0,0.0,0.0,0.0,0.0,0.0,0.0,0.0,0.0,69.26847839355469,0.36437129974365234,0.78880774974823,0.0,0.0,0.0,0.0,0.0,0.0,0.0,0.0,0.0,0.9695290923118591,-0.7105690240859985,0.5947687029838562,0.0,0.0,0.0,0.0,0.0,0.0,0.0,0.0,0.0
1606987357984589538,1129088,1606983756824652253,imu_link,0.003856656374409795,0.006528383586555719,0.5683012008666992,0.8227856755256653,0.0,0.0,0.0,0.0,0.0,0.0,0.0,0.0,0.0,69.26847839355469,0.36437129974365234,0.78880774974823,0.0,0.0,0.0,0.0,0.0,0.0,0.0,0.0,0.0,0.9695290923118591,-0.7105690240859985,0.5947687029838562,0.0,0.0,0.0,0.0,0.0,0.0,0.0,0.0,0.0
1606987357984609407,1129089,1606983756824729808,imu_link,0.0038169915787875652,0.006442266516387463,0.5679861307144165,0.8230040669441223,0.0,0.0,0.0,0.0,0.0,0.0,0.0,0.0,0.0,69.22447967529297,0.359133780002594,0.7793211936950684,0.0,0.0,0.0,0.0,0.0,0.0,0.0,0.0,0.0,1.422399878501892,-0.816343367099762,0.5411107540130615,0.0,0.0,0.0,0.0,0.0,0.0,0.0,0.0,0.0
1606987357989833663,1129090,1606983756824907815,imu_link,0.0038169915787875652,0.006442266516387463,0.5679861307144165,0.8230040669441223,0.0,0.0,0.0,0.0,0.0,0.0,0.0,0.0,0.0,69.22447967529297,0.359133780002594,0.7793211936950684,0.0,0.0,0.0,0.0,0.0,0.0,0.0,0.0,0.0,1.422399878501892,-0.816343367099762,0.5411107540130615,0.0,0.0,0.0,0.0,0.0,0.0,0.0,0.0,0.0
1606987357989863159,1129091,1606983756825010167,imu_link,0.0037764410953968763,0.006349439267069101,0.5676742792129517,0.8232201337814331,0.0,0.0,0.0,0.0,0.0,0.0,0.0,0.0,0.0,69.1809310913086,0.35331064462661743,0.7693200707435608,0.0,0.0,0.0,0.0,0.0,0.0,0.0,0.0,0.0,1.0342832803726196,-0.8263219594955444,0.4924197793006897,0.0,0.0,0.0,0.0,0.0,0.0,0.0,0.0,0.0
1606987357989872575,1129092,1606983756825117260,imu_link,0.0037764410953968763,0.006349439267069101,0.5676742792129517,0.8232201337814331,0.0,0.0,0.0,0.0,0.0,0.0,0.0,0.0,0.0,69.1809310913086,0.35331064462661743,0.7693200707435608,0.0,0.0,0.0,0.0,0.0,0.0,0.0,0.0,0.0,1.0342832803726196,-0.8263219594955444,0.4924197793006897,0.0,0.0,0.0,0.0,0.0,0.0,0.0,0.0,0.0
1606987357989880708,1129093,1606983756825194203,imu_link,0.0037341569550335407,0.0062589822337031364,0.5673501491546631,0.8234444260597229,0.0,0.0,0.0,0.0,0.0,0.0,0.0,0.0,0.0,69.13569641113281,0.34782758355140686,0.7593089938163757,0.0,0.0,0.0,0.0,0.0,0.0,0.0,0.0,0.0,0.030173463746905327,-0.7678880095481873,0.4627626836299896,0.0,0.0,0.0,0.0,0.0,0.0,0.0,0.0,0.0
1606987357996738554,1129094,1606983756825276368,imu_link,0.0037341569550335407,0.0062589822337031364,0.5673501491546631,0.8234444260597229,0.0,0.0,0.0,0.0,0.0,0.0,0.0,0.0,0.0,69.13569641113281,0.34782758355140686,0.7593089938163757,0.0,0.0,0.0,0.0,0.0,0.0,0.0,0.0,0.0,0.030173463746905327,-0.7678880095481873,0.4627626836299896,0.0,0.0,0.0,0.0,0.0,0.0,0.0,0.0,0.0
1606987357996771705,1129095,1606983756837698907,imu_link,0.003687254386022687,0.006173921748995781,0.5670347213745117,0.823662519454956,0.0,0.0,0.0,0.0,0.0,0.0,0.0,0.0,0.0,69.09169006347656,0.34313806891441345,0.7492206692695618,0.0,0.0,0.0,0.0,0.0,0.0,0.0,0.0,0.0,-0.9638630151748657,-0.6499455571174622,0.41587701439857483,0.0,0.0,0.0,0.0,0.0,0.0,0.0,0.0,0.0
1606987357996792430,1129096,1606983756837839823,imu_link,0.003687254386022687,0.006173921748995781,0.5670347213745117,0.823662519454956,0.0,0.0,0.0,0.0,0.0,0.0,0.0,0.0,0.0,69.09169006347656,0.34313806891441345,0.7492206692695618,0.0,0.0,0.0,0.0,0.0,0.0,0.0,0.0,0.0,-0.9638630151748657,-0.6499455571174622,0.41587701439857483,0.0,0.0,0.0,0.0,0.0,0.0,0.0,0.0,0.0
1606987357996813762,1129097,1606983756837977968,imu_link,0.0036326395347714424,0.006096313241869211,0.5667030811309814,0.8238914608955383,0.0,0.0,0.0,0.0,0.0,0.0,0.0,0.0,0.0,69.04545593261719,0.3396596610546112,0.7388855814933777,0.0,0.0,0.0,0.0,0.0,0.0,0.0,0.0,0.0,-1.3274568319320679,-0.5719594359397888,0.34018439054489136,0.0,0.0,0.0,0.0,0.0,0.0,0.0,0.0,0.0
1606987357996825798,1129098,1606983756838077729,imu_link,0.0036326395347714424,0.006096313241869211,0.5667030811309814,0.8238914608955383,0.0,0.0,0.0,0.0,0.0,0.0,0.0,0.0,0.0,69.04545593261719,0.3396596610546112,0.7388855814933777,0.0,0.0,0.0,0.0,0.0,0.0,0.0,0.0,0.0,-1.3274568319320679,-0.5719594359397888,0.34018439054489136,0.0,0.0,0.0,0.0,0.0,0.0,0.0,0.0,0.0
1606987358053202970,1129099,1606983756838176974,imu_link,0.003576472867280245,0.006016927305608988,0.5663814544677734,0.8241135478019714,0.0,0.0,0.0,0.0,0.0,0.0,0.0,0.0,0.0,69.00061798095703,0.3360970616340637,0.7282952666282654,0.0,0.0,0.0,0.0,0.0,0.0,0.0,0.0,0.0,-0.9080661535263062,-0.5858501195907593,0.2730158269405365,0.0,0.0,0.0,0.0,0.0,0.0,0.0,0.0,0.0
1606987358053228464,1129100,1606983756838289695,imu_link,0.003576472867280245,0.006016927305608988,0.5663814544677734,0.8241135478019714,0.0,0.0,0.0,0.0,0.0,0.0,0.0,0.0,0.0,69.00061798095703,0.3360970616340637,0.7282952666282654,0.0,0.0,0.0,0.0,0.0,0.0,0.0,0.0,0.0,-0.9080661535263062,-0.5858501195907593,0.2730158269405365,0.0,0.0,0.0,0.0,0.0,0.0,0.0,0.0,0.0
1606987358053236583,1129101,1606983756838373328,imu_link,0.003520113881677389,0.005936991423368454,0.5660414695739746,0.8243479132652283,0.0,0.0,0.0,0.0,0.0,0.0,0.0,0.0,0.0,68.95323944091797,0.3325025737285614,0.7176468968391418,0.0,0.0,0.0,0.0,0.0,0.0,0.0,0.0,0.0,-0.1990327686071396,-0.5756346583366394,0.24631059169769287,0.0,0.0,0.0,0.0,0.0,0.0,0.0,0.0,0.0
1606987358053253116,1129102,1606983756838457523,imu_link,0.003520113881677389,0.005936991423368454,0.5660414695739746,0.8243479132652283,0.0,0.0,0.0,0.0,0.0,0.0,0.0,0.0,0.0,68.95323944091797,0.3325025737285614,0.7176468968391418,0.0,0.0,0.0,0.0,0.0,0.0,0.0,0.0,0.0,-0.1990327686071396,-0.5756346583366394,0.24631059169769287,0.0,0.0,0.0,0.0,0.0,0.0,0.0,0.0,0.0
1606987358065582538,1129103,1606983756838541172,imu_link,0.0034676359500736,0.0058524529449641705,0.5657117366790771,0.8245750665664673,0.0,0.0,0.0,0.0,0.0,0.0,0.0,0.0,0.0,68.90730285644531,0.328203946352005,0.707073986530304,0.0,0.0,0.0,0.0,0.0,0.0,0.0,0.0,0.0,0.2582542896270752,-0.19905215501785278,0.21073468029499054,0.0,0.0,0.0,0.0,0.0,0.0,0.0,0.0,0.0
1606987358065627229,1129104,1606983756838622415,imu_link,0.0034676359500736,0.0058524529449641705,0.5657117366790771,0.8245750665664673,0.0,0.0,0.0,0.0,0.0,0.0,0.0,0.0,0.0,68.90730285644531,0.328203946352005,0.707073986530304,0.0,0.0,0.0,0.0,0.0,0.0,0.0,0.0,0.0,0.2582542896270752,-0.19905215501785278,0.21073468029499054,0.0,0.0,0.0,0.0,0.0,0.0,0.0,0.0,0.0
1606987358065653710,1129105,1606983756838703838,imu_link,0.003414738457649946,0.005766585003584623,0.5653694868087769,0.8248105645179749,0.0,0.0,0.0,0.0,0.0,0.0,0.0,0.0,0.0,68.85963439941406,0.3238089680671692,0.6963739991188049,0.0,0.0,0.0,0.0,0.0,0.0,0.0,0.0,0.0,0.0021625012159347534,0.3963300883769989,0.11719424277544022,0.0,0.0,0.0,0.0,0.0,0.0,0.0,0.0,0.0
1606987358065677247,1129106,1606983756850479721,imu_link,0.003414738457649946,0.005766585003584623,0.5653694868087769,0.8248105645179749,0.0,0.0,0.0,0.0,0.0,0.0,0.0,0.0,0.0,68.85963439941406,0.3238089680671692,0.6963739991188049,0.0,0.0,0.0,0.0,0.0,0.0,0.0,0.0,0.0,0.0021625012159347534,0.3963300883769989,0.11719424277544022,0.0,0.0,0.0,0.0,0.0,0.0,0.0,0.0,0.0
1606987358065693860,1129107,1606983756850596982,imu_link,0.0033644125796854496,0.005687248893082142,0.5650317072868347,0.825042724609375,0.0,0.0,0.0,0.0,0.0,0.0,0.0,0.0,0.0,68.81261444091797,0.3198522925376892,0.6863457560539246,0.0,0.0,0.0,0.0,0.0,0.0,0.0,0.0,0.0,-0.7634598016738892,0.8800432682037354,-0.06095816567540169,0.0,0.0,0.0,0.0,0.0,0.0,0.0,0.0,0.0
1606987358104456694,1129108,1606983756850684049,imu_link,0.0033644125796854496,0.005687248893082142,0.5650317072868347,0.825042724609375,0.0,0.0,0.0,0.0,0.0,0.0,0.0,0.0,0.0,68.81261444091797,0.3198522925376892,0.6863457560539246,0.0,0.0,0.0,0.0,0.0,0.0,0.0,0.0,0.0,-0.7634598016738892,0.8800432682037354,-0.06095816567540169,0.0,0.0,0.0,0.0,0.0,0.0,0.0,0.0,0.0
1606987358104507240,1129109,1606983756850767216,imu_link,0.0033153353724628687,0.0056180101819336414,0.5646876096725464,0.8252789974212646,0.0,0.0,0.0,0.0,0.0,0.0,0.0,0.0,0.0,68.76473236083984,0.3167667090892792,0.6770899295806885,0.0,0.0,0.0,0.0,0.0,0.0,0.0,0.0,0.0,-1.4967763423919678,1.0485210418701172,-0.14895685017108917,0.0,0.0,0.0,0.0,0.0,0.0,0.0,0.0,0.0
1606987358104544997,1129110,1606983756850847141,imu_link,0.0033153353724628687,0.0056180101819336414,0.5646876096725464,0.8252789974212646,0.0,0.0,0.0,0.0,0.0,0.0,0.0,0.0,0.0,68.76473236083984,0.3167667090892792,0.6770899295806885,0.0,0.0,0.0,0.0,0.0,0.0,0.0,0.0,0.0,-1.4967763423919678,1.0485210418701172,-0.14895685017108917,0.0,0.0,0.0,0.0,0.0,0.0,0.0,0.0,0.0
1606987358104561609,1129111,1606983756850979708,imu_link,0.003262992249801755,0.005560847464948893,0.5643394589424133,0.8255176544189453,0.0,0.0,0.0,0.0,0.0,0.0,0.0,0.0,0.0,68.7163314819336,0.3150300979614258,0.6683075428009033,0.0,0.0,0.0,0.0,0.0,0.0,0.0,0.0,0.0,-1.7254613637924194,1.1103615760803223,-0.20885199308395386,0.0,0.0,0.0,0.0,0.0,0.0,0.0,0.0,0.0
1606987358116497209,1129112,1606983756851066800,imu_link,0.003262992249801755,0.005560847464948893,0.5643394589424133,0.8255176544189453,0.0,0.0,0.0,0.0,0.0,0.0,0.0,0.0,0.0,68.7163314819336,0.3150300979614258,0.6683075428009033,0.0,0.0,0.0,0.0,0.0,0.0,0.0,0.0,0.0,-1.7254613637924194,1.1103615760803223,-0.20885199308395386,0.0,0.0,0.0,0.0,0.0,0.0,0.0,0.0,0.0
1606987358116536657,1129113,1606983756851198640,imu_link,0.0032131019979715347,0.005512042436748743,0.56399005651474,0.8257569670677185,0.0,0.0,0.0,0.0,0.0,0.0,0.0,0.0,0.0,68.66777038574219,0.31391939520835876,0.6602985262870789,0.0,0.0,0.0,0.0,0.0,0.0,0.0,0.0,0.0,-1.1854920387268066,1.234894037246704,-0.3373944163322449,0.0,0.0,0.0,0.0,0.0,0.0,0.0,0.0,0.0
1606987358116558130,1129114,1606983756851283837,imu_link,0.0032131019979715347,0.005512042436748743,0.56399005651474,0.8257569670677185,0.0,0.0,0.0,0.0,0.0,0.0,0.0,0.0,0.0,68.66777038574219,0.31391939520835876,0.6602985262870789,0.0,0.0,0.0,0.0,0.0,0.0,0.0,0.0,0.0,-1.1854920387268066,1.234894037246704,-0.3373944163322449,0.0,0.0,0.0,0.0,0.0,0.0,0.0,0.0,0.0
1606987358116571380,1129115,1606983756851360860,imu_link,0.00316986464895308,0.005464533343911171,0.5636387467384338,0.8259972333908081,0.0,0.0,0.0,0.0,0.0,0.0,0.0,0.0,0.0,68.61897277832031,0.31249624490737915,0.653003454208374,0.0,0.0,0.0,0.0,0.0,0.0,0.0,0.0,0.0,-0.25283363461494446,1.401545524597168,-0.3144894540309906,0.0,0.0,0.0,0.0,0.0,0.0,0.0,0.0,0.0
1606987358172517748,1129116,1606983756864361743,imu_link,0.00316986464895308,0.005464533343911171,0.5636387467384338,0.8259972333908081,0.0,0.0,0.0,0.0,0.0,0.0,0.0,0.0,0.0,68.61897277832031,0.31249624490737915,0.653003454208374,0.0,0.0,0.0,0.0,0.0,0.0,0.0,0.0,0.0,-0.25283363461494446,1.401545524597168,-0.3144894540309906,0.0,0.0,0.0,0.0,0.0,0.0,0.0,0.0,0.0
1606987358172534399,1129117,1606983756864503436,imu_link,0.0031326208263635635,0.0054170070216059685,0.5632908344268799,0.8262349367141724,0.0,0.0,0.0,0.0,0.0,0.0,0.0,0.0,0.0,68.5706558227539,0.3106756806373596,0.6462773680686951,0.0,0.0,0.0,0.0,0.0,0.0,0.0,0.0,0.0,0.6179877519607544,1.4380840063095093,-0.33386722207069397,0.0,0.0,0.0,0.0,0.0,0.0,0.0,0.0,0.0
1606987358172541983,1129118,1606983756864659166,imu_link,0.0031326208263635635,0.0054170070216059685,0.5632908344268799,0.8262349367141724,0.0,0.0,0.0,0.0,0.0,0.0,0.0,0.0,0.0,68.5706558227539,0.3106756806373596,0.6462773680686951,0.0,0.0,0.0,0.0,0.0,0.0,0.0,0.0,0.0,0.6179877519607544,1.4380840063095093,-0.33386722207069397,0.0,0.0,0.0,0.0,0.0,0.0,0.0,0.0,0.0
1606987358172548501,1129119,1606983756864791317,imu_link,0.0031024899799376726,0.005365920253098011,0.5629286170005798,0.8264822959899902,0.0,0.0,0.0,0.0,0.0,0.0,0.0,0.0,0.0,68.5203628540039,0.3080645799636841,0.6399914622306824,0.0,0.0,0.0,0.0,0.0,0.0,0.0,0.0,0.0,1.0546880960464478,1.4862244129180908,-0.6189599633216858,0.0,0.0,0.0,0.0,0.0,0.0,0.0,0.0,0.0
1606987358172558018,1129120,1606983756864886442,imu_link,0.0031024899799376726,0.005365920253098011,0.5629286170005798,0.8264822959899902,0.0,0.0,0.0,0.0,0.0,0.0,0.0,0.0,0.0,68.5203628540039,0.3080645799636841,0.6399914622306824,0.0,0.0,0.0,0.0,0.0,0.0,0.0,0.0,0.0,1.0546880960464478,1.4862244129180908,-0.6189599633216858,0.0,0.0,0.0,0.0,0.0,0.0,0.0,0.0,0.0
1606987358180306422,1129121,1606983756864968552,imu_link,0.0030835685320198536,0.0053126816637814045,0.5625707507133484,0.8267263174057007,0.0,0.0,0.0,0.0,0.0,0.0,0.0,0.0,0.0,68.47069549560547,0.3045179545879364,0.6346330046653748,0.0,0.0,0.0,0.0,0.0,0.0,0.0,0.0,0.0,0.9832877516746521,2.068202495574951,-0.7659063935279846,0.0,0.0,0.0,0.0,0.0,0.0,0.0,0.0,0.0
1606987358180338802,1129122,1606983756865071831,imu_link,0.0030835685320198536,0.0053126816637814045,0.5625707507133484,0.8267263174057007,0.0,0.0,0.0,0.0,0.0,0.0,0.0,0.0,0.0,68.47069549560547,0.3045179545879364,0.6346330046653748,0.0,0.0,0.0,0.0,0.0,0.0,0.0,0.0,0.0,0.9832877516746521,2.068202495574951,-0.7659063935279846,0.0,0.0,0.0,0.0,0.0,0.0,0.0,0.0,0.0
1606987358180350243,1129123,1606983756865157319,imu_link,0.003072167281061411,0.005270541179925203,0.5622129440307617,0.8269700407981873,0.0,0.0,0.0,0.0,0.0,0.0,0.0,0.0,0.0,68.42105102539062,0.30153387784957886,0.6307054758071899,0.0,0.0,0.0,0.0,0.0,0.0,0.0,0.0,0.0,0.5913699269294739,2.8986713886260986,-0.7875205874443054,0.0,0.0,0.0,0.0,0.0,0.0,0.0,0.0,0.0
1606987358180364115,1129124,1606983756865240567,imu_link,0.003072167281061411,0.005270541179925203,0.5622129440307617,0.8269700407981873,0.0,0.0,0.0,0.0,0.0,0.0,0.0,0.0,0.0,68.42105102539062,0.30153387784957886,0.6307054758071899,0.0,0.0,0.0,0.0,0.0,0.0,0.0,0.0,0.0,0.5913699269294739,2.8986713886260986,-0.7875205874443054,0.0,0.0,0.0,0.0,0.0,0.0,0.0,0.0,0.0
1606987358188435433,1129125,1606983756865320803,imu_link,0.003077121451497078,0.005239210557192564,0.561852216720581,0.8272153735160828,0.0,0.0,0.0,0.0,0.0,0.0,0.0,0.0,0.0,68.37104034423828,0.29852014780044556,0.6290260553359985,0.0,0.0,0.0,0.0,0.0,0.0,0.0,0.0,0.0,0.34996598958969116,3.526921272277832,-0.9463505744934082,0.0,0.0,0.0,0.0,0.0,0.0,0.0,0.0,0.0
1606987358188469311,1129126,1606983756865401174,imu_link,0.003077121451497078,0.005239210557192564,0.561852216720581,0.8272153735160828,0.0,0.0,0.0,0.0,0.0,0.0,0.0,0.0,0.0,68.37104034423828,0.29852014780044556,0.6290260553359985,0.0,0.0,0.0,0.0,0.0,0.0,0.0,0.0,0.0,0.34996598958969116,3.526921272277832,-0.9463505744934082,0.0,0.0,0.0,0.0,0.0,0.0,0.0,0.0,0.0
1606987358188488949,1129127,1606983756877722840,imu_link,0.003095543710514903,0.005213725380599499,0.5615059733390808,0.8274505138397217,0.0,0.0,0.0,0.0,0.0,0.0,0.0,0.0,0.0,68.32305908203125,0.2951815128326416,0.629007875919342,0.0,0.0,0.0,0.0,0.0,0.0,0.0,0.0,0.0,0.5128951668739319,3.5179624557495117,-0.9578027725219727,0.0,0.0,0.0,0.0,0.0,0.0,0.0,0.0,0.0
1606987358188498275,1129128,1606983756877839530,imu_link,0.003095543710514903,0.005213725380599499,0.5615059733390808,0.8274505138397217,0.0,0.0,0.0,0.0,0.0,0.0,0.0,0.0,0.0,68.32305908203125,0.2951815128326416,0.629007875919342,0.0,0.0,0.0,0.0,0.0,0.0,0.0,0.0,0.0,0.5128951668739319,3.5179624557495117,-0.9578027725219727,0.0,0.0,0.0,0.0,0.0,0.0,0.0,0.0,0.0
1606987358188522073,1129129,1606983756877932214,imu_link,0.0031215879134833813,0.005189042538404465,0.5611394643783569,0.8276991844177246,0.0,0.0,0.0,0.0,0.0,0.0,0.0,0.0,0.0,68.27229309082031,0.2914442718029022,0.6297600269317627,0.0,0.0,0.0,0.0,0.0,0.0,0.0,0.0,0.0,1.0567229986190796,3.001255989074707,-1.0968546867370605,0.0,0.0,0.0,0.0,0.0,0.0,0.0,0.0,0.0
1606987358194077319,1129130,1606983756878017201,imu_link,0.0031215879134833813,0.005189042538404465,0.5611394643783569,0.8276991844177246,0.0,0.0,0.0,0.0,0.0,0.0,0.0,0.0,0.0,68.27229309082031,0.2914442718029022,0.6297600269317627,0.0,0.0,0.0,0.0,0.0,0.0,0.0,0.0,0.0,1.0567229986190796,3.001255989074707,-1.0968546867370605,0.0,0.0,0.0,0.0,0.0,0.0,0.0,0.0,0.0
1606987358194098476,1129131,1606983756878101962,imu_link,0.003159650368615985,0.005159521941095591,0.5607924461364746,0.8279342651367188,0.0,0.0,0.0,0.0,0.0,0.0,0.0,0.0,0.0,68.22423553466797,0.28646141290664673,0.6313518285751343,0.0,0.0,0.0,0.0,0.0,0.0,0.0,0.0,0.0,1.7320148944854736,2.5479652881622314,-1.0967458486557007,0.0,0.0,0.0,0.0,0.0,0.0,0.0,0.0,0.0
1606987358194111907,1129132,1606983756878183947,imu_link,0.003159650368615985,0.005159521941095591,0.5607924461364746,0.8279342651367188,0.0,0.0,0.0,0.0,0.0,0.0,0.0,0.0,0.0,68.22423553466797,0.28646141290664673,0.6313518285751343,0.0,0.0,0.0,0.0,0.0,0.0,0.0,0.0,0.0,1.7320148944854736,2.5479652881622314,-1.0967458486557007,0.0,0.0,0.0,0.0,0.0,0.0,0.0,0.0,0.0
1606987358194118868,1129133,1606983756878284715,imu_link,0.0032082658726722,0.005125011783093214,0.560422956943512,0.8281844258308411,0.0,0.0,0.0,0.0,0.0,0.0,0.0,0.0,0.0,68.17308044433594,0.2803458571434021,0.633621335029602,0.0,0.0,0.0,0.0,0.0,0.0,0.0,0.0,0.0,1.8823866844177246,2.4324398040771484,-1.0404515266418457,0.0,0.0,0.0,0.0,0.0,0.0,0.0,0.0,0.0
1606987358238291433,1129134,1606983756878365312,imu_link,0.0032082658726722,0.005125011783093214,0.560422956943512,0.8281844258308411,0.0,0.0,0.0,0.0,0.0,0.0,0.0,0.0,0.0,68.17308044433594,0.2803458571434021,0.633621335029602,0.0,0.0,0.0,0.0,0.0,0.0,0.0,0.0,0.0,1.8823866844177246,2.4324398040771484,-1.0404515266418457,0.0,0.0,0.0,0.0,0.0,0.0,0.0,0.0,0.0
1606987358238357295,1129135,1606983756878534483,imu_link,0.003270209999755025,0.0050932615995407104,0.5600792765617371,0.8284169435501099,0.0,0.0,0.0,0.0,0.0,0.0,0.0,0.0,0.0,68.12548828125,0.27361905574798584,0.637347400188446,0.0,0.0,0.0,0.0,0.0,0.0,0.0,0.0,0.0,1.3444401025772095,2.8599393367767334,-1.2332499027252197,0.0,0.0,0.0,0.0,0.0,0.0,0.0,0.0,0.0
1606987358238393591,1129136,1606983756878618954,imu_link,0.003270209999755025,0.0050932615995407104,0.5600792765617371,0.8284169435501099,0.0,0.0,0.0,0.0,0.0,0.0,0.0,0.0,0.0,68.12548828125,0.27361905574798584,0.637347400188446,0.0,0.0,0.0,0.0,0.0,0.0,0.0,0.0,0.0,1.3444401025772095,2.8599393367767334,-1.2332499027252197,0.0,0.0,0.0,0.0,0.0,0.0,0.0,0.0,0.0
1606987358238407190,1129137,1606983756878710571,imu_link,0.0033417914528399706,0.005068287253379822,0.5597213506698608,0.8286586999893188,0.0,0.0,0.0,0.0,0.0,0.0,0.0,0.0,0.0,68.07597351074219,0.2669314742088318,0.6424243450164795,0.0,0.0,0.0,0.0,0.0,0.0,0.0,0.0,0.0,0.5583615303039551,3.475179433822632,-1.163599967956543,0.0,0.0,0.0,0.0,0.0,0.0,0.0,0.0,0.0
1606987358238415938,1129138,1606983756891584911,imu_link,0.0033417914528399706,0.005068287253379822,0.5597213506698608,0.8286586999893188,0.0,0.0,0.0,0.0,0.0,0.0,0.0,0.0,0.0,68.07597351074219,0.2669314742088318,0.6424243450164795,0.0,0.0,0.0,0.0,0.0,0.0,0.0,0.0,0.0,0.5583615303039551,3.475179433822632,-1.163599967956543,0.0,0.0,0.0,0.0,0.0,0.0,0.0,0.0,0.0
1606987358245336435,1129139,1606983756891699937,imu_link,0.003422956680878997,0.005061166360974312,0.5593781471252441,0.8288901448249817,0.0,0.0,0.0,0.0,0.0,0.0,0.0,0.0,0.0,68.02852630615234,0.2613182067871094,0.6495668292045593,0.0,0.0,0.0,0.0,0.0,0.0,0.0,0.0,0.0,0.04729466140270233,4.0287766456604,-1.2123628854751587,0.0,0.0,0.0,0.0,0.0,0.0,0.0,0.0,0.0
1606987358245364813,1129140,1606983756891786602,imu_link,0.003422956680878997,0.005061166360974312,0.5593781471252441,0.8288901448249817,0.0,0.0,0.0,0.0,0.0,0.0,0.0,0.0,0.0,68.02852630615234,0.2613182067871094,0.6495668292045593,0.0,0.0,0.0,0.0,0.0,0.0,0.0,0.0,0.0,0.04729466140270233,4.0287766456604,-1.2123628854751587,0.0,0.0,0.0,0.0,0.0,0.0,0.0,0.0,0.0
1606987358245375933,1129141,1606983756891872977,imu_link,0.0035185501910746098,0.00506062526255846,0.5590366125106812,0.8291201591491699,0.0,0.0,0.0,0.0,0.0,0.0,0.0,0.0,0.0,67.9813232421875,0.2554103136062622,0.6585071086883545,0.0,0.0,0.0,0.0,0.0,0.0,0.0,0.0,0.0,0.10489469021558762,4.050667762756348,-1.1783146858215332,0.0,0.0,0.0,0.0,0.0,0.0,0.0,0.0,0.0
1606987358245389778,1129142,1606983756891953639,imu_link,0.0035185501910746098,0.00506062526255846,0.5590366125106812,0.8291201591491699,0.0,0.0,0.0,0.0,0.0,0.0,0.0,0.0,0.0,67.9813232421875,0.2554103136062622,0.6585071086883545,0.0,0.0,0.0,0.0,0.0,0.0,0.0,0.0,0.0,0.10489469021558762,4.050667762756348,-1.1783146858215332,0.0,0.0,0.0,0.0,0.0,0.0,0.0,0.0,0.0
1606987358270590496,1129143,1606983756892037047,imu_link,0.0036226140800863504,0.005067239981144667,0.5587009191513062,0.8293458819389343,0.0,0.0,0.0,0.0,0.0,0.0,0.0,0.0,0.0,67.9349594116211,0.24964268505573273,0.6687172055244446,0.0,0.0,0.0,0.0,0.0,0.0,0.0,0.0,0.0,0.5727055072784424,3.3823440074920654,-1.0902643203735352,0.0,0.0,0.0,0.0,0.0,0.0,0.0,0.0,0.0
1606987358270665031,1129144,1606983756892136427,imu_link,0.0036226140800863504,0.005067239981144667,0.5587009191513062,0.8293458819389343,0.0,0.0,0.0,0.0,0.0,0.0,0.0,0.0,0.0,67.9349594116211,0.24964268505573273,0.6687172055244446,0.0,0.0,0.0,0.0,0.0,0.0,0.0,0.0,0.0,0.5727055072784424,3.3823440074920654,-1.0902643203735352,0.0,0.0,0.0,0.0,0.0,0.0,0.0,0.0,0.0
1606987358270694411,1129145,1606983756892218256,imu_link,0.003733902471140027,0.00506951566785574,0.5583696365356445,0.8295684456825256,0.0,0.0,0.0,0.0,0.0,0.0,0.0,0.0,0.0,67.88920593261719,0.2430049628019333,0.6793426275253296,0.0,0.0,0.0,0.0,0.0,0.0,0.0,0.0,0.0,0.8974525928497314,2.345874071121216,-1.07235586643219,0.0,0.0,0.0,0.0,0.0,0.0,0.0,0.0,0.0
1606987358270742635,1129146,1606983756892305483,imu_link,0.003733902471140027,0.00506951566785574,0.5583696365356445,0.8295684456825256,0.0,0.0,0.0,0.0,0.0,0.0,0.0,0.0,0.0,67.88920593261719,0.2430049628019333,0.6793426275253296,0.0,0.0,0.0,0.0,0.0,0.0,0.0,0.0,0.0,0.8974525928497314,2.345874071121216,-1.07235586643219,0.0,0.0,0.0,0.0,0.0,0.0,0.0,0.0,0.0
1606987358270768374,1129147,1606983756892386190,imu_link,0.003846504259854555,0.005069229286164045,0.5580379962921143,0.8297910690307617,0.0,0.0,0.0,0.0,0.0,0.0,0.0,0.0,0.0,67.84342193603516,0.23604847490787506,0.6899343729019165,0.0,0.0,0.0,0.0,0.0,0.0,0.0,0.0,0.0,0.8676502704620361,1.4067649841308594,-0.902842104434967,0.0,0.0,0.0,0.0,0.0,0.0,0.0,0.0,0.0
1606987358279303826,1129148,1606983756892469037,imu_link,0.003846504259854555,0.005069229286164045,0.5580379962921143,0.8297910690307617,0.0,0.0,0.0,0.0,0.0,0.0,0.0,0.0,0.0,67.84342193603516,0.23604847490787506,0.6899343729019165,0.0,0.0,0.0,0.0,0.0,0.0,0.0,0.0,0.0,0.8676502704620361,1.4067649841308594,-0.902842104434967,0.0,0.0,0.0,0.0,0.0,0.0,0.0,0.0,0.0
1606987358279359762,1129149,1606983756905011684,imu_link,0.003956078551709652,0.005070301238447428,0.5577064156532288,0.8300134539604187,0.0,0.0,0.0,0.0,0.0,0.0,0.0,0.0,0.0,67.79764556884766,0.2294229418039322,0.7003306150436401,0.0,0.0,0.0,0.0,0.0,0.0,0.0,0.0,0.0,0.5005373954772949,1.0986077785491943,-0.9352052807807922,0.0,0.0,0.0,0.0,0.0,0.0,0.0,0.0,0.0
1606987358279396774,1129150,1606983756905126315,imu_link,0.003956078551709652,0.005070301238447428,0.5577064156532288,0.8300134539604187,0.0,0.0,0.0,0.0,0.0,0.0,0.0,0.0,0.0,67.79764556884766,0.2294229418039322,0.7003306150436401,0.0,0.0,0.0,0.0,0.0,0.0,0.0,0.0,0.0,0.5005373954772949,1.0986077785491943,-0.9352052807807922,0.0,0.0,0.0,0.0,0.0,0.0,0.0,0.0,0.0
1606987358279419182,1129151,1606983756905212133,imu_link,0.004069779999554157,0.0050737326964735985,0.5573819279670715,0.830230712890625,0.0,0.0,0.0,0.0,0.0,0.0,0.0,0.0,0.0,67.75287628173828,0.22276043891906738,0.7112778425216675,0.0,0.0,0.0,0.0,0.0,0.0,0.0,0.0,0.0,0.010873906314373016,1.4923838376998901,-0.8014799356460571,0.0,0.0,0.0,0.0,0.0,0.0,0.0,0.0,0.0
1606987358337267871,1129152,1606983756905302613,imu_link,0.004069779999554157,0.0050737326964735985,0.5573819279670715,0.830230712890625,0.0,0.0,0.0,0.0,0.0,0.0,0.0,0.0,0.0,67.75287628173828,0.22276043891906738,0.7112778425216675,0.0,0.0,0.0,0.0,0.0,0.0,0.0,0.0,0.0,0.010873906314373016,1.4923838376998901,-0.8014799356460571,0.0,0.0,0.0,0.0,0.0,0.0,0.0,0.0,0.0
1606987358337291625,1129153,1606983756905381976,imu_link,0.004186419304460287,0.0050869593396782875,0.5570565462112427,0.8304485082626343,0.0,0.0,0.0,0.0,0.0,0.0,0.0,0.0,0.0,67.70799255371094,0.21685191988945007,0.7231347560882568,0.0,0.0,0.0,0.0,0.0,0.0,0.0,0.0,0.0,-0.2551150619983673,2.1316769123077393,-0.6819711923599243,0.0,0.0,0.0,0.0,0.0,0.0,0.0,0.0,0.0
1606987358337301810,1129154,1606983756905495374,imu_link,0.004186419304460287,0.0050869593396782875,0.5570565462112427,0.8304485082626343,0.0,0.0,0.0,0.0,0.0,0.0,0.0,0.0,0.0,67.70799255371094,0.21685191988945007,0.7231347560882568,0.0,0.0,0.0,0.0,0.0,0.0,0.0,0.0,0.0,-0.2551150619983673,2.1316769123077393,-0.6819711923599243,0.0,0.0,0.0,0.0,0.0,0.0,0.0,0.0,0.0
1606987358337311447,1129155,1606983756905576917,imu_link,0.0043105557560920715,0.005106552504003048,0.5567508935928345,0.83065265417099,0.0,0.0,0.0,0.0,0.0,0.0,0.0,0.0,0.0,67.66586303710938,0.2110627293586731,0.7361214756965637,0.0,0.0,0.0,0.0,0.0,0.0,0.0,0.0,0.0,-0.043934158980846405,2.3862175941467285,-0.6062375903129578,0.0,0.0,0.0,0.0,0.0,0.0,0.0,0.0,0.0
1606987358337325988,1129156,1606983756905699852,imu_link,0.0043105557560920715,0.005106552504003048,0.5567508935928345,0.83065265417099,0.0,0.0,0.0,0.0,0.0,0.0,0.0,0.0,0.0,67.66586303710938,0.2110627293586731,0.7361214756965637,0.0,0.0,0.0,0.0,0.0,0.0,0.0,0.0,0.0,-0.043934158980846405,2.3862175941467285,-0.6062375903129578,0.0,0.0,0.0,0.0,0.0,0.0,0.0,0.0,0.0
1606987358346579599,1129157,1606983756905783731,imu_link,0.0044379085302352905,0.005129222292453051,0.5564371943473816,0.8308620452880859,0.0,0.0,0.0,0.0,0.0,0.0,0.0,0.0,0.0,67.62262725830078,0.20537815988063812,0.7496129274368286,0.0,0.0,0.0,0.0,0.0,0.0,0.0,0.0,0.0,0.4196696877479553,1.9637870788574219,-0.4595773220062256,0.0,0.0,0.0,0.0,0.0,0.0,0.0,0.0,0.0
1606987358346602312,1129158,1606983756905872491,imu_link,0.0044379085302352905,0.005129222292453051,0.5564371943473816,0.8308620452880859,0.0,0.0,0.0,0.0,0.0,0.0,0.0,0.0,0.0,67.62262725830078,0.20537815988063812,0.7496129274368286,0.0,0.0,0.0,0.0,0.0,0.0,0.0,0.0,0.0,0.4196696877479553,1.9637870788574219,-0.4595773220062256,0.0,0.0,0.0,0.0,0.0,0.0,0.0,0.0,0.0
1606987358346617516,1129159,1606983756905950682,imu_link,0.004567983094602823,0.0051453979685902596,0.5561408996582031,0.8310595750808716,0.0,0.0,0.0,0.0,0.0,0.0,0.0,0.0,0.0,67.58180236816406,0.19889581203460693,0.7629584670066833,0.0,0.0,0.0,0.0,0.0,0.0,0.0,0.0,0.0,0.8431234955787659,0.930422306060791,-0.34628334641456604,0.0,0.0,0.0,0.0,0.0,0.0,0.0,0.0,0.0
1606987358346628498,1129160,1606983756918038056,imu_link,0.004567983094602823,0.0051453979685902596,0.5561408996582031,0.8310595750808716,0.0,0.0,0.0,0.0,0.0,0.0,0.0,0.0,0.0,67.58180236816406,0.19889581203460693,0.7629584670066833,0.0,0.0,0.0,0.0,0.0,0.0,0.0,0.0,0.0,0.8431234955787659,0.930422306060791,-0.34628334641456604,0.0,0.0,0.0,0.0,0.0,0.0,0.0,0.0,0.0
1606987358354064397,1129161,1606983756918177228,imu_link,0.004696034826338291,0.005154083948582411,0.5558290481567383,0.8312674760818481,0.0,0.0,0.0,0.0,0.0,0.0,0.0,0.0,0.0,67.53882598876953,0.19185294210910797,0.7756351828575134,0.0,0.0,0.0,0.0,0.0,0.0,0.0,0.0,0.0,1.035589575767517,-0.1352532058954239,-0.1554402858018875,0.0,0.0,0.0,0.0,0.0,0.0,0.0,0.0,0.0
1606987358354113597,1129162,1606983756918337740,imu_link,0.004696034826338291,0.005154083948582411,0.5558290481567383,0.8312674760818481,0.0,0.0,0.0,0.0,0.0,0.0,0.0,0.0,0.0,67.53882598876953,0.19185294210910797,0.7756351828575134,0.0,0.0,0.0,0.0,0.0,0.0,0.0,0.0,0.0,1.035589575767517,-0.1352532058954239,-0.1554402858018875,0.0,0.0,0.0,0.0,0.0,0.0,0.0,0.0,0.0
1606987358354130350,1129163,1606983756918432198,imu_link,0.004814522340893745,0.00515803974121809,0.5555274486541748,0.8314682841300964,0.0,0.0,0.0,0.0,0.0,0.0,0.0,0.0,0.0,67.49727630615234,0.18496794998645782,0.7871072292327881,0.0,0.0,0.0,0.0,0.0,0.0,0.0,0.0,0.0,0.7758740186691284,-0.6137973070144653,-0.033713072538375854,0.0,0.0,0.0,0.0,0.0,0.0,0.0,0.0,0.0
1606987358354145479,1129164,1606983756918529694,imu_link,0.004814522340893745,0.00515803974121809,0.5555274486541748,0.8314682841300964,0.0,0.0,0.0,0.0,0.0,0.0,0.0,0.0,0.0,67.49727630615234,0.18496794998645782,0.7871072292327881,0.0,0.0,0.0,0.0,0.0,0.0,0.0,0.0,0.0,0.7758740186691284,-0.6137973070144653,-0.033713072538375854,0.0,0.0,0.0,0.0,0.0,0.0,0.0,0.0,0.0
1606987358354162405,1129165,1606983756918634015,imu_link,0.004931682255119085,0.005158533807843924,0.5552232265472412,0.8316707611083984,0.0,0.0,0.0,0.0,0.0,0.0,0.0,0.0,0.0,67.45536804199219,0.17784833908081055,0.7982369661331177,0.0,0.0,0.0,0.0,0.0,0.0,0.0,0.0,0.0,0.311055064201355,-0.3469406068325043,0.048971932381391525,0.0,0.0,0.0,0.0,0.0,0.0,0.0,0.0,0.0
1606987358359589320,1129166,1606983756918717659,imu_link,0.004931682255119085,0.005158533807843924,0.5552232265472412,0.8316707611083984,0.0,0.0,0.0,0.0,0.0,0.0,0.0,0.0,0.0,67.45536804199219,0.17784833908081055,0.7982369661331177,0.0,0.0,0.0,0.0,0.0,0.0,0.0,0.0,0.0,0.311055064201355,-0.3469406068325043,0.048971932381391525,0.0,0.0,0.0,0.0,0.0,0.0,0.0,0.0,0.0
1606987358359619716,1129167,1606983756918796692,imu_link,0.005046297796070576,0.005165244918316603,0.5549294352531433,0.8318660855293274,0.0,0.0,0.0,0.0,0.0,0.0,0.0,0.0,0.0,67.41490936279297,0.17148113250732422,0.8095270991325378,0.0,0.0,0.0,0.0,0.0,0.0,0.0,0.0,0.0,-0.10761693120002747,0.2886584997177124,0.10165499895811081,0.0,0.0,0.0,0.0,0.0,0.0,0.0,0.0,0.0
1606987358359664043,1129168,1606983756918924969,imu_link,0.005046297796070576,0.005165244918316603,0.5549294352531433,0.8318660855293274,0.0,0.0,0.0,0.0,0.0,0.0,0.0,0.0,0.0,67.41490936279297,0.17148113250732422,0.8095270991325378,0.0,0.0,0.0,0.0,0.0,0.0,0.0,0.0,0.0,-0.10761693120002747,0.2886584997177124,0.10165499895811081,0.0,0.0,0.0,0.0,0.0,0.0,0.0,0.0,0.0
1606987358359696814,1129169,1606983756919036161,imu_link,0.005157820880413055,0.0051775844767689705,0.5546360611915588,0.8320609927177429,0.0,0.0,0.0,0.0,0.0,0.0,0.0,0.0,0.0,67.37452697753906,0.1658545732498169,0.8208847641944885,0.0,0.0,0.0,0.0,0.0,0.0,0.0,0.0,0.0,-0.1572510302066803,0.6826089024543762,0.23085694015026093,0.0,0.0,0.0,0.0,0.0,0.0,0.0,0.0,0.0
1606987358427006167,1129170,1606983756931735441,imu_link,0.005157820880413055,0.0051775844767689705,0.5546360611915588,0.8320609927177429,0.0,0.0,0.0,0.0,0.0,0.0,0.0,0.0,0.0,67.37452697753906,0.1658545732498169,0.8208847641944885,0.0,0.0,0.0,0.0,0.0,0.0,0.0,0.0,0.0,-0.1572510302066803,0.6826089024543762,0.23085694015026093,0.0,0.0,0.0,0.0,0.0,0.0,0.0,0.0,0.0
1606987358427041423,1129171,1606983756932035225,imu_link,0.005271072965115309,0.005190479569137096,0.5543506741523743,0.8322503566741943,0.0,0.0,0.0,0.0,0.0,0.0,0.0,0.0,0.0,67.33525085449219,0.16017121076583862,0.8324481844902039,0.0,0.0,0.0,0.0,0.0,0.0,0.0,0.0,0.0,0.26065710186958313,0.5791950225830078,0.3310609459877014,0.0,0.0,0.0,0.0,0.0,0.0,0.0,0.0,0.0
1606987358427055696,1129172,1606983756932172813,imu_link,0.005271072965115309,0.005190479569137096,0.5543506741523743,0.8322503566741943,0.0,0.0,0.0,0.0,0.0,0.0,0.0,0.0,0.0,67.33525085449219,0.16017121076583862,0.8324481844902039,0.0,0.0,0.0,0.0,0.0,0.0,0.0,0.0,0.0,0.26065710186958313,0.5791950225830078,0.3310609459877014,0.0,0.0,0.0,0.0,0.0,0.0,0.0,0.0,0.0
1606987358427112710,1129173,1606983756932262431,imu_link,0.005384072195738554,0.005196591839194298,0.5540645718574524,0.8324400186538696,0.0,0.0,0.0,0.0,0.0,0.0,0.0,0.0,0.0,67.29588317871094,0.15386536717414856,0.8435609340667725,0.0,0.0,0.0,0.0,0.0,0.0,0.0,0.0,0.0,0.7758221626281738,-0.07496630400419235,0.5071033835411072,0.0,0.0,0.0,0.0,0.0,0.0,0.0,0.0,0.0
1606987358427125806,1129174,1606983756932345423,imu_link,0.005384072195738554,0.005196591839194298,0.5540645718574524,0.8324400186538696,0.0,0.0,0.0,0.0,0.0,0.0,0.0,0.0,0.0,67.29588317871094,0.15386536717414856,0.8435609340667725,0.0,0.0,0.0,0.0,0.0,0.0,0.0,0.0,0.0,0.7758221626281738,-0.07496630400419235,0.5071033835411072,0.0,0.0,0.0,0.0,0.0,0.0,0.0,0.0,0.0
1606987358432528622,1129175,1606983756932426881,imu_link,0.005487262271344662,0.005194435361772776,0.5537806749343872,0.8326283097267151,0.0,0.0,0.0,0.0,0.0,0.0,0.0,0.0,0.0,67.2568130493164,0.14739862084388733,0.8532174229621887,0.0,0.0,0.0,0.0,0.0,0.0,0.0,0.0,0.0,1.0332385301589966,-0.8684209585189819,0.5167883038520813,0.0,0.0,0.0,0.0,0.0,0.0,0.0,0.0,0.0
1606987358432562574,1129176,1606983756932528030,imu_link,0.005487262271344662,0.005194435361772776,0.5537806749343872,0.8326283097267151,0.0,0.0,0.0,0.0,0.0,0.0,0.0,0.0,0.0,67.2568130493164,0.14739862084388733,0.8532174229621887,0.0,0.0,0.0,0.0,0.0,0.0,0.0,0.0,0.0,1.0332385301589966,-0.8684209585189819,0.5167883038520813,0.0,0.0,0.0,0.0,0.0,0.0,0.0,0.0,0.0
1606987358432617017,1129177,1606983756932611589,imu_link,0.005588291212916374,0.0051835146732628345,0.5534974336624146,0.8328160047531128,0.0,0.0,0.0,0.0,0.0,0.0,0.0,0.0,0.0,67.21783447265625,0.14023831486701965,0.8621166348457336,0.0,0.0,0.0,0.0,0.0,0.0,0.0,0.0,0.0,0.926331102848053,-1.108069658279419,0.5097241997718811,0.0,0.0,0.0,0.0,0.0,0.0,0.0,0.0,0.0
1606987358432637390,1129178,1606983756932693799,imu_link,0.005588291212916374,0.0051835146732628345,0.5534974336624146,0.8328160047531128,0.0,0.0,0.0,0.0,0.0,0.0,0.0,0.0,0.0,67.21783447265625,0.14023831486701965,0.8621166348457336,0.0,0.0,0.0,0.0,0.0,0.0,0.0,0.0,0.0,0.926331102848053,-1.108069658279419,0.5097241997718811,0.0,0.0,0.0,0.0,0.0,0.0,0.0,0.0,0.0
1606987358474363229,1129179,1606983756932776741,imu_link,0.005683406256139278,0.005170400254428387,0.5532155632972717,0.8330026865005493,0.0,0.0,0.0,0.0,0.0,0.0,0.0,0.0,0.0,67.17904663085938,0.13324813544750214,0.8703172206878662,0.0,0.0,0.0,0.0,0.0,0.0,0.0,0.0,0.0,0.5463920831680298,-0.8285916447639465,0.5999124050140381,0.0,0.0,0.0,0.0,0.0,0.0,0.0,0.0,0.0
1606987358474402612,1129180,1606983756932858114,imu_link,0.005683406256139278,0.005170400254428387,0.5532155632972717,0.8330026865005493,0.0,0.0,0.0,0.0,0.0,0.0,0.0,0.0,0.0,67.17904663085938,0.13324813544750214,0.8703172206878662,0.0,0.0,0.0,0.0,0.0,0.0,0.0,0.0,0.0,0.5463920831680298,-0.8285916447639465,0.5999124050140381,0.0,0.0,0.0,0.0,0.0,0.0,0.0,0.0,0.0
1606987358474433303,1129181,1606983756945067492,imu_link,0.00577637879177928,0.005159584805369377,0.5529395341873169,0.8331853747367859,0.0,0.0,0.0,0.0,0.0,0.0,0.0,0.0,0.0,67.14106750488281,0.1266125738620758,0.8784647583961487,0.0,0.0,0.0,0.0,0.0,0.0,0.0,0.0,0.0,0.1445166915655136,-0.12989716231822968,0.5820830464363098,0.0,0.0,0.0,0.0,0.0,0.0,0.0,0.0,0.0
1606987358474460037,1129182,1606983756945100902,imu_link,0.00577637879177928,0.005159584805369377,0.5529395341873169,0.8331853747367859,0.0,0.0,0.0,0.0,0.0,0.0,0.0,0.0,0.0,67.14106750488281,0.1266125738620758,0.8784647583961487,0.0,0.0,0.0,0.0,0.0,0.0,0.0,0.0,0.0,0.1445166915655136,-0.12989716231822968,0.5820830464363098,0.0,0.0,0.0,0.0,0.0,0.0,0.0,0.0,0.0
1606987358484045862,1129183,1606983756945125002,imu_link,0.005868325475603342,0.005155240185558796,0.5526591539382935,0.8333707451820374,0.0,0.0,0.0,0.0,0.0,0.0,0.0,0.0,0.0,67.10252380371094,0.1206698939204216,0.8869280219078064,0.0,0.0,0.0,0.0,0.0,0.0,0.0,0.0,0.0,-0.13718128204345703,0.6050398945808411,0.6377164125442505,0.0,0.0,0.0,0.0,0.0,0.0,0.0,0.0,0.0
1606987358484092702,1129184,1606983756945147198,imu_link,0.005868325475603342,0.005155240185558796,0.5526591539382935,0.8333707451820374,0.0,0.0,0.0,0.0,0.0,0.0,0.0,0.0,0.0,67.10252380371094,0.1206698939204216,0.8869280219078064,0.0,0.0,0.0,0.0,0.0,0.0,0.0,0.0,0.0,-0.13718128204345703,0.6050398945808411,0.6377164125442505,0.0,0.0,0.0,0.0,0.0,0.0,0.0,0.0,0.0
1606987358484117058,1129185,1606983756945170489,imu_link,0.005963559728115797,0.005152429454028606,0.5523968935012817,0.8335440158843994,0.0,0.0,0.0,0.0,0.0,0.0,0.0,0.0,0.0,67.06645965576172,0.11465179175138474,0.8958091139793396,0.0,0.0,0.0,0.0,0.0,0.0,0.0,0.0,0.0,-0.1770995408296585,0.616529107093811,0.6214935779571533,0.0,0.0,0.0,0.0,0.0,0.0,0.0,0.0,0.0
1606987358484214711,1129186,1606983756945193595,imu_link,0.005963559728115797,0.005152429454028606,0.5523968935012817,0.8335440158843994,0.0,0.0,0.0,0.0,0.0,0.0,0.0,0.0,0.0,67.06645965576172,0.11465179175138474,0.8958091139793396,0.0,0.0,0.0,0.0,0.0,0.0,0.0,0.0,0.0,-0.1770995408296585,0.616529107093811,0.6214935779571533,0.0,0.0,0.0,0.0,0.0,0.0,0.0,0.0,0.0
1606987358484288691,1129187,1606983756945219912,imu_link,0.0060530975461006165,0.005150092765688896,0.5521205067634583,0.8337264657020569,0.0,0.0,0.0,0.0,0.0,0.0,0.0,0.0,0.0,67.02847290039062,0.10906022787094116,0.9041779637336731,0.0,0.0,0.0,0.0,0.0,0.0,0.0,0.0,0.0,0.015811290591955185,0.0840456485748291,0.5372686982154846,0.0,0.0,0.0,0.0,0.0,0.0,0.0,0.0,0.0
1606987358525587863,1129188,1606983756945243559,imu_link,0.0060530975461006165,0.005150092765688896,0.5521205067634583,0.8337264657020569,0.0,0.0,0.0,0.0,0.0,0.0,0.0,0.0,0.0,67.02847290039062,0.10906022787094116,0.9041779637336731,0.0,0.0,0.0,0.0,0.0,0.0,0.0,0.0,0.0,0.015811290591955185,0.0840456485748291,0.5372686982154846,0.0,0.0,0.0,0.0,0.0,0.0,0.0,0.0,0.0
1606987358525616066,1129189,1606983756945265252,imu_link,0.006138233933597803,0.00514579750597477,0.5518601536750793,0.8338982462882996,0.0,0.0,0.0,0.0,0.0,0.0,0.0,0.0,0.0,66.99269104003906,0.1035478264093399,0.9120079874992371,0.0,0.0,0.0,0.0,0.0,0.0,0.0,0.0,0.0,0.2864285707473755,-0.5111503005027771,0.5051602125167847,0.0,0.0,0.0,0.0,0.0,0.0,0.0,0.0,0.0
1606987358525625792,1129190,1606983756945288572,imu_link,0.006138233933597803,0.00514579750597477,0.5518601536750793,0.8338982462882996,0.0,0.0,0.0,0.0,0.0,0.0,0.0,0.0,0.0,66.99269104003906,0.1035478264093399,0.9120079874992371,0.0,0.0,0.0,0.0,0.0,0.0,0.0,0.0,0.0,0.2864285707473755,-0.5111503005027771,0.5051602125167847,0.0,0.0,0.0,0.0,0.0,0.0,0.0,0.0,0.0
1606987358525635269,1129191,1606983756945311332,imu_link,0.006216864101588726,0.00513464817777276,0.5515872240066528,0.8340782523155212,0.0,0.0,0.0,0.0,0.0,0.0,0.0,0.0,0.0,66.95518493652344,0.09781032800674438,0.9187851548194885,0.0,0.0,0.0,0.0,0.0,0.0,0.0,0.0,0.0,0.7137153148651123,-0.9293004274368286,0.5470432639122009,0.0,0.0,0.0,0.0,0.0,0.0,0.0,0.0,0.0
1606987358530726923,1129192,1606983756959104772,imu_link,0.006216864101588726,0.00513464817777276,0.5515872240066528,0.8340782523155212,0.0,0.0,0.0,0.0,0.0,0.0,0.0,0.0,0.0,66.95518493652344,0.09781032800674438,0.9187851548194885,0.0,0.0,0.0,0.0,0.0,0.0,0.0,0.0,0.0,0.7137153148651123,-0.9293004274368286,0.5470432639122009,0.0,0.0,0.0,0.0,0.0,0.0,0.0,0.0,0.0
1606987358530744473,1129193,1606983756959174046,imu_link,0.0062972623854875565,0.005119832698255777,0.5513278245925903,0.8342492580413818,0.0,0.0,0.0,0.0,0.0,0.0,0.0,0.0,0.0,66.91954040527344,0.09160002321004868,0.9255048036575317,0.0,0.0,0.0,0.0,0.0,0.0,0.0,0.0,0.0,1.130013108253479,-0.6267755031585693,0.49975502490997314,0.0,0.0,0.0,0.0,0.0,0.0,0.0,0.0,0.0
1606987358530762871,1129194,1606983756959214236,imu_link,0.0062972623854875565,0.005119832698255777,0.5513278245925903,0.8342492580413818,0.0,0.0,0.0,0.0,0.0,0.0,0.0,0.0,0.0,66.91954040527344,0.09160002321004868,0.9255048036575317,0.0,0.0,0.0,0.0,0.0,0.0,0.0,0.0,0.0,1.130013108253479,-0.6267755031585693,0.49975502490997314,0.0,0.0,0.0,0.0,0.0,0.0,0.0,0.0,0.0
1606987358530782976,1129195,1606983756959253843,imu_link,0.00638197036460042,0.005097921006381512,0.551073431968689,0.8344168066978455,0.0,0.0,0.0,0.0,0.0,0.0,0.0,0.0,0.0,66.88458251953125,0.08443760126829147,0.9321930408477783,0.0,0.0,0.0,0.0,0.0,0.0,0.0,0.0,0.0,1.360080599784851,-0.04621906206011772,0.40700453519821167,0.0,0.0,0.0,0.0,0.0,0.0,0.0,0.0,0.0
1606987358530789894,1129196,1606983756959291488,imu_link,0.00638197036460042,0.005097921006381512,0.551073431968689,0.8344168066978455,0.0,0.0,0.0,0.0,0.0,0.0,0.0,0.0,0.0,66.88458251953125,0.08443760126829147,0.9321930408477783,0.0,0.0,0.0,0.0,0.0,0.0,0.0,0.0,0.0,1.360080599784851,-0.04621906206011772,0.40700453519821167,0.0,0.0,0.0,0.0,0.0,0.0,0.0,0.0,0.0
1606987358540041589,1129197,1606983756959336137,imu_link,0.0064695351757109165,0.005072760861366987,0.5508245229721069,0.8345806002616882,0.0,0.0,0.0,0.0,0.0,0.0,0.0,0.0,0.0,66.85037994384766,0.07678195834159851,0.9389543533325195,0.0,0.0,0.0,0.0,0.0,0.0,0.0,0.0,0.0,1.4932334423065186,0.416370689868927,0.4551127254962921,0.0,0.0,0.0,0.0,0.0,0.0,0.0,0.0,0.0
1606987358540096078,1129198,1606983756959374664,imu_link,0.0064695351757109165,0.005072760861366987,0.5508245229721069,0.8345806002616882,0.0,0.0,0.0,0.0,0.0,0.0,0.0,0.0,0.0,66.85037994384766,0.07678195834159851,0.9389543533325195,0.0,0.0,0.0,0.0,0.0,0.0,0.0,0.0,0.0,1.4932334423065186,0.416370689868927,0.4551127254962921,0.0,0.0,0.0,0.0,0.0,0.0,0.0,0.0,0.0
1606987358540119988,1129199,1606983756959417458,imu_link,0.006563353817909956,0.005042155273258686,0.5505974292755127,0.8347298502922058,0.0,0.0,0.0,0.0,0.0,0.0,0.0,0.0,0.0,66.81916809082031,0.06819021701812744,0.9459768533706665,0.0,0.0,0.0,0.0,0.0,0.0,0.0,0.0,0.0,1.403694987297058,0.5130807757377625,0.3633038103580475,0.0,0.0,0.0,0.0,0.0,0.0,0.0,0.0,0.0
1606987358540175707,1129200,1606983756959455339,imu_link,0.006563353817909956,0.005042155273258686,0.5505974292755127,0.8347298502922058,0.0,0.0,0.0,0.0,0.0,0.0,0.0,0.0,0.0,66.81916809082031,0.06819021701812744,0.9459768533706665,0.0,0.0,0.0,0.0,0.0,0.0,0.0,0.0,0.0,1.403694987297058,0.5130807757377625,0.3633038103580475,0.0,0.0,0.0,0.0,0.0,0.0,0.0,0.0,0.0
1606987358546469005,1129201,1606983756959491665,imu_link,0.0066577596589922905,0.005008388310670853,0.5503629446029663,0.8348839282989502,0.0,0.0,0.0,0.0,0.0,0.0,0.0,0.0,0.0,66.78694152832031,0.059271190315485,0.952860414981842,0.0,0.0,0.0,0.0,0.0,0.0,0.0,0.0,0.0,0.8985067009925842,0.13141080737113953,0.32714152336120605,0.0,0.0,0.0,0.0,0.0,0.0,0.0,0.0,0.0
1606987358546498150,1129202,1606983756959529370,imu_link,0.0066577596589922905,0.005008388310670853,0.5503629446029663,0.8348839282989502,0.0,0.0,0.0,0.0,0.0,0.0,0.0,0.0,0.0,66.78694152832031,0.059271190315485,0.952860414981842,0.0,0.0,0.0,0.0,0.0,0.0,0.0,0.0,0.0,0.8985067009925842,0.13141080737113953,0.32714152336120605,0.0,0.0,0.0,0.0,0.0,0.0,0.0,0.0,0.0
1606987358546519695,1129203,1606983756971963732,imu_link,0.006750850938260555,0.004972812253981829,0.5501561164855957,0.8350197672843933,0.0,0.0,0.0,0.0,0.0,0.0,0.0,0.0,0.0,66.75851440429688,0.05023404583334923,0.9595106840133667,0.0,0.0,0.0,0.0,0.0,0.0,0.0,0.0,0.0,0.18151353299617767,-0.41569510102272034,0.48098957538604736,0.0,0.0,0.0,0.0,0.0,0.0,0.0,0.0,0.0
1606987358546531527,1129204,1606983756972035609,imu_link,0.006750850938260555,0.004972812253981829,0.5501561164855957,0.8350197672843933,0.0,0.0,0.0,0.0,0.0,0.0,0.0,0.0,0.0,66.75851440429688,0.05023404583334923,0.9595106840133667,0.0,0.0,0.0,0.0,0.0,0.0,0.0,0.0,0.0,0.18151353299617767,-0.41569510102272034,0.48098957538604736,0.0,0.0,0.0,0.0,0.0,0.0,0.0,0.0,0.0
1606987358546549356,1129205,1606983756972086607,imu_link,0.00683436868712306,0.004941048566251993,0.5499274730682373,0.8351698517799377,0.0,0.0,0.0,0.0,0.0,0.0,0.0,0.0,0.0,66.72710418701172,0.042193494737148285,0.9654886722564697,0.0,0.0,0.0,0.0,0.0,0.0,0.0,0.0,0.0,-0.4217519164085388,-0.704288899898529,0.289047509431839,0.0,0.0,0.0,0.0,0.0,0.0,0.0,0.0,0.0
1606987358591226099,1129206,1606983756972129779,imu_link,0.00683436868712306,0.004941048566251993,0.5499274730682373,0.8351698517799377,0.0,0.0,0.0,0.0,0.0,0.0,0.0,0.0,0.0,66.72710418701172,0.042193494737148285,0.9654886722564697,0.0,0.0,0.0,0.0,0.0,0.0,0.0,0.0,0.0,-0.4217519164085388,-0.704288899898529,0.289047509431839,0.0,0.0,0.0,0.0,0.0,0.0,0.0,0.0,0.0
1606987358591250598,1129207,1606983756972170522,imu_link,0.0069168671034276485,0.004910410847514868,0.5497390627861023,0.8352934122085571,0.0,0.0,0.0,0.0,0.0,0.0,0.0,0.0,0.0,66.70122528076172,0.03428144007921219,0.9714459180831909,0.0,0.0,0.0,0.0,0.0,0.0,0.0,0.0,0.0,-0.6110585927963257,-0.3934992551803589,0.18115662038326263,0.0,0.0,0.0,0.0,0.0,0.0,0.0,0.0,0.0
1606987358591259160,1129208,1606983756972218652,imu_link,0.0069168671034276485,0.004910410847514868,0.5497390627861023,0.8352934122085571,0.0,0.0,0.0,0.0,0.0,0.0,0.0,0.0,0.0,66.70122528076172,0.03428144007921219,0.9714459180831909,0.0,0.0,0.0,0.0,0.0,0.0,0.0,0.0,0.0,-0.6110585927963257,-0.3934992551803589,0.18115662038326263,0.0,0.0,0.0,0.0,0.0,0.0,0.0,0.0,0.0
1606987358591272789,1129209,1606983756972257569,imu_link,0.006996463052928448,0.004879849962890148,0.5495324730873108,0.8354288339614868,0.0,0.0,0.0,0.0,0.0,0.0,0.0,0.0,0.0,66.6728515625,0.026583362370729446,0.9771332144737244,0.0,0.0,0.0,0.0,0.0,0.0,0.0,0.0,0.0,-0.3237984776496887,-0.19256757199764252,0.1828516274690628,0.0,0.0,0.0,0.0,0.0,0.0,0.0,0.0,0.0
1606987358605861870,1129210,1606983756972295930,imu_link,0.006996463052928448,0.004879849962890148,0.5495324730873108,0.8354288339614868,0.0,0.0,0.0,0.0,0.0,0.0,0.0,0.0,0.0,66.6728515625,0.026583362370729446,0.9771332144737244,0.0,0.0,0.0,0.0,0.0,0.0,0.0,0.0,0.0,-0.3237984776496887,-0.19256757199764252,0.1828516274690628,0.0,0.0,0.0,0.0,0.0,0.0,0.0,0.0,0.0
1606987358605892979,1129211,1606983756972334081,imu_link,0.007081927731633186,0.004845266230404377,0.5493590831756592,0.8355423808097839,0.0,0.0,0.0,0.0,0.0,0.0,0.0,0.0,0.0,66.64903259277344,0.01809445023536682,0.9831339716911316,0.0,0.0,0.0,0.0,0.0,0.0,0.0,0.0,0.0,0.24658681452274323,-0.14794720709323883,0.14377371966838837,0.0,0.0,0.0,0.0,0.0,0.0,0.0,0.0,0.0
1606987358605907851,1129212,1606983756972372790,imu_link,0.007081927731633186,0.004845266230404377,0.5493590831756592,0.8355423808097839,0.0,0.0,0.0,0.0,0.0,0.0,0.0,0.0,0.0,66.64903259277344,0.01809445023536682,0.9831339716911316,0.0,0.0,0.0,0.0,0.0,0.0,0.0,0.0,0.0,0.24658681452274323,-0.14794720709323883,0.14377371966838837,0.0,0.0,0.0,0.0,0.0,0.0,0.0,0.0,0.0
1606987358605926037,1129213,1606983756985319058,imu_link,0.007167849689722061,0.004804710857570171,0.5491729974746704,0.8356641530990601,0.0,0.0,0.0,0.0,0.0,0.0,0.0,0.0,0.0,66.62346649169922,0.009022358804941177,0.9888060092926025,0.0,0.0,0.0,0.0,0.0,0.0,0.0,0.0,0.0,0.6350641250610352,-0.2635571360588074,0.15244753658771515,0.0,0.0,0.0,0.0,0.0,0.0,0.0,0.0,0.0
1606987358605969028,1129214,1606983756985399324,imu_link,0.007167849689722061,0.004804710857570171,0.5491729974746704,0.8356641530990601,0.0,0.0,0.0,0.0,0.0,0.0,0.0,0.0,0.0,66.62346649169922,0.009022358804941177,0.9888060092926025,0.0,0.0,0.0,0.0,0.0,0.0,0.0,0.0,0.0,0.6350641250610352,-0.2635571360588074,0.15244753658771515,0.0,0.0,0.0,0.0,0.0,0.0,0.0,0.0,0.0
1606987358611186540,1129215,1606983756985455257,imu_link,0.00725124217569828,0.004758002702146769,0.549013078212738,0.8357688188552856,0.0,0.0,0.0,0.0,0.0,0.0,0.0,0.0,0.0,66.60148620605469,-0.0005083688301965594,0.9938527941703796,0.0,0.0,0.0,0.0,0.0,0.0,0.0,0.0,0.0,0.4731975495815277,-0.6469579935073853,0.10892912745475769,0.0,0.0,0.0,0.0,0.0,0.0,0.0,0.0,0.0
1606987358611226332,1129216,1606983756985542546,imu_link,0.00725124217569828,0.004758002702146769,0.549013078212738,0.8357688188552856,0.0,0.0,0.0,0.0,0.0,0.0,0.0,0.0,0.0,66.60148620605469,-0.0005083688301965594,0.9938527941703796,0.0,0.0,0.0,0.0,0.0,0.0,0.0,0.0,0.0,0.4731975495815277,-0.6469579935073853,0.10892912745475769,0.0,0.0,0.0,0.0,0.0,0.0,0.0,0.0,0.0
1606987358611317687,1129217,1606983756985596824,imu_link,0.007329119369387627,0.004709161818027496,0.5488457083702087,0.8358782529830933,0.0,0.0,0.0,0.0,0.0,0.0,0.0,0.0,0.0,66.5784912109375,-0.009885790757834911,0.9982409477233887,0.0,0.0,0.0,0.0,0.0,0.0,0.0,0.0,0.0,0.008834446780383587,-0.8395145535469055,0.145894855260849,0.0,0.0,0.0,0.0,0.0,0.0,0.0,0.0,0.0
1606987358611341495,1129218,1606983756985699462,imu_link,0.007329119369387627,0.004709161818027496,0.5488457083702087,0.8358782529830933,0.0,0.0,0.0,0.0,0.0,0.0,0.0,0.0,0.0,66.5784912109375,-0.009885790757834911,0.9982409477233887,0.0,0.0,0.0,0.0,0.0,0.0,0.0,0.0,0.0,0.008834446780383587,-0.8395145535469055,0.145894855260849,0.0,0.0,0.0,0.0,0.0,0.0,0.0,0.0,0.0
1606987358648272612,1129219,1606983756985768034,imu_link,0.0074038151651620865,0.004662302788347006,0.5486905574798584,0.8359797596931458,0.0,0.0,0.0,0.0,0.0,0.0,0.0,0.0,0.0,66.55716705322266,-0.0188861396163702,1.0024522542953491,0.0,0.0,0.0,0.0,0.0,0.0,0.0,0.0,0.0,-0.5909639000892639,-0.5434287786483765,0.06348580121994019,0.0,0.0,0.0,0.0,0.0,0.0,0.0,0.0,0.0
1606987358648317824,1129220,1606983756985830458,imu_link,0.0074038151651620865,0.004662302788347006,0.5486905574798584,0.8359797596931458,0.0,0.0,0.0,0.0,0.0,0.0,0.0,0.0,0.0,66.55716705322266,-0.0188861396163702,1.0024522542953491,0.0,0.0,0.0,0.0,0.0,0.0,0.0,0.0,0.0,-0.5909639000892639,-0.5434287786483765,0.06348580121994019,0.0,0.0,0.0,0.0,0.0,0.0,0.0,0.0,0.0
1606987358648340813,1129221,1606983756985889184,imu_link,0.007478366605937481,0.004618937149643898,0.5485414266586304,0.8360772132873535,0.0,0.0,0.0,0.0,0.0,0.0,0.0,0.0,0.0,66.53666687011719,-0.027548447251319885,1.0068727731704712,0.0,0.0,0.0,0.0,0.0,0.0,0.0,0.0,0.0,-1.0753650665283203,-0.04406614974141121,-0.019167881458997726,0.0,0.0,0.0,0.0,0.0,0.0,0.0,0.0,0.0
1606987358648373769,1129222,1606983756985953908,imu_link,0.007478366605937481,0.004618937149643898,0.5485414266586304,0.8360772132873535,0.0,0.0,0.0,0.0,0.0,0.0,0.0,0.0,0.0,66.53666687011719,-0.027548447251319885,1.0068727731704712,0.0,0.0,0.0,0.0,0.0,0.0,0.0,0.0,0.0,-1.0753650665283203,-0.04406614974141121,-0.019167881458997726,0.0,0.0,0.0,0.0,0.0,0.0,0.0,0.0,0.0
1606987358648413639,1129223,1606983756986007729,imu_link,0.007551328279078007,0.004581853747367859,0.5483996272087097,0.8361697793006897,0.0,0.0,0.0,0.0,0.0,0.0,0.0,0.0,0.0,66.51719665527344,-0.03551623970270157,1.0115386247634888,0.0,0.0,0.0,0.0,0.0,0.0,0.0,0.0,0.0,-1.194031834602356,0.07830864191055298,-0.03521275892853737,0.0,0.0,0.0,0.0,0.0,0.0,0.0,0.0,0.0
1606987358715060651,1129224,1606983756999176083,imu_link,0.007551328279078007,0.004581853747367859,0.5483996272087097,0.8361697793006897,0.0,0.0,0.0,0.0,0.0,0.0,0.0,0.0,0.0,66.51719665527344,-0.03551623970270157,1.0115386247634888,0.0,0.0,0.0,0.0,0.0,0.0,0.0,0.0,0.0,-1.194031834602356,0.07830864191055298,-0.03521275892853737,0.0,0.0,0.0,0.0,0.0,0.0,0.0,0.0,0.0
1606987358715076091,1129225,1606983756999256811,imu_link,0.007624158635735512,0.0045458730310201645,0.548271119594574,0.8362535238265991,0.0,0.0,0.0,0.0,0.0,0.0,0.0,0.0,0.0,66.49954223632812,-0.04338477551937103,1.0162628889083862,0.0,0.0,0.0,0.0,0.0,0.0,0.0,0.0,0.0,-0.9906024932861328,-0.3607312738895416,-0.0063302284106612206,0.0,0.0,0.0,0.0,0.0,0.0,0.0,0.0,0.0
1606987358715082163,1129226,1606983756999318335,imu_link,0.007624158635735512,0.0045458730310201645,0.548271119594574,0.8362535238265991,0.0,0.0,0.0,0.0,0.0,0.0,0.0,0.0,0.0,66.49954223632812,-0.04338477551937103,1.0162628889083862,0.0,0.0,0.0,0.0,0.0,0.0,0.0,0.0,0.0,-0.9906024932861328,-0.3607312738895416,-0.0063302284106612206,0.0,0.0,0.0,0.0,0.0,0.0,0.0,0.0,0.0
1606987358715091171,1129227,1606983756999406886,imu_link,0.007687903009355068,0.004506449215114117,0.5481343269348145,0.8363428711891174,0.0,0.0,0.0,0.0,0.0,0.0,0.0,0.0,0.0,66.48075103759766,-0.051000919193029404,1.0199031829833984,0.0,0.0,0.0,0.0,0.0,0.0,0.0,0.0,0.0,-0.8829684257507324,-1.1184920072555542,0.10242284834384918,0.0,0.0,0.0,0.0,0.0,0.0,0.0,0.0,0.0
1606987358720645037,1129228,1606983756999467805,imu_link,0.007687903009355068,0.004506449215114117,0.5481343269348145,0.8363428711891174,0.0,0.0,0.0,0.0,0.0,0.0,0.0,0.0,0.0,66.48075103759766,-0.051000919193029404,1.0199031829833984,0.0,0.0,0.0,0.0,0.0,0.0,0.0,0.0,0.0,-0.8829684257507324,-1.1184920072555542,0.10242284834384918,0.0,0.0,0.0,0.0,0.0,0.0,0.0,0.0,0.0
1606987358720680517,1129229,1606983756999580794,imu_link,0.0077437893487513065,0.0044599249958992004,0.5480138659477234,0.836421549320221,0.0,0.0,0.0,0.0,0.0,0.0,0.0,0.0,0.0,66.46419525146484,-0.058822907507419586,1.0223459005355835,0.0,0.0,0.0,0.0,0.0,0.0,0.0,0.0,0.0,-0.7844963669776917,-1.4826287031173706,0.010589489713311195,0.0,0.0,0.0,0.0,0.0,0.0,0.0,0.0,0.0
1606987358720698431,1129230,1606983756999655760,imu_link,0.0077437893487513065,0.0044599249958992004,0.5480138659477234,0.836421549320221,0.0,0.0,0.0,0.0,0.0,0.0,0.0,0.0,0.0,66.46419525146484,-0.058822907507419586,1.0223459005355835,0.0,0.0,0.0,0.0,0.0,0.0,0.0,0.0,0.0,-0.7844963669776917,-1.4826287031173706,0.010589489713311195,0.0,0.0,0.0,0.0,0.0,0.0,0.0,0.0,0.0
1606987358720712186,1129231,1606983756999717219,imu_link,0.007793187163770199,0.004412579350173473,0.5478785037994385,0.8365100026130676,0.0,0.0,0.0,0.0,0.0,0.0,0.0,0.0,0.0,66.44559478759766,-0.0662972703576088,1.024118185043335,0.0,0.0,0.0,0.0,0.0,0.0,0.0,0.0,0.0,-0.7957955002784729,-1.2569451332092285,0.03897678852081299,0.0,0.0,0.0,0.0,0.0,0.0,0.0,0.0,0.0
1606987358720723707,1129232,1606983756999775080,imu_link,0.007793187163770199,0.004412579350173473,0.5478785037994385,0.8365100026130676,0.0,0.0,0.0,0.0,0.0,0.0,0.0,0.0,0.0,66.44559478759766,-0.0662972703576088,1.024118185043335,0.0,0.0,0.0,0.0,0.0,0.0,0.0,0.0,0.0,-0.7957955002784729,-1.2569451332092285,0.03897678852081299,0.0,0.0,0.0,0.0,0.0,0.0,0.0,0.0,0.0
1606987358728738438,1129233,1606983756999864607,imu_link,0.007843340747058392,0.004367100540548563,0.5477623343467712,0.8365858197212219,0.0,0.0,0.0,0.0,0.0,0.0,0.0,0.0,0.0,66.42963409423828,-0.0736631527543068,1.0260810852050781,0.0,0.0,0.0,0.0,0.0,0.0,0.0,0.0,0.0,-1.2058508396148682,-0.49289217591285706,0.1621563732624054,0.0,0.0,0.0,0.0,0.0,0.0,0.0,0.0,0.0
1606987358728779317,1129234,1606983756999925876,imu_link,0.007843340747058392,0.004367100540548563,0.5477623343467712,0.8365858197212219,0.0,0.0,0.0,0.0,0.0,0.0,0.0,0.0,0.0,66.42963409423828,-0.0736631527543068,1.0260810852050781,0.0,0.0,0.0,0.0,0.0,0.0,0.0,0.0,0.0,-1.2058508396148682,-0.49289217591285706,0.1621563732624054,0.0,0.0,0.0,0.0,0.0,0.0,0.0,0.0,0.0
1606987358728799169,1129235,1606983757012570118,imu_link,0.00789030734449625,0.004333155695348978,0.5476396083831787,0.8366659283638,0.0,0.0,0.0,0.0,0.0,0.0,0.0,0.0,0.0,66.41278076171875,-0.07971462607383728,1.028464913368225,0.0,0.0,0.0,0.0,0.0,0.0,0.0,0.0,0.0,-1.710998773574829,0.23037047684192657,0.007459240034222603,0.0,0.0,0.0,0.0,0.0,0.0,0.0,0.0,0.0
1606987358728813443,1129236,1606983757012639074,imu_link,0.00789030734449625,0.004333155695348978,0.5476396083831787,0.8366659283638,0.0,0.0,0.0,0.0,0.0,0.0,0.0,0.0,0.0,66.41278076171875,-0.07971462607383728,1.028464913368225,0.0,0.0,0.0,0.0,0.0,0.0,0.0,0.0,0.0,-1.710998773574829,0.23037047684192657,0.007459240034222603,0.0,0.0,0.0,0.0,0.0,0.0,0.0,0.0,0.0
1606987358734347103,1129237,1606983757012686659,imu_link,0.007934395223855972,0.0043054078705608845,0.5475345253944397,0.836734414100647,0.0,0.0,0.0,0.0,0.0,0.0,0.0,0.0,0.0,66.39835357666016,-0.08501235395669937,1.0309613943099976,0.0,0.0,0.0,0.0,0.0,0.0,0.0,0.0,0.0,-2.1171014308929443,0.194461390376091,0.005549364257603884,0.0,0.0,0.0,0.0,0.0,0.0,0.0,0.0,0.0
1606987358734377218,1129238,1606983757012732462,imu_link,0.007934395223855972,0.0043054078705608845,0.5475345253944397,0.836734414100647,0.0,0.0,0.0,0.0,0.0,0.0,0.0,0.0,0.0,66.39835357666016,-0.08501235395669937,1.0309613943099976,0.0,0.0,0.0,0.0,0.0,0.0,0.0,0.0,0.0,-2.1171014308929443,0.194461390376091,0.005549364257603884,0.0,0.0,0.0,0.0,0.0,0.0,0.0,0.0,0.0
1606987358734437020,1129239,1606983757012778726,imu_link,0.007967861369252205,0.004285784903913736,0.5474158525466919,0.8368118405342102,0.0,0.0,0.0,0.0,0.0,0.0,0.0,0.0,0.0,66.382080078125,-0.08884723484516144,1.032951831817627,0.0,0.0,0.0,0.0,0.0,0.0,0.0,0.0,0.0,-2.2353312969207764,-0.48518115282058716,0.03577540069818497,0.0,0.0,0.0,0.0,0.0,0.0,0.0,0.0,0.0
1606987358734447809,1129240,1606983757012822046,imu_link,0.007967861369252205,0.004285784903913736,0.5474158525466919,0.8368118405342102,0.0,0.0,0.0,0.0,0.0,0.0,0.0,0.0,0.0,66.382080078125,-0.08884723484516144,1.032951831817627,0.0,0.0,0.0,0.0,0.0,0.0,0.0,0.0,0.0,-2.2353312969207764,-0.48518115282058716,0.03577540069818497,0.0,0.0,0.0,0.0,0.0,0.0,0.0,0.0,0.0
1606987358734496994,1129241,1606983757012877289,imu_link,0.00799245573580265,0.004263958893716335,0.5473077893257141,0.8368823528289795,0.0,0.0,0.0,0.0,0.0,0.0,0.0,0.0,0.0,66.36726379394531,-0.09234949946403503,1.0339531898498535,0.0,0.0,0.0,0.0,0.0,0.0,0.0,0.0,0.0,-1.973966360092163,-1.2139866352081299,0.11593009531497955,0.0,0.0,0.0,0.0,0.0,0.0,0.0,0.0,0.0
1606987358795302298,1129242,1606983757012929426,imu_link,0.00799245573580265,0.004263958893716335,0.5473077893257141,0.8368823528289795,0.0,0.0,0.0,0.0,0.0,0.0,0.0,0.0,0.0,66.36726379394531,-0.09234949946403503,1.0339531898498535,0.0,0.0,0.0,0.0,0.0,0.0,0.0,0.0,0.0,-1.973966360092163,-1.2139866352081299,0.11593009531497955,0.0,0.0,0.0,0.0,0.0,0.0,0.0,0.0,0.0
1606987358795324414,1129243,1606983757012975000,imu_link,0.0080080172047019,0.004239396657794714,0.5471879839897156,0.8369606733322144,0.0,0.0,0.0,0.0,0.0,0.0,0.0,0.0,0.0,66.350830078125,-0.09553301334381104,1.0339189767837524,0.0,0.0,0.0,0.0,0.0,0.0,0.0,0.0,0.0,-1.4599162340164185,-1.3391376733779907,0.12348868697881699,0.0,0.0,0.0,0.0,0.0,0.0,0.0,0.0,0.0
1606987358795346345,1129244,1606983757013025434,imu_link,0.0080080172047019,0.004239396657794714,0.5471879839897156,0.8369606733322144,0.0,0.0,0.0,0.0,0.0,0.0,0.0,0.0,0.0,66.350830078125,-0.09553301334381104,1.0339189767837524,0.0,0.0,0.0,0.0,0.0,0.0,0.0,0.0,0.0,-1.4599162340164185,-1.3391376733779907,0.12348868697881699,0.0,0.0,0.0,0.0,0.0,0.0,0.0,0.0,0.0
1606987358795356060,1129245,1606983757013071157,imu_link,0.00802439171820879,0.004215755499899387,0.5470749139785767,0.8370345830917358,0.0,0.0,0.0,0.0,0.0,0.0,0.0,0.0,0.0,66.33531951904297,-0.09868749976158142,1.0340203046798706,0.0,0.0,0.0,0.0,0.0,0.0,0.0,0.0,0.0,-1.123399019241333,-0.7493139505386353,0.07966013252735138,0.0,0.0,0.0,0.0,0.0,0.0,0.0,0.0,0.0
1606987358805034921,1129246,1606983757026554696,imu_link,0.00802439171820879,0.004215755499899387,0.5470749139785767,0.8370345830917358,0.0,0.0,0.0,0.0,0.0,0.0,0.0,0.0,0.0,66.33531951904297,-0.09868749976158142,1.0340203046798706,0.0,0.0,0.0,0.0,0.0,0.0,0.0,0.0,0.0,-1.123399019241333,-0.7493139505386353,0.07966013252735138,0.0,0.0,0.0,0.0,0.0,0.0,0.0,0.0,0.0
1606987358805088974,1129247,1606983757026661358,imu_link,0.008038830012083054,0.004194441717118025,0.546953558921814,0.8371138572692871,0.0,0.0,0.0,0.0,0.0,0.0,0.0,0.0,0.0,66.31868743896484,-0.10148705542087555,1.0340839624404907,0.0,0.0,0.0,0.0,0.0,0.0,0.0,0.0,0.0,-1.1168632507324219,0.16790029406547546,0.1680946797132492,0.0,0.0,0.0,0.0,0.0,0.0,0.0,0.0,0.0
1606987358805104600,1129248,1606983757026733692,imu_link,0.008038830012083054,0.004194441717118025,0.546953558921814,0.8371138572692871,0.0,0.0,0.0,0.0,0.0,0.0,0.0,0.0,0.0,66.31868743896484,-0.10148705542087555,1.0340839624404907,0.0,0.0,0.0,0.0,0.0,0.0,0.0,0.0,0.0,-1.1168632507324219,0.16790029406547546,0.1680946797132492,0.0,0.0,0.0,0.0,0.0,0.0,0.0,0.0,0.0
1606987358805115733,1129249,1606983757026802385,imu_link,0.008057363331317902,0.004179870244115591,0.5468416213989258,0.8371869325637817,0.0,0.0,0.0,0.0,0.0,0.0,0.0,0.0,0.0,66.3033447265625,-0.10390809923410416,1.0349624156951904,0.0,0.0,0.0,0.0,0.0,0.0,0.0,0.0,0.0,-1.3551273345947266,0.9114900231361389,0.12610648572444916,0.0,0.0,0.0,0.0,0.0,0.0,0.0,0.0,0.0
1606987358805122468,1129250,1606983757026867109,imu_link,0.008057363331317902,0.004179870244115591,0.5468416213989258,0.8371869325637817,0.0,0.0,0.0,0.0,0.0,0.0,0.0,0.0,0.0,66.3033447265625,-0.10390809923410416,1.0349624156951904,0.0,0.0,0.0,0.0,0.0,0.0,0.0,0.0,0.0,-1.3551273345947266,0.9114900231361389,0.12610648572444916,0.0,0.0,0.0,0.0,0.0,0.0,0.0,0.0,0.0
1606987358823327931,1129251,1606983757026970010,imu_link,0.008074134588241577,0.004177192226052284,0.5467272996902466,0.837261438369751,0.0,0.0,0.0,0.0,0.0,0.0,0.0,0.0,0.0,66.28768920898438,-0.10507453978061676,1.0364181995391846,0.0,0.0,0.0,0.0,0.0,0.0,0.0,0.0,0.0,-1.762868881225586,1.1559425592422485,0.07604114711284637,0.0,0.0,0.0,0.0,0.0,0.0,0.0,0.0,0.0
1606987358823353121,1129252,1606983757027104029,imu_link,0.008074134588241577,0.004177192226052284,0.5467272996902466,0.837261438369751,0.0,0.0,0.0,0.0,0.0,0.0,0.0,0.0,0.0,66.28768920898438,-0.10507453978061676,1.0364181995391846,0.0,0.0,0.0,0.0,0.0,0.0,0.0,0.0,0.0,-1.762868881225586,1.1559425592422485,0.07604114711284637,0.0,0.0,0.0,0.0,0.0,0.0,0.0,0.0,0.0
1606987358823381122,1129253,1606983757027185526,imu_link,0.008087280206382275,0.004183111246675253,0.5466083884239197,0.8373388648033142,0.0,0.0,0.0,0.0,0.0,0.0,0.0,0.0,0.0,66.27143859863281,-0.10518291592597961,1.0380653142929077,0.0,0.0,0.0,0.0,0.0,0.0,0.0,0.0,0.0,-2.0830981731414795,0.7616691589355469,0.03513222932815552,0.0,0.0,0.0,0.0,0.0,0.0,0.0,0.0,0.0
1606987358823391309,1129254,1606983757027250608,imu_link,0.008087280206382275,0.004183111246675253,0.5466083884239197,0.8373388648033142,0.0,0.0,0.0,0.0,0.0,0.0,0.0,0.0,0.0,66.27143859863281,-0.10518291592597961,1.0380653142929077,0.0,0.0,0.0,0.0,0.0,0.0,0.0,0.0,0.0,-2.0830981731414795,0.7616691589355469,0.03513222932815552,0.0,0.0,0.0,0.0,0.0,0.0,0.0,0.0,0.0
1606987358832567115,1129255,1606983757027310511,imu_link,0.008095028810203075,0.004195096902549267,0.546492874622345,0.8374141454696655,0.0,0.0,0.0,0.0,0.0,0.0,0.0,0.0,0.0,66.2556381225586,-0.10437484085559845,1.0395739078521729,0.0,0.0,0.0,0.0,0.0,0.0,0.0,0.0,0.0,-2.0155069828033447,0.2153513878583908,0.08200108259916306,0.0,0.0,0.0,0.0,0.0,0.0,0.0,0.0,0.0
1606987358832687553,1129256,1606983757027370449,imu_link,0.008095028810203075,0.004195096902549267,0.546492874622345,0.8374141454696655,0.0,0.0,0.0,0.0,0.0,0.0,0.0,0.0,0.0,66.2556381225586,-0.10437484085559845,1.0395739078521729,0.0,0.0,0.0,0.0,0.0,0.0,0.0,0.0,0.0,-2.0155069828033447,0.2153513878583908,0.08200108259916306,0.0,0.0,0.0,0.0,0.0,0.0,0.0,0.0,0.0
1606987358832730292,1129257,1606983757039486691,imu_link,0.00810044351965189,0.0042088753543794155,0.5463640689849854,0.8374980688095093,0.0,0.0,0.0,0.0,0.0,0.0,0.0,0.0,0.0,66.23802947998047,-0.10323168337345123,1.040972352027893,0.0,0.0,0.0,0.0,0.0,0.0,0.0,0.0,0.0,-1.753509283065796,-0.013332437723875046,0.10125971585512161,0.0,0.0,0.0,0.0,0.0,0.0,0.0,0.0,0.0
1606987358832755854,1129258,1606983757039590502,imu_link,0.00810044351965189,0.0042088753543794155,0.5463640689849854,0.8374980688095093,0.0,0.0,0.0,0.0,0.0,0.0,0.0,0.0,0.0,66.23802947998047,-0.10323168337345123,1.040972352027893,0.0,0.0,0.0,0.0,0.0,0.0,0.0,0.0,0.0,-1.753509283065796,-0.013332437723875046,0.10125971585512161,0.0,0.0,0.0,0.0,0.0,0.0,0.0,0.0,0.0
1606987358906584215,1129259,1606983757039691736,imu_link,0.008101977407932281,0.004225339740514755,0.5462468266487122,0.8375744223594666,0.0,0.0,0.0,0.0,0.0,0.0,0.0,0.0,0.0,66.22200775146484,-0.10160183161497116,1.04216468334198,0.0,0.0,0.0,0.0,0.0,0.0,0.0,0.0,0.0,-1.6485865116119385,-0.02130180411040783,0.12001579999923706,0.0,0.0,0.0,0.0,0.0,0.0,0.0,0.0,0.0
1606987358906610360,1129260,1606983757039752207,imu_link,0.008101977407932281,0.004225339740514755,0.5462468266487122,0.8375744223594666,0.0,0.0,0.0,0.0,0.0,0.0,0.0,0.0,0.0,66.22200775146484,-0.10160183161497116,1.04216468334198,0.0,0.0,0.0,0.0,0.0,0.0,0.0,0.0,0.0,-1.6485865116119385,-0.02130180411040783,0.12001579999923706,0.0,0.0,0.0,0.0,0.0,0.0,0.0,0.0,0.0
1606987358906641381,1129261,1606983757039868199,imu_link,0.008099071681499481,0.004250679165124893,0.5461083650588989,0.8376646041870117,0.0,0.0,0.0,0.0,0.0,0.0,0.0,0.0,0.0,66.20309448242188,-0.09881545603275299,1.0434883832931519,0.0,0.0,0.0,0.0,0.0,0.0,0.0,0.0,0.0,-1.7315045595169067,0.36202049255371094,0.07733608782291412,0.0,0.0,0.0,0.0,0.0,0.0,0.0,0.0,0.0
1606987358906649963,1129262,1606983757039950050,imu_link,0.008099071681499481,0.004250679165124893,0.5461083650588989,0.8376646041870117,0.0,0.0,0.0,0.0,0.0,0.0,0.0,0.0,0.0,66.20309448242188,-0.09881545603275299,1.0434883832931519,0.0,0.0,0.0,0.0,0.0,0.0,0.0,0.0,0.0,-1.7315045595169067,0.36202049255371094,0.07733608782291412,0.0,0.0,0.0,0.0,0.0,0.0,0.0,0.0,0.0
1606987358906664554,1129263,1606983757040012530,imu_link,0.008095714263617992,0.00428101746365428,0.5459900498390198,0.8377416729927063,0.0,0.0,0.0,0.0,0.0,0.0,0.0,0.0,0.0,66.18695068359375,-0.09554563462734222,1.045078158378601,0.0,0.0,0.0,0.0,0.0,0.0,0.0,0.0,0.0,-1.8127365112304688,0.9143526554107666,-0.03625740110874176,0.0,0.0,0.0,0.0,0.0,0.0,0.0,0.0,0.0
1606987358933977756,1129264,1606983757040072005,imu_link,0.008095714263617992,0.00428101746365428,0.5459900498390198,0.8377416729927063,0.0,0.0,0.0,0.0,0.0,0.0,0.0,0.0,0.0,66.18695068359375,-0.09554563462734222,1.045078158378601,0.0,0.0,0.0,0.0,0.0,0.0,0.0,0.0,0.0,-1.8127365112304688,0.9143526554107666,-0.03625740110874176,0.0,0.0,0.0,0.0,0.0,0.0,0.0,0.0,0.0
1606987358934008817,1129265,1606983757040147831,imu_link,0.008093444630503654,0.004323096945881844,0.5458444356918335,0.8378362655639648,0.0,0.0,0.0,0.0,0.0,0.0,0.0,0.0,0.0,66.16708374023438,-0.091182179749012,1.0475090742111206,0.0,0.0,0.0,0.0,0.0,0.0,0.0,0.0,0.0,-1.722156286239624,1.3988940715789795,-0.0746874213218689,0.0,0.0,0.0,0.0,0.0,0.0,0.0,0.0,0.0
1606987358934027175,1129266,1606983757040236976,imu_link,0.008093444630503654,0.004323096945881844,0.5458444356918335,0.8378362655639648,0.0,0.0,0.0,0.0,0.0,0.0,0.0,0.0,0.0,66.16708374023438,-0.091182179749012,1.0475090742111206,0.0,0.0,0.0,0.0,0.0,0.0,0.0,0.0,0.0,-1.722156286239624,1.3988940715789795,-0.0746874213218689,0.0,0.0,0.0,0.0,0.0,0.0,0.0,0.0,0.0
1606987358934056416,1129267,1606983757052768912,imu_link,0.008097419515252113,0.004372496157884598,0.5457215905189514,0.8379160165786743,0.0,0.0,0.0,0.0,0.0,0.0,0.0,0.0,0.0,66.15033721923828,-0.08653406798839569,1.0509933233261108,0.0,0.0,0.0,0.0,0.0,0.0,0.0,0.0,0.0,-1.4074376821517944,1.7185297012329102,-0.05381825938820839,0.0,0.0,0.0,0.0,0.0,0.0,0.0,0.0,0.0
1606987358941683992,1129268,1606983757052861494,imu_link,0.008097419515252113,0.004372496157884598,0.5457215905189514,0.8379160165786743,0.0,0.0,0.0,0.0,0.0,0.0,0.0,0.0,0.0,66.15033721923828,-0.08653406798839569,1.0509933233261108,0.0,0.0,0.0,0.0,0.0,0.0,0.0,0.0,0.0,-1.4074376821517944,1.7185297012329102,-0.05381825938820839,0.0,0.0,0.0,0.0,0.0,0.0,0.0,0.0,0.0
1606987358941814267,1129269,1606983757052928919,imu_link,0.008103336207568645,0.004427301697432995,0.545581579208374,0.8380069136619568,0.0,0.0,0.0,0.0,0.0,0.0,0.0,0.0,0.0,66.13125610351562,-0.08146563917398453,1.0550025701522827,0.0,0.0,0.0,0.0,0.0,0.0,0.0,0.0,0.0,-1.0634782314300537,1.3735249042510986,-0.04120151698589325,0.0,0.0,0.0,0.0,0.0,0.0,0.0,0.0,0.0
1606987358941851014,1129270,1606983757053027158,imu_link,0.008103336207568645,0.004427301697432995,0.545581579208374,0.8380069136619568,0.0,0.0,0.0,0.0,0.0,0.0,0.0,0.0,0.0,66.13125610351562,-0.08146563917398453,1.0550025701522827,0.0,0.0,0.0,0.0,0.0,0.0,0.0,0.0,0.0,-1.0634782314300537,1.3735249042510986,-0.04120151698589325,0.0,0.0,0.0,0.0,0.0,0.0,0.0,0.0,0.0
1606987358941876993,1129271,1606983757053093291,imu_link,0.008106918074190617,0.004486502148211002,0.5454406142234802,0.8380982279777527,0.0,0.0,0.0,0.0,0.0,0.0,0.0,0.0,0.0,66.112060546875,-0.0758267194032669,1.05906081199646,0.0,0.0,0.0,0.0,0.0,0.0,0.0,0.0,0.0,-0.88169926404953,0.8057602643966675,-0.2384917140007019,0.0,0.0,0.0,0.0,0.0,0.0,0.0,0.0,0.0
1606987358941953183,1129272,1606983757053193022,imu_link,0.008106918074190617,0.004486502148211002,0.5454406142234802,0.8380982279777527,0.0,0.0,0.0,0.0,0.0,0.0,0.0,0.0,0.0,66.112060546875,-0.0758267194032669,1.05906081199646,0.0,0.0,0.0,0.0,0.0,0.0,0.0,0.0,0.0,-0.88169926404953,0.8057602643966675,-0.2384917140007019,0.0,0.0,0.0,0.0,0.0,0.0,0.0,0.0,0.0
1606987358951568312,1129273,1606983757053274707,imu_link,0.008110286667943,0.004542614333331585,0.5453018546104431,0.8381882309913635,0.0,0.0,0.0,0.0,0.0,0.0,0.0,0.0,0.0,66.09314727783203,-0.07047249376773834,1.0629032850265503,0.0,0.0,0.0,0.0,0.0,0.0,0.0,0.0,0.0,-0.6729095578193665,0.3932661712169647,-0.18914881348609924,0.0,0.0,0.0,0.0,0.0,0.0,0.0,0.0,0.0
1606987358951616262,1129274,1606983757053341746,imu_link,0.008110286667943,0.004542614333331585,0.5453018546104431,0.8381882309913635,0.0,0.0,0.0,0.0,0.0,0.0,0.0,0.0,0.0,66.09314727783203,-0.07047249376773834,1.0629032850265503,0.0,0.0,0.0,0.0,0.0,0.0,0.0,0.0,0.0,-0.6729095578193665,0.3932661712169647,-0.18914881348609924,0.0,0.0,0.0,0.0,0.0,0.0,0.0,0.0,0.0
1606987358951631578,1129275,1606983757053405790,imu_link,0.008108572103083134,0.0046048653312027454,0.5451427698135376,0.8382914066314697,0.0,0.0,0.0,0.0,0.0,0.0,0.0,0.0,0.0,66.07147979736328,-0.06418391317129135,1.066640853881836,0.0,0.0,0.0,0.0,0.0,0.0,0.0,0.0,0.0,-0.4054996371269226,0.26947903633117676,-0.1705121248960495,0.0,0.0,0.0,0.0,0.0,0.0,0.0,0.0,0.0
1606987358951644724,1129276,1606983757053502534,imu_link,0.008108572103083134,0.0046048653312027454,0.5451427698135376,0.8382914066314697,0.0,0.0,0.0,0.0,0.0,0.0,0.0,0.0,0.0,66.07147979736328,-0.06418391317129135,1.066640853881836,0.0,0.0,0.0,0.0,0.0,0.0,0.0,0.0,0.0,-0.4054996371269226,0.26947903633117676,-0.1705121248960495,0.0,0.0,0.0,0.0,0.0,0.0,0.0,0.0,0.0
1606987359031873491,1129277,1606983757053577784,imu_link,0.008113957941532135,0.0046657235361635685,0.5450011491775513,0.8383830785751343,0.0,0.0,0.0,0.0,0.0,0.0,0.0,0.0,0.0,66.05219268798828,-0.05849359184503555,1.0709702968597412,0.0,0.0,0.0,0.0,0.0,0.0,0.0,0.0,0.0,-0.09813042730093002,0.5713800191879272,-0.2609846591949463,0.0,0.0,0.0,0.0,0.0,0.0,0.0,0.0,0.0
1606987359031898309,1129278,1606983757066591770,imu_link,0.008113957941532135,0.0046657235361635685,0.5450011491775513,0.8383830785751343,0.0,0.0,0.0,0.0,0.0,0.0,0.0,0.0,0.0,66.05219268798828,-0.05849359184503555,1.0709702968597412,0.0,0.0,0.0,0.0,0.0,0.0,0.0,0.0,0.0,-0.09813042730093002,0.5713800191879272,-0.2609846591949463,0.0,0.0,0.0,0.0,0.0,0.0,0.0,0.0,0.0
1606987359031915004,1129279,1606983757066696163,imu_link,0.008121216669678688,0.004727792460471392,0.544833242893219,0.8384917974472046,0.0,0.0,0.0,0.0,0.0,0.0,0.0,0.0,0.0,66.0293197631836,-0.05276871100068092,1.0755547285079956,0.0,0.0,0.0,0.0,0.0,0.0,0.0,0.0,0.0,0.14538787305355072,1.033245325088501,-0.22273989021778107,0.0,0.0,0.0,0.0,0.0,0.0,0.0,0.0,0.0
1606987359031924654,1129280,1606983757066770869,imu_link,0.008121216669678688,0.004727792460471392,0.544833242893219,0.8384917974472046,0.0,0.0,0.0,0.0,0.0,0.0,0.0,0.0,0.0,66.0293197631836,-0.05276871100068092,1.0755547285079956,0.0,0.0,0.0,0.0,0.0,0.0,0.0,0.0,0.0,0.14538787305355072,1.033245325088501,-0.22273989021778107,0.0,0.0,0.0,0.0,0.0,0.0,0.0,0.0,0.0
1606987359031933368,1129281,1606983757066884863,imu_link,0.008138366974890232,0.0047908020205795765,0.5446913242340088,0.8385834097862244,0.0,0.0,0.0,0.0,0.0,0.0,0.0,0.0,0.0,66.010009765625,-0.047602578997612,1.0811450481414795,0.0,0.0,0.0,0.0,0.0,0.0,0.0,0.0,0.0,0.40856409072875977,1.2558279037475586,-0.27368223667144775,0.0,0.0,0.0,0.0,0.0,0.0,0.0,0.0,0.0
1606987359039580292,1129282,1606983757066989914,imu_link,0.008138366974890232,0.0047908020205795765,0.5446913242340088,0.8385834097862244,0.0,0.0,0.0,0.0,0.0,0.0,0.0,0.0,0.0,66.010009765625,-0.047602578997612,1.0811450481414795,0.0,0.0,0.0,0.0,0.0,0.0,0.0,0.0,0.0,0.40856409072875977,1.2558279037475586,-0.27368223667144775,0.0,0.0,0.0,0.0,0.0,0.0,0.0,0.0,0.0
1606987359039609617,1129283,1606983757067067641,imu_link,0.00815488863736391,0.004855661652982235,0.5445184707641602,0.8386951684951782,0.0,0.0,0.0,0.0,0.0,0.0,0.0,0.0,0.0,65.9864730834961,-0.04217743128538132,1.0867903232574463,0.0,0.0,0.0,0.0,0.0,0.0,0.0,0.0,0.0,0.5283501744270325,0.7276415824890137,-0.27889445424079895,0.0,0.0,0.0,0.0,0.0,0.0,0.0,0.0,0.0
1606987359039621863,1129284,1606983757067156852,imu_link,0.00815488863736391,0.004855661652982235,0.5445184707641602,0.8386951684951782,0.0,0.0,0.0,0.0,0.0,0.0,0.0,0.0,0.0,65.9864730834961,-0.04217743128538132,1.0867903232574463,0.0,0.0,0.0,0.0,0.0,0.0,0.0,0.0,0.0,0.5283501744270325,0.7276415824890137,-0.27889445424079895,0.0,0.0,0.0,0.0,0.0,0.0,0.0,0.0,0.0
1606987359039644546,1129285,1606983757067231425,imu_link,0.008172971196472645,0.004916081670671701,0.5443617105484009,0.8387964367866516,0.0,0.0,0.0,0.0,0.0,0.0,0.0,0.0,0.0,65.96513366699219,-0.03729507699608803,1.0923054218292236,0.0,0.0,0.0,0.0,0.0,0.0,0.0,0.0,0.0,0.5114874243736267,-0.06504631787538528,-0.30275028944015503,0.0,0.0,0.0,0.0,0.0,0.0,0.0,0.0,0.0
1606987359062749722,1129286,1606983757067302522,imu_link,0.008172971196472645,0.004916081670671701,0.5443617105484009,0.8387964367866516,0.0,0.0,0.0,0.0,0.0,0.0,0.0,0.0,0.0,65.96513366699219,-0.03729507699608803,1.0923054218292236,0.0,0.0,0.0,0.0,0.0,0.0,0.0,0.0,0.0,0.5114874243736267,-0.06504631787538528,-0.30275028944015503,0.0,0.0,0.0,0.0,0.0,0.0,0.0,0.0,0.0
1606987359062778030,1129287,1606983757067407004,imu_link,0.008178391493856907,0.00496948417276144,0.5441773533821106,0.8389157056808472,0.0,0.0,0.0,0.0,0.0,0.0,0.0,0.0,0.0,65.94001770019531,-0.032259464263916016,1.0961651802062988,0.0,0.0,0.0,0.0,0.0,0.0,0.0,0.0,0.0,0.5489044785499573,-0.7442799806594849,-0.3692130446434021,0.0,0.0,0.0,0.0,0.0,0.0,0.0,0.0,0.0
1606987359062815402,1129288,1606983757067480089,imu_link,0.008178391493856907,0.00496948417276144,0.5441773533821106,0.8389157056808472,0.0,0.0,0.0,0.0,0.0,0.0,0.0,0.0,0.0,65.94001770019531,-0.032259464263916016,1.0961651802062988,0.0,0.0,0.0,0.0,0.0,0.0,0.0,0.0,0.0,0.5489044785499573,-0.7442799806594849,-0.3692130446434021,0.0,0.0,0.0,0.0,0.0,0.0,0.0,0.0,0.0
1606987359062836253,1129289,1606983757080078923,imu_link,0.00819123163819313,0.005020529963076115,0.5440102219581604,0.8390235900878906,0.0,0.0,0.0,0.0,0.0,0.0,0.0,0.0,0.0,65.9172592163086,-0.027934033423662186,1.1005884408950806,0.0,0.0,0.0,0.0,0.0,0.0,0.0,0.0,0.0,0.6823344826698303,-0.6770890951156616,-0.34843751788139343,0.0,0.0,0.0,0.0,0.0,0.0,0.0,0.0,0.0
1606987359062896392,1129290,1606983757080182152,imu_link,0.00819123163819313,0.005020529963076115,0.5440102219581604,0.8390235900878906,0.0,0.0,0.0,0.0,0.0,0.0,0.0,0.0,0.0,65.9172592163086,-0.027934033423662186,1.1005884408950806,0.0,0.0,0.0,0.0,0.0,0.0,0.0,0.0,0.0,0.6823344826698303,-0.6770890951156616,-0.34843751788139343,0.0,0.0,0.0,0.0,0.0,0.0,0.0,0.0,0.0
1606987359066989180,1129291,1606983757080258436,imu_link,0.008202703669667244,0.005067387595772743,0.5438171029090881,0.8391484022140503,0.0,0.0,0.0,0.0,0.0,0.0,0.0,0.0,0.0,65.89094543457031,-0.02389007993042469,1.1046183109283447,0.0,0.0,0.0,0.0,0.0,0.0,0.0,0.0,0.0,0.8241228461265564,0.12504561245441437,-0.25365880131721497,0.0,0.0,0.0,0.0,0.0,0.0,0.0,0.0,0.0
1606987359067029776,1129292,1606983757080366990,imu_link,0.008202703669667244,0.005067387595772743,0.5438171029090881,0.8391484022140503,0.0,0.0,0.0,0.0,0.0,0.0,0.0,0.0,0.0,65.89094543457031,-0.02389007993042469,1.1046183109283447,0.0,0.0,0.0,0.0,0.0,0.0,0.0,0.0,0.0,0.8241228461265564,0.12504561245441437,-0.25365880131721497,0.0,0.0,0.0,0.0,0.0,0.0,0.0,0.0,0.0
1606987359067050014,1129293,1606983757080440831,imu_link,0.008223342709243298,0.0051124305464327335,0.543647289276123,0.8392579555511475,0.0,0.0,0.0,0.0,0.0,0.0,0.0,0.0,0.0,65.8678207397461,-0.020620767027139664,1.10941481590271,0.0,0.0,0.0,0.0,0.0,0.0,0.0,0.0,0.0,0.7347623109817505,0.727373480796814,-0.32375362515449524,0.0,0.0,0.0,0.0,0.0,0.0,0.0,0.0,0.0
