%time,field.header.seq,field.header.stamp,field.header.frame_id,field.orientation.x,field.orientation.y,field.orientation.z,field.orientation.w,field.orientation_covariance0,field.orientation_covariance1,field.orientation_covariance2,field.orientation_covariance3,field.orientation_covariance4,field.orientation_covariance5,field.orientation_covariance6,field.orientation_covariance7,field.orientation_covariance8,field.angular_velocity.x,field.angular_velocity.y,field.angular_velocity.z,field.angular_velocity_covariance0,field.angular_velocity_covariance1,field.angular_velocity_covariance2,field.angular_velocity_covariance3,field.angular_velocity_covariance4,field.angular_velocity_covariance5,field.angular_velocity_covariance6,field.angular_velocity_covariance7,field.angular_velocity_covariance8,field.linear_acceleration.x,field.linear_acceleration.y,field.linear_acceleration.z,field.linear_acceleration_covariance0,field.linear_acceleration_covariance1,field.linear_acceleration_covariance2,field.linear_acceleration_covariance3,field.linear_acceleration_covariance4,field.linear_acceleration_covariance5,field.linear_acceleration_covariance6,field.linear_acceleration_covariance7,field.linear_acceleration_covariance8
1606987780344509273,1467341,1606984179650486710,imu_link,0.0023462160024791956,0.0006255576736293733,0.19139893352985382,-0.9815093278884888,0.0,0.0,0.0,0.0,0.0,0.0,0.0,0.0,0.0,-22.06867027282715,-0.12181709706783295,-0.2501663863658905,0.0,0.0,0.0,0.0,0.0,0.0,0.0,0.0,0.0,-0.005222921259701252,0.001186296925880015,0.04852168262004852,0.0,0.0,0.0,0.0,0.0,0.0,0.0,0.0,0.0
1606987780344531204,1467342,1606984179650600465,imu_link,0.0023462160024791956,0.0006255576736293733,0.19139893352985382,-0.9815093278884888,0.0,0.0,0.0,0.0,0.0,0.0,0.0,0.0,0.0,-22.06867027282715,-0.12181709706783295,-0.2501663863658905,0.0,0.0,0.0,0.0,0.0,0.0,0.0,0.0,0.0,-0.005222921259701252,0.001186296925880015,0.04852168262004852,0.0,0.0,0.0,0.0,0.0,0.0,0.0,0.0,0.0
1606987780344539712,1467343,1606984179650760864,imu_link,0.0023458146024495363,0.0006257409695535898,0.19140785932540894,-0.9815076589584351,0.0,0.0,0.0,0.0,0.0,0.0,0.0,0.0,0.0,-22.06970977783203,-0.12183118611574173,-0.25011610984802246,0.0,0.0,0.0,0.0,0.0,0.0,0.0,0.0,0.0,-0.005936708766967058,-0.01431977842003107,0.06497907638549805,0.0,0.0,0.0,0.0,0.0,0.0,0.0,0.0,0.0
1606987780344574737,1467344,1606984179650836098,imu_link,0.0023458146024495363,0.0006257409695535898,0.19140785932540894,-0.9815076589584351,0.0,0.0,0.0,0.0,0.0,0.0,0.0,0.0,0.0,-22.06970977783203,-0.12183118611574173,-0.25011610984802246,0.0,0.0,0.0,0.0,0.0,0.0,0.0,0.0,0.0,-0.005936708766967058,-0.01431977842003107,0.06497907638549805,0.0,0.0,0.0,0.0,0.0,0.0,0.0,0.0,0.0
1606987780348570953,1467345,1606984179650904428,imu_link,0.002345253713428974,0.0006234661559574306,0.19140678644180298,-0.9815078377723694,0.0,0.0,0.0,0.0,0.0,0.0,0.0,0.0,0.0,-22.069583892822266,-0.12156275659799576,-0.25010302662849426,0.0,0.0,0.0,0.0,0.0,0.0,0.0,0.0,0.0,-0.0099421925842762,-0.016819730401039124,0.05813299119472504,0.0,0.0,0.0,0.0,0.0,0.0,0.0,0.0,0.0
1606987780348595522,1467346,1606984179651019895,imu_link,0.002345253713428974,0.0006234661559574306,0.19140678644180298,-0.9815078377723694,0.0,0.0,0.0,0.0,0.0,0.0,0.0,0.0,0.0,-22.069583892822266,-0.12156275659799576,-0.25010302662849426,0.0,0.0,0.0,0.0,0.0,0.0,0.0,0.0,0.0,-0.0099421925842762,-0.016819730401039124,0.05813299119472504,0.0,0.0,0.0,0.0,0.0,0.0,0.0,0.0,0.0
1606987780348609057,1467347,1606984179651110581,imu_link,0.002343196654692292,0.0006252303719520569,0.19140829145908356,-0.9815075397491455,0.0,0.0,0.0,0.0,0.0,0.0,0.0,0.0,0.0,-22.06976318359375,-0.1217164471745491,-0.24983283877372742,0.0,0.0,0.0,0.0,0.0,0.0,0.0,0.0,0.0,-0.01222646702080965,0.004582294262945652,0.07329854369163513,0.0,0.0,0.0,0.0,0.0,0.0,0.0,0.0,0.0
1606987780348618599,1467348,1606984179651173988,imu_link,0.002343196654692292,0.0006252303719520569,0.19140829145908356,-0.9815075397491455,0.0,0.0,0.0,0.0,0.0,0.0,0.0,0.0,0.0,-22.06976318359375,-0.1217164471745491,-0.24983283877372742,0.0,0.0,0.0,0.0,0.0,0.0,0.0,0.0,0.0,-0.01222646702080965,0.004582294262945652,0.07329854369163513,0.0,0.0,0.0,0.0,0.0,0.0,0.0,0.0,0.0
1606987780398453085,1467349,1606984179651242170,imu_link,0.0023432353045791388,0.0006283306865952909,0.1914082169532776,-0.9815075993537903,0.0,0.0,0.0,0.0,0.0,0.0,0.0,0.0,0.0,-22.069753646850586,-0.122065968811512,-0.2497691512107849,0.0,0.0,0.0,0.0,0.0,0.0,0.0,0.0,0.0,0.0019679847173392773,0.0061967638321220875,0.06655002385377884,0.0,0.0,0.0,0.0,0.0,0.0,0.0,0.0,0.0
1606987780398483466,1467350,1606984179651307477,imu_link,0.0023432353045791388,0.0006283306865952909,0.1914082169532776,-0.9815075993537903,0.0,0.0,0.0,0.0,0.0,0.0,0.0,0.0,0.0,-22.069753646850586,-0.122065968811512,-0.2497691512107849,0.0,0.0,0.0,0.0,0.0,0.0,0.0,0.0,0.0,0.0019679847173392773,0.0061967638321220875,0.06655002385377884,0.0,0.0,0.0,0.0,0.0,0.0,0.0,0.0,0.0
1606987780398521866,1467351,1606984179651367580,imu_link,0.002345675602555275,0.0006263955147005618,0.19140858948230743,-0.9815074801445007,0.0,0.0,0.0,0.0,0.0,0.0,0.0,0.0,0.0,-22.069795608520508,-0.12190194427967072,-0.2500860095024109,0.0,0.0,0.0,0.0,0.0,0.0,0.0,0.0,0.0,0.004413921851664782,-0.0008683946798555553,0.03083282709121704,0.0,0.0,0.0,0.0,0.0,0.0,0.0,0.0,0.0
1606987780398540272,1467352,1606984179664395961,imu_link,0.002345675602555275,0.0006263955147005618,0.19140858948230743,-0.9815074801445007,0.0,0.0,0.0,0.0,0.0,0.0,0.0,0.0,0.0,-22.069795608520508,-0.12190194427967072,-0.2500860095024109,0.0,0.0,0.0,0.0,0.0,0.0,0.0,0.0,0.0,0.004413921851664782,-0.0008683946798555553,0.03083282709121704,0.0,0.0,0.0,0.0,0.0,0.0,0.0,0.0,0.0
1606987780398551764,1467353,1606984179664540570,imu_link,0.0023448062129318714,0.0006254407344385982,0.19140776991844177,-0.9815075993537903,0.0,0.0,0.0,0.0,0.0,0.0,0.0,0.0,0.0,-22.0697021484375,-0.12177526205778122,-0.25000932812690735,0.0,0.0,0.0,0.0,0.0,0.0,0.0,0.0,0.0,-0.012927326373755932,0.008931259624660015,0.01790418103337288,0.0,0.0,0.0,0.0,0.0,0.0,0.0,0.0,0.0
1606987780402863006,1467354,1606984179664676324,imu_link,0.0023448062129318714,0.0006254407344385982,0.19140776991844177,-0.9815075993537903,0.0,0.0,0.0,0.0,0.0,0.0,0.0,0.0,0.0,-22.0697021484375,-0.12177526205778122,-0.25000932812690735,0.0,0.0,0.0,0.0,0.0,0.0,0.0,0.0,0.0,-0.012927326373755932,0.008931259624660015,0.01790418103337288,0.0,0.0,0.0,0.0,0.0,0.0,0.0,0.0,0.0
1606987780402887295,1467355,1606984179664780030,imu_link,0.0023463708348572254,0.0006285774288699031,0.19141189754009247,-0.9815068244934082,0.0,0.0,0.0,0.0,0.0,0.0,0.0,0.0,0.0,-22.070180892944336,-0.12216343730688095,-0.25011593103408813,0.0,0.0,0.0,0.0,0.0,0.0,0.0,0.0,0.0,-0.014194110408425331,0.015065586194396019,0.022568678483366966,0.0,0.0,0.0,0.0,0.0,0.0,0.0,0.0,0.0
1606987780402926418,1467356,1606984179664881820,imu_link,0.0023463708348572254,0.0006285774288699031,0.19141189754009247,-0.9815068244934082,0.0,0.0,0.0,0.0,0.0,0.0,0.0,0.0,0.0,-22.070180892944336,-0.12216343730688095,-0.25011593103408813,0.0,0.0,0.0,0.0,0.0,0.0,0.0,0.0,0.0,-0.014194110408425331,0.015065586194396019,0.022568678483366966,0.0,0.0,0.0,0.0,0.0,0.0,0.0,0.0,0.0
1606987780402947358,1467357,1606984179664987234,imu_link,0.002346123568713665,0.0006273558828979731,0.1914105862379074,-0.9815070629119873,0.0,0.0,0.0,0.0,0.0,0.0,0.0,0.0,0.0,-22.07002830505371,-0.12202028185129166,-0.2501150667667389,0.0,0.0,0.0,0.0,0.0,0.0,0.0,0.0,0.0,-0.006721143610775471,-0.0015925322659313679,0.032086484134197235,0.0,0.0,0.0,0.0,0.0,0.0,0.0,0.0,0.0
1606987780406421449,1467358,1606984179665074100,imu_link,0.002346123568713665,0.0006273558828979731,0.1914105862379074,-0.9815070629119873,0.0,0.0,0.0,0.0,0.0,0.0,0.0,0.0,0.0,-22.07002830505371,-0.12202028185129166,-0.2501150667667389,0.0,0.0,0.0,0.0,0.0,0.0,0.0,0.0,0.0,-0.006721143610775471,-0.0015925322659313679,0.032086484134197235,0.0,0.0,0.0,0.0,0.0,0.0,0.0,0.0,0.0
1606987780406450689,1467359,1606984179665168138,imu_link,0.0023453570902347565,0.000629607995506376,0.1914127767086029,-0.9815066456794739,0.0,0.0,0.0,0.0,0.0,0.0,0.0,0.0,0.0,-22.07028579711914,-0.12225732207298279,-0.24997922778129578,0.0,0.0,0.0,0.0,0.0,0.0,0.0,0.0,0.0,0.0022024945355951786,-0.004116756841540337,0.03808089345693588,0.0,0.0,0.0,0.0,0.0,0.0,0.0,0.0,0.0
1606987780406463047,1467360,1606984179665261955,imu_link,0.0023453570902347565,0.000629607995506376,0.1914127767086029,-0.9815066456794739,0.0,0.0,0.0,0.0,0.0,0.0,0.0,0.0,0.0,-22.07028579711914,-0.12225732207298279,-0.24997922778129578,0.0,0.0,0.0,0.0,0.0,0.0,0.0,0.0,0.0,0.0022024945355951786,-0.004116756841540337,0.03808089345693588,0.0,0.0,0.0,0.0,0.0,0.0,0.0,0.0,0.0
1606987780406476234,1467361,1606984179665343654,imu_link,0.002343331929296255,0.0006277370848692954,0.19141246378421783,-0.9815067052841187,0.0,0.0,0.0,0.0,0.0,0.0,0.0,0.0,0.0,-22.070247650146484,-0.12200240790843964,-0.24979254603385925,0.0,0.0,0.0,0.0,0.0,0.0,0.0,0.0,0.0,0.008568252436816692,-0.012087719514966011,0.0468255877494812,0.0,0.0,0.0,0.0,0.0,0.0,0.0,0.0,0.0
1606987780406485173,1467362,1606984179665432104,imu_link,0.002343331929296255,0.0006277370848692954,0.19141246378421783,-0.9815067052841187,0.0,0.0,0.0,0.0,0.0,0.0,0.0,0.0,0.0,-22.070247650146484,-0.12200240790843964,-0.24979254603385925,0.0,0.0,0.0,0.0,0.0,0.0,0.0,0.0,0.0,0.008568252436816692,-0.012087719514966011,0.0468255877494812,0.0,0.0,0.0,0.0,0.0,0.0,0.0,0.0,0.0
1606987780415573429,1467363,1606984179677240973,imu_link,0.0023406262043863535,0.0006265857955440879,0.19141457974910736,-0.9815062880516052,0.0,0.0,0.0,0.0,0.0,0.0,0.0,0.0,0.0,-22.070499420166016,-0.12181410938501358,-0.2495131939649582,0.0,0.0,0.0,0.0,0.0,0.0,0.0,0.0,0.0,-0.011718738824129105,-0.0319458469748497,0.05797668918967247,0.0,0.0,0.0,0.0,0.0,0.0,0.0,0.0,0.0
1606987780415596040,1467364,1606984179677379899,imu_link,0.0023406262043863535,0.0006265857955440879,0.19141457974910736,-0.9815062880516052,0.0,0.0,0.0,0.0,0.0,0.0,0.0,0.0,0.0,-22.070499420166016,-0.12181410938501358,-0.2495131939649582,0.0,0.0,0.0,0.0,0.0,0.0,0.0,0.0,0.0,-0.011718738824129105,-0.0319458469748497,0.05797668918967247,0.0,0.0,0.0,0.0,0.0,0.0,0.0,0.0,0.0
1606987780415601910,1467365,1606984179677515739,imu_link,0.0023392310831695795,0.0006273423205129802,0.19141516089439392,-0.9815061688423157,0.0,0.0,0.0,0.0,0.0,0.0,0.0,0.0,0.0,-22.070566177368164,-0.12186875194311142,-0.24933961033821106,0.0,0.0,0.0,0.0,0.0,0.0,0.0,0.0,0.0,-0.028813403099775314,0.007199445739388466,0.04541461169719696,0.0,0.0,0.0,0.0,0.0,0.0,0.0,0.0,0.0
1606987780415609923,1467366,1606984179677614557,imu_link,0.0023392310831695795,0.0006273423205129802,0.19141516089439392,-0.9815061688423157,0.0,0.0,0.0,0.0,0.0,0.0,0.0,0.0,0.0,-22.070566177368164,-0.12186875194311142,-0.24933961033821106,0.0,0.0,0.0,0.0,0.0,0.0,0.0,0.0,0.0,-0.028813403099775314,0.007199445739388466,0.04541461169719696,0.0,0.0,0.0,0.0,0.0,0.0,0.0,0.0,0.0
1606987780420010452,1467367,1606984179677700186,imu_link,0.0023425398394465446,0.0006345263682305813,0.19141922891139984,-0.9815053939819336,0.0,0.0,0.0,0.0,0.0,0.0,0.0,0.0,0.0,-22.071035385131836,-0.12275036424398422,-0.2495536506175995,0.0,0.0,0.0,0.0,0.0,0.0,0.0,0.0,0.0,-0.024426987394690514,0.03614701330661774,0.01665894314646721,0.0,0.0,0.0,0.0,0.0,0.0,0.0,0.0,0.0
1606987780420051905,1467368,1606984179677796769,imu_link,0.0023425398394465446,0.0006345263682305813,0.19141922891139984,-0.9815053939819336,0.0,0.0,0.0,0.0,0.0,0.0,0.0,0.0,0.0,-22.071035385131836,-0.12275036424398422,-0.2495536506175995,0.0,0.0,0.0,0.0,0.0,0.0,0.0,0.0,0.0,-0.024426987394690514,0.03614701330661774,0.01665894314646721,0.0,0.0,0.0,0.0,0.0,0.0,0.0,0.0,0.0
1606987780420070451,1467369,1606984179677880252,imu_link,0.0023424786049872637,0.0006351538468152285,0.1914168745279312,-0.9815058708190918,0.0,0.0,0.0,0.0,0.0,0.0,0.0,0.0,0.0,-22.07076072692871,-0.12281899899244308,-0.24953331053256989,0.0,0.0,0.0,0.0,0.0,0.0,0.0,0.0,0.0,-0.005484291352331638,0.017505979165434837,0.01901579648256302,0.0,0.0,0.0,0.0,0.0,0.0,0.0,0.0,0.0
1606987780420125413,1467370,1606984179678046492,imu_link,0.0023424786049872637,0.0006351538468152285,0.1914168745279312,-0.9815058708190918,0.0,0.0,0.0,0.0,0.0,0.0,0.0,0.0,0.0,-22.07076072692871,-0.12281899899244308,-0.24953331053256989,0.0,0.0,0.0,0.0,0.0,0.0,0.0,0.0,0.0,-0.005484291352331638,0.017505979165434837,0.01901579648256302,0.0,0.0,0.0,0.0,0.0,0.0,0.0,0.0,0.0
1606987780420145887,1467371,1606984179678130461,imu_link,0.00234423135407269,0.0006355083896778524,0.19141314923763275,-0.9815065860748291,0.0,0.0,0.0,0.0,0.0,0.0,0.0,0.0,0.0,-22.070327758789062,-0.12289637327194214,-0.2497231513261795,0.0,0.0,0.0,0.0,0.0,0.0,0.0,0.0,0.0,-0.004671976901590824,-0.008109032176434994,0.051402173936367035,0.0,0.0,0.0,0.0,0.0,0.0,0.0,0.0,0.0
1606987780500497282,1467372,1606984179678209038,imu_link,0.00234423135407269,0.0006355083896778524,0.19141314923763275,-0.9815065860748291,0.0,0.0,0.0,0.0,0.0,0.0,0.0,0.0,0.0,-22.070327758789062,-0.12289637327194214,-0.2497231513261795,0.0,0.0,0.0,0.0,0.0,0.0,0.0,0.0,0.0,-0.004671976901590824,-0.008109032176434994,0.051402173936367035,0.0,0.0,0.0,0.0,0.0,0.0,0.0,0.0,0.0
1606987780500528995,1467373,1606984179690639501,imu_link,0.002345199463889003,0.0006351099582388997,0.19141323864459991,-0.9815065264701843,0.0,0.0,0.0,0.0,0.0,0.0,0.0,0.0,0.0,-22.070337295532227,-0.12287281453609467,-0.24984075129032135,0.0,0.0,0.0,0.0,0.0,0.0,0.0,0.0,0.0,-0.002263343892991543,-0.01077913586050272,0.041004478931427,0.0,0.0,0.0,0.0,0.0,0.0,0.0,0.0,0.0
1606987780500542246,1467374,1606984179690780102,imu_link,0.002345199463889003,0.0006351099582388997,0.19141323864459991,-0.9815065264701843,0.0,0.0,0.0,0.0,0.0,0.0,0.0,0.0,0.0,-22.070337295532227,-0.12287281453609467,-0.24984075129032135,0.0,0.0,0.0,0.0,0.0,0.0,0.0,0.0,0.0,-0.002263343892991543,-0.01077913586050272,0.041004478931427,0.0,0.0,0.0,0.0,0.0,0.0,0.0,0.0,0.0
1606987780500597808,1467375,1606984179691025028,imu_link,0.002345153596252203,0.0006347105954773724,0.19140976667404175,-0.9815071821212769,0.0,0.0,0.0,0.0,0.0,0.0,0.0,0.0,0.0,-22.069931030273438,-0.1228260025382042,-0.24984480440616608,0.0,0.0,0.0,0.0,0.0,0.0,0.0,0.0,0.0,-0.0005403838586062193,0.004676390439271927,0.021798960864543915,0.0,0.0,0.0,0.0,0.0,0.0,0.0,0.0,0.0
1606987780504438820,1467376,1606984179691130763,imu_link,0.002345153596252203,0.0006347105954773724,0.19140976667404175,-0.9815071821212769,0.0,0.0,0.0,0.0,0.0,0.0,0.0,0.0,0.0,-22.069931030273438,-0.1228260025382042,-0.24984480440616608,0.0,0.0,0.0,0.0,0.0,0.0,0.0,0.0,0.0,-0.0005403838586062193,0.004676390439271927,0.021798960864543915,0.0,0.0,0.0,0.0,0.0,0.0,0.0,0.0,0.0
1606987780504477297,1467377,1606984179691261260,imu_link,0.002345412503927946,0.0006354841752909124,0.1914081573486328,-0.9815075397491455,0.0,0.0,0.0,0.0,0.0,0.0,0.0,0.0,0.0,-22.069744110107422,-0.1229182779788971,-0.24985718727111816,0.0,0.0,0.0,0.0,0.0,0.0,0.0,0.0,0.0,-0.001945583731867373,0.0013667232124134898,0.040048714727163315,0.0,0.0,0.0,0.0,0.0,0.0,0.0,0.0,0.0
1606987780504498572,1467378,1606984179691348672,imu_link,0.002345412503927946,0.0006354841752909124,0.1914081573486328,-0.9815075397491455,0.0,0.0,0.0,0.0,0.0,0.0,0.0,0.0,0.0,-22.069744110107422,-0.1229182779788971,-0.24985718727111816,0.0,0.0,0.0,0.0,0.0,0.0,0.0,0.0,0.0,-0.001945583731867373,0.0013667232124134898,0.040048714727163315,0.0,0.0,0.0,0.0,0.0,0.0,0.0,0.0,0.0
1606987780504518973,1467379,1606984179691475210,imu_link,0.0023449792061001062,0.0006366099696606398,0.19140830636024475,-0.9815075397491455,0.0,0.0,0.0,0.0,0.0,0.0,0.0,0.0,0.0,-22.06976318359375,-0.12303543090820312,-0.2497837096452713,0.0,0.0,0.0,0.0,0.0,0.0,0.0,0.0,0.0,0.00457371911033988,-0.0013546880800276995,0.050422798842191696,0.0,0.0,0.0,0.0,0.0,0.0,0.0,0.0,0.0
1606987780504558560,1467380,1606984179691563880,imu_link,0.0023449792061001062,0.0006366099696606398,0.19140830636024475,-0.9815075397491455,0.0,0.0,0.0,0.0,0.0,0.0,0.0,0.0,0.0,-22.06976318359375,-0.12303543090820312,-0.2497837096452713,0.0,0.0,0.0,0.0,0.0,0.0,0.0,0.0,0.0,0.00457371911033988,-0.0013546880800276995,0.050422798842191696,0.0,0.0,0.0,0.0,0.0,0.0,0.0,0.0,0.0
1606987780509369370,1467381,1606984179691712364,imu_link,0.002344959881156683,0.0006381004932336509,0.19140839576721191,-0.9815075397491455,0.0,0.0,0.0,0.0,0.0,0.0,0.0,0.0,0.0,-22.069774627685547,-0.12320268154144287,-0.2497488111257553,0.0,0.0,0.0,0.0,0.0,0.0,0.0,0.0,0.0,0.0036048523616045713,0.006179390009492636,0.03256847709417343,0.0,0.0,0.0,0.0,0.0,0.0,0.0,0.0,0.0
1606987780509415909,1467382,1606984179691815969,imu_link,0.002344959881156683,0.0006381004932336509,0.19140839576721191,-0.9815075397491455,0.0,0.0,0.0,0.0,0.0,0.0,0.0,0.0,0.0,-22.069774627685547,-0.12320268154144287,-0.2497488111257553,0.0,0.0,0.0,0.0,0.0,0.0,0.0,0.0,0.0,0.0036048523616045713,0.006179390009492636,0.03256847709417343,0.0,0.0,0.0,0.0,0.0,0.0,0.0,0.0,0.0
1606987780509459199,1467383,1606984179691899527,imu_link,0.0023466558195650578,0.000636473938357085,0.19140946865081787,-0.9815073609352112,0.0,0.0,0.0,0.0,0.0,0.0,0.0,0.0,0.0,-22.069894790649414,-0.12305721640586853,-0.2499750852584839,0.0,0.0,0.0,0.0,0.0,0.0,0.0,0.0,0.0,0.00963567104190588,0.004492118488997221,0.019718263298273087,0.0,0.0,0.0,0.0,0.0,0.0,0.0,0.0,0.0
1606987780509482330,1467384,1606984179704465469,imu_link,0.0023466558195650578,0.000636473938357085,0.19140946865081787,-0.9815073609352112,0.0,0.0,0.0,0.0,0.0,0.0,0.0,0.0,0.0,-22.069894790649414,-0.12305721640586853,-0.2499750852584839,0.0,0.0,0.0,0.0,0.0,0.0,0.0,0.0,0.0,0.00963567104190588,0.004492118488997221,0.019718263298273087,0.0,0.0,0.0,0.0,0.0,0.0,0.0,0.0,0.0
1606987780517797134,1467385,1606984179704614829,imu_link,0.002347436500713229,0.0006352092605084181,0.19141070544719696,-0.9815070033073425,0.0,0.0,0.0,0.0,0.0,0.0,0.0,0.0,0.0,-22.07004165649414,-0.12293238937854767,-0.25009050965309143,0.0,0.0,0.0,0.0,0.0,0.0,0.0,0.0,0.0,-0.00021158299932722002,-0.01696120761334896,0.029848303645849228,0.0,0.0,0.0,0.0,0.0,0.0,0.0,0.0,0.0
1606987780517826284,1467386,1606984179704703805,imu_link,0.002347436500713229,0.0006352092605084181,0.19141070544719696,-0.9815070033073425,0.0,0.0,0.0,0.0,0.0,0.0,0.0,0.0,0.0,-22.07004165649414,-0.12293238937854767,-0.25009050965309143,0.0,0.0,0.0,0.0,0.0,0.0,0.0,0.0,0.0,-0.00021158299932722002,-0.01696120761334896,0.029848303645849228,0.0,0.0,0.0,0.0,0.0,0.0,0.0,0.0,0.0
1606987780517836811,1467387,1606984179704781916,imu_link,0.0023443917743861675,0.0006366479792632163,0.1914113312959671,-0.981506884098053,0.0,0.0,0.0,0.0,0.0,0.0,0.0,0.0,0.0,-22.07011604309082,-0.12302758544683456,-0.2497164011001587,0.0,0.0,0.0,0.0,0.0,0.0,0.0,0.0,0.0,-0.01470156665891409,-0.01889633573591709,0.030284995213150978,0.0,0.0,0.0,0.0,0.0,0.0,0.0,0.0,0.0
1606987780517872991,1467388,1606984179704879828,imu_link,0.0023443917743861675,0.0006366479792632163,0.1914113312959671,-0.981506884098053,0.0,0.0,0.0,0.0,0.0,0.0,0.0,0.0,0.0,-22.07011604309082,-0.12302758544683456,-0.2497164011001587,0.0,0.0,0.0,0.0,0.0,0.0,0.0,0.0,0.0,-0.01470156665891409,-0.01889633573591709,0.030284995213150978,0.0,0.0,0.0,0.0,0.0,0.0,0.0,0.0,0.0
1606987780517936636,1467389,1606984179704969049,imu_link,0.0023439249489456415,0.0006374240620061755,0.19140903651714325,-0.9815073609352112,0.0,0.0,0.0,0.0,0.0,0.0,0.0,0.0,0.0,-22.069847106933594,-0.12310405820608139,-0.24964715540409088,0.0,0.0,0.0,0.0,0.0,0.0,0.0,0.0,0.0,-0.012360788881778717,-0.0049966610968112946,0.01938844658434391,0.0,0.0,0.0,0.0,0.0,0.0,0.0,0.0,0.0
1606987780522329950,1467390,1606984179705074719,imu_link,0.0023439249489456415,0.0006374240620061755,0.19140903651714325,-0.9815073609352112,0.0,0.0,0.0,0.0,0.0,0.0,0.0,0.0,0.0,-22.069847106933594,-0.12310405820608139,-0.24964715540409088,0.0,0.0,0.0,0.0,0.0,0.0,0.0,0.0,0.0,-0.012360788881778717,-0.0049966610968112946,0.01938844658434391,0.0,0.0,0.0,0.0,0.0,0.0,0.0,0.0,0.0
1606987780522399351,1467391,1606984179705157485,imu_link,0.002344046253710985,0.0006392032955773175,0.1914142221212387,-0.98150634765625,0.0,0.0,0.0,0.0,0.0,0.0,0.0,0.0,0.0,-22.070449829101562,-0.12330815941095352,-0.24962115287780762,0.0,0.0,0.0,0.0,0.0,0.0,0.0,0.0,0.0,0.0021551160607486963,-0.018391186371445656,0.01628238707780838,0.0,0.0,0.0,0.0,0.0,0.0,0.0,0.0,0.0
1606987780522445863,1467392,1606984179705235050,imu_link,0.002344046253710985,0.0006392032955773175,0.1914142221212387,-0.98150634765625,0.0,0.0,0.0,0.0,0.0,0.0,0.0,0.0,0.0,-22.070449829101562,-0.12330815941095352,-0.24962115287780762,0.0,0.0,0.0,0.0,0.0,0.0,0.0,0.0,0.0,0.0021551160607486963,-0.018391186371445656,0.01628238707780838,0.0,0.0,0.0,0.0,0.0,0.0,0.0,0.0,0.0
1606987780522475137,1467393,1606984179705321314,imu_link,0.0023447927087545395,0.000640461512375623,0.19141337275505066,-0.9815065264701843,0.0,0.0,0.0,0.0,0.0,0.0,0.0,0.0,0.0,-22.070350646972656,-0.12346582859754562,-0.2496776282787323,0.0,0.0,0.0,0.0,0.0,0.0,0.0,0.0,0.0,-0.008412239141762257,-0.01828116364777088,0.03298557922244072,0.0,0.0,0.0,0.0,0.0,0.0,0.0,0.0,0.0
1606987780525635953,1467394,1606984179705402778,imu_link,0.0023447927087545395,0.000640461512375623,0.19141337275505066,-0.9815065264701843,0.0,0.0,0.0,0.0,0.0,0.0,0.0,0.0,0.0,-22.070350646972656,-0.12346582859754562,-0.2496776282787323,0.0,0.0,0.0,0.0,0.0,0.0,0.0,0.0,0.0,-0.008412239141762257,-0.01828116364777088,0.03298557922244072,0.0,0.0,0.0,0.0,0.0,0.0,0.0,0.0,0.0
1606987780525663457,1467395,1606984179717961356,imu_link,0.0023397894110530615,0.0006416669930331409,0.1914098858833313,-0.9815071821212769,0.0,0.0,0.0,0.0,0.0,0.0,0.0,0.0,0.0,-22.069942474365234,-0.12349078804254532,-0.24908886849880219,0.0,0.0,0.0,0.0,0.0,0.0,0.0,0.0,0.0,-0.014029832556843758,0.0021100409794598818,0.04165634512901306,0.0,0.0,0.0,0.0,0.0,0.0,0.0,0.0,0.0
1606987780525689708,1467396,1606984179718085653,imu_link,0.0023397894110530615,0.0006416669930331409,0.1914098858833313,-0.9815071821212769,0.0,0.0,0.0,0.0,0.0,0.0,0.0,0.0,0.0,-22.069942474365234,-0.12349078804254532,-0.24908886849880219,0.0,0.0,0.0,0.0,0.0,0.0,0.0,0.0,0.0,-0.014029832556843758,0.0021100409794598818,0.04165634512901306,0.0,0.0,0.0,0.0,0.0,0.0,0.0,0.0,0.0
1606987780525727735,1467397,1606984179718229822,imu_link,0.0023417631164193153,0.0006440382567234337,0.19140978157520294,-0.9815071821212769,0.0,0.0,0.0,0.0,0.0,0.0,0.0,0.0,0.0,-22.06993293762207,-0.12380073219537735,-0.2492588609457016,0.0,0.0,0.0,0.0,0.0,0.0,0.0,0.0,0.0,0.005130574107170105,0.009026173502206802,0.04206378012895584,0.0,0.0,0.0,0.0,0.0,0.0,0.0,0.0,0.0
1606987780525784197,1467398,1606984179718316832,imu_link,0.0023417631164193153,0.0006440382567234337,0.19140978157520294,-0.9815071821212769,0.0,0.0,0.0,0.0,0.0,0.0,0.0,0.0,0.0,-22.06993293762207,-0.12380073219537735,-0.2492588609457016,0.0,0.0,0.0,0.0,0.0,0.0,0.0,0.0,0.0,0.005130574107170105,0.009026173502206802,0.04206378012895584,0.0,0.0,0.0,0.0,0.0,0.0,0.0,0.0,0.0
1606987780573585830,1467399,1606984179718390932,imu_link,0.0023451203014701605,0.0006432901718653738,0.19140420854091644,-0.9815083146095276,0.0,0.0,0.0,0.0,0.0,0.0,0.0,0.0,0.0,-22.06928253173828,-0.12378883361816406,-0.24965356290340424,0.0,0.0,0.0,0.0,0.0,0.0,0.0,0.0,0.0,0.007460297551006079,0.012029771693050861,0.038118876516819,0.0,0.0,0.0,0.0,0.0,0.0,0.0,0.0,0.0
1606987780573610265,1467400,1606984179718485409,imu_link,0.0023451203014701605,0.0006432901718653738,0.19140420854091644,-0.9815083146095276,0.0,0.0,0.0,0.0,0.0,0.0,0.0,0.0,0.0,-22.06928253173828,-0.12378883361816406,-0.24965356290340424,0.0,0.0,0.0,0.0,0.0,0.0,0.0,0.0,0.0,0.007460297551006079,0.012029771693050861,0.038118876516819,0.0,0.0,0.0,0.0,0.0,0.0,0.0,0.0,0.0
1606987780573651072,1467401,1606984179718562311,imu_link,0.002345305634662509,0.0006433686357922852,0.191404789686203,-0.981508195400238,0.0,0.0,0.0,0.0,0.0,0.0,0.0,0.0,0.0,-22.069351196289062,-0.12380185723304749,-0.24967262148857117,0.0,0.0,0.0,0.0,0.0,0.0,0.0,0.0,0.0,-0.005239582620561123,0.006496164947748184,0.01657749153673649,0.0,0.0,0.0,0.0,0.0,0.0,0.0,0.0,0.0
1606987780573658401,1467402,1606984179718635753,imu_link,0.002345305634662509,0.0006433686357922852,0.191404789686203,-0.981508195400238,0.0,0.0,0.0,0.0,0.0,0.0,0.0,0.0,0.0,-22.069351196289062,-0.12380185723304749,-0.24967262148857117,0.0,0.0,0.0,0.0,0.0,0.0,0.0,0.0,0.0,-0.005239582620561123,0.006496164947748184,0.01657749153673649,0.0,0.0,0.0,0.0,0.0,0.0,0.0,0.0,0.0
1606987780577888159,1467403,1606984179718708245,imu_link,0.002346155932173133,0.0006449360516853631,0.1914001852273941,-0.9815091490745544,0.0,0.0,0.0,0.0,0.0,0.0,0.0,0.0,0.0,-22.068811416625977,-0.12399563193321228,-0.24973443150520325,0.0,0.0,0.0,0.0,0.0,0.0,0.0,0.0,0.0,-0.002361455699428916,-0.00408297311514616,0.036611706018447876,0.0,0.0,0.0,0.0,0.0,0.0,0.0,0.0,0.0
1606987780577921729,1467404,1606984179718779806,imu_link,0.002346155932173133,0.0006449360516853631,0.1914001852273941,-0.9815091490745544,0.0,0.0,0.0,0.0,0.0,0.0,0.0,0.0,0.0,-22.068811416625977,-0.12399563193321228,-0.24973443150520325,0.0,0.0,0.0,0.0,0.0,0.0,0.0,0.0,0.0,-0.002361455699428916,-0.00408297311514616,0.036611706018447876,0.0,0.0,0.0,0.0,0.0,0.0,0.0,0.0,0.0
1606987780577940285,1467405,1606984179718850823,imu_link,0.002346754539757967,0.0006463338504545391,0.19140101969242096,-0.9815089702606201,0.0,0.0,0.0,0.0,0.0,0.0,0.0,0.0,0.0,-22.068906784057617,-0.12416619062423706,-0.24977104365825653,0.0,0.0,0.0,0.0,0.0,0.0,0.0,0.0,0.0,-6.088812369853258e-06,-0.008128324523568153,0.05578475818037987,0.0,0.0,0.0,0.0,0.0,0.0,0.0,0.0,0.0
1606987780577956632,1467406,1606984179730894946,imu_link,0.002346754539757967,0.0006463338504545391,0.19140101969242096,-0.9815089702606201,0.0,0.0,0.0,0.0,0.0,0.0,0.0,0.0,0.0,-22.068906784057617,-0.12416619062423706,-0.24977104365825653,0.0,0.0,0.0,0.0,0.0,0.0,0.0,0.0,0.0,-6.088812369853258e-06,-0.008128324523568153,0.05578475818037987,0.0,0.0,0.0,0.0,0.0,0.0,0.0,0.0,0.0
1606987780577993901,1467407,1606984179731055361,imu_link,0.002345897490158677,0.0006453823880292475,0.19139838218688965,-0.9815093874931335,0.0,0.0,0.0,0.0,0.0,0.0,0.0,0.0,0.0,-22.068603515625,-0.12403970956802368,-0.24969588220119476,0.0,0.0,0.0,0.0,0.0,0.0,0.0,0.0,0.0,-0.007637102622538805,-0.01349450834095478,0.029850997030735016,0.0,0.0,0.0,0.0,0.0,0.0,0.0,0.0,0.0
1606987780651418537,1467408,1606984179731137085,imu_link,0.002345897490158677,0.0006453823880292475,0.19139838218688965,-0.9815093874931335,0.0,0.0,0.0,0.0,0.0,0.0,0.0,0.0,0.0,-22.068603515625,-0.12403970956802368,-0.24969588220119476,0.0,0.0,0.0,0.0,0.0,0.0,0.0,0.0,0.0,-0.007637102622538805,-0.01349450834095478,0.029850997030735016,0.0,0.0,0.0,0.0,0.0,0.0,0.0,0.0,0.0
1606987780651436765,1467409,1606984179731223177,imu_link,0.002346112160012126,0.0006436684052459896,0.19139805436134338,-0.9815095663070679,0.0,0.0,0.0,0.0,0.0,0.0,0.0,0.0,0.0,-22.068561553955078,-0.12385156005620956,-0.2497575879096985,0.0,0.0,0.0,0.0,0.0,0.0,0.0,0.0,0.0,-0.007172311656177044,-0.00848701037466526,0.05637185275554657,0.0,0.0,0.0,0.0,0.0,0.0,0.0,0.0,0.0
1606987780651442605,1467410,1606984179731297442,imu_link,0.002346112160012126,0.0006436684052459896,0.19139805436134338,-0.9815095663070679,0.0,0.0,0.0,0.0,0.0,0.0,0.0,0.0,0.0,-22.068561553955078,-0.12385156005620956,-0.2497575879096985,0.0,0.0,0.0,0.0,0.0,0.0,0.0,0.0,0.0,-0.007172311656177044,-0.00848701037466526,0.05637185275554657,0.0,0.0,0.0,0.0,0.0,0.0,0.0,0.0,0.0
1606987780651457109,1467411,1606984179731383143,imu_link,0.0023461678065359592,0.00064702337840572,0.1913987696170807,-0.9815093874931335,0.0,0.0,0.0,0.0,0.0,0.0,0.0,0.0,0.0,-22.06864356994629,-0.12423030287027359,-0.24969017505645752,0.0,0.0,0.0,0.0,0.0,0.0,0.0,0.0,0.0,0.002586720511317253,-0.0008899676613509655,0.08498107641935349,0.0,0.0,0.0,0.0,0.0,0.0,0.0,0.0,0.0
1606987780655195715,1467412,1606984179731454360,imu_link,0.0023461678065359592,0.00064702337840572,0.1913987696170807,-0.9815093874931335,0.0,0.0,0.0,0.0,0.0,0.0,0.0,0.0,0.0,-22.06864356994629,-0.12423030287027359,-0.24969017505645752,0.0,0.0,0.0,0.0,0.0,0.0,0.0,0.0,0.0,0.002586720511317253,-0.0008899676613509655,0.08498107641935349,0.0,0.0,0.0,0.0,0.0,0.0,0.0,0.0,0.0
1606987780655215517,1467413,1606984179731578376,imu_link,0.00234553893096745,0.0006479761796072125,0.19139933586120605,-0.9815092086791992,0.0,0.0,0.0,0.0,0.0,0.0,0.0,0.0,0.0,-22.068714141845703,-0.12432381510734558,-0.24959854781627655,0.0,0.0,0.0,0.0,0.0,0.0,0.0,0.0,0.0,0.002905577188357711,-0.004452852997928858,0.04962507262825966,0.0,0.0,0.0,0.0,0.0,0.0,0.0,0.0,0.0
1606987780655235423,1467414,1606984179731656495,imu_link,0.00234553893096745,0.0006479761796072125,0.19139933586120605,-0.9815092086791992,0.0,0.0,0.0,0.0,0.0,0.0,0.0,0.0,0.0,-22.068714141845703,-0.12432381510734558,-0.24959854781627655,0.0,0.0,0.0,0.0,0.0,0.0,0.0,0.0,0.0,0.002905577188357711,-0.004452852997928858,0.04962507262825966,0.0,0.0,0.0,0.0,0.0,0.0,0.0,0.0,0.0
1606987780655240466,1467415,1606984179731735179,imu_link,0.0023468472063541412,0.0006456922856159508,0.19139839708805084,-0.9815093874931335,0.0,0.0,0.0,0.0,0.0,0.0,0.0,0.0,0.0,-22.068605422973633,-0.12409539520740509,-0.24979588389396667,0.0,0.0,0.0,0.0,0.0,0.0,0.0,0.0,0.0,-0.006051701959222555,-0.013152074068784714,0.03989516198635101,0.0,0.0,0.0,0.0,0.0,0.0,0.0,0.0,0.0
1606987780661905074,1467416,1606984179744677556,imu_link,0.0023468472063541412,0.0006456922856159508,0.19139839708805084,-0.9815093874931335,0.0,0.0,0.0,0.0,0.0,0.0,0.0,0.0,0.0,-22.068605422973633,-0.12409539520740509,-0.24979588389396667,0.0,0.0,0.0,0.0,0.0,0.0,0.0,0.0,0.0,-0.006051701959222555,-0.013152074068784714,0.03989516198635101,0.0,0.0,0.0,0.0,0.0,0.0,0.0,0.0,0.0
1606987780661928843,1467417,1606984179744804766,imu_link,0.0023484386038035154,0.0006439866265282035,0.1913989931344986,-0.981509268283844,0.0,0.0,0.0,0.0,0.0,0.0,0.0,0.0,0.0,-22.06867218017578,-0.12393860518932343,-0.25001218914985657,0.0,0.0,0.0,0.0,0.0,0.0,0.0,0.0,0.0,0.006107024382799864,-0.0004845850053243339,0.05968157574534416,0.0,0.0,0.0,0.0,0.0,0.0,0.0,0.0,0.0
1606987780661961389,1467418,1606984179744942346,imu_link,0.0023484386038035154,0.0006439866265282035,0.1913989931344986,-0.981509268283844,0.0,0.0,0.0,0.0,0.0,0.0,0.0,0.0,0.0,-22.06867218017578,-0.12393860518932343,-0.25001218914985657,0.0,0.0,0.0,0.0,0.0,0.0,0.0,0.0,0.0,0.006107024382799864,-0.0004845850053243339,0.05968157574534416,0.0,0.0,0.0,0.0,0.0,0.0,0.0,0.0,0.0
1606987780661970916,1467419,1606984179745028024,imu_link,0.002348374342545867,0.0006455258117057383,0.191391259431839,-0.9815108180046082,0.0,0.0,0.0,0.0,0.0,0.0,0.0,0.0,0.0,-22.06777000427246,-0.12410834431648254,-0.2499721795320511,0.0,0.0,0.0,0.0,0.0,0.0,0.0,0.0,0.0,0.010462122038006783,0.010682915337383747,0.04009304568171501,0.0,0.0,0.0,0.0,0.0,0.0,0.0,0.0,0.0
1606987780661984943,1467420,1606984179745098017,imu_link,0.002348374342545867,0.0006455258117057383,0.191391259431839,-0.9815108180046082,0.0,0.0,0.0,0.0,0.0,0.0,0.0,0.0,0.0,-22.06777000427246,-0.12410834431648254,-0.2499721795320511,0.0,0.0,0.0,0.0,0.0,0.0,0.0,0.0,0.0,0.010462122038006783,0.010682915337383747,0.04009304568171501,0.0,0.0,0.0,0.0,0.0,0.0,0.0,0.0,0.0
1606987780667684748,1467421,1606984179745173111,imu_link,0.002348534995689988,0.0006458622519858181,0.19138967990875244,-0.981511116027832,0.0,0.0,0.0,0.0,0.0,0.0,0.0,0.0,0.0,-22.067583084106445,-0.12414931505918503,-0.2499830722808838,0.0,0.0,0.0,0.0,0.0,0.0,0.0,0.0,0.0,0.005590556655079126,0.00911642611026764,0.05621309578418732,0.0,0.0,0.0,0.0,0.0,0.0,0.0,0.0,0.0
1606987780667716557,1467422,1606984179745261017,imu_link,0.002348534995689988,0.0006458622519858181,0.19138967990875244,-0.981511116027832,0.0,0.0,0.0,0.0,0.0,0.0,0.0,0.0,0.0,-22.067583084106445,-0.12414931505918503,-0.2499830722808838,0.0,0.0,0.0,0.0,0.0,0.0,0.0,0.0,0.0,0.005590556655079126,0.00911642611026764,0.05621309578418732,0.0,0.0,0.0,0.0,0.0,0.0,0.0,0.0,0.0
1606987780667738891,1467423,1606984179745334917,imu_link,0.002349668415263295,0.0006436241092160344,0.19138005375862122,-0.9815130233764648,0.0,0.0,0.0,0.0,0.0,0.0,0.0,0.0,0.0,-22.06645965576172,-0.12391999363899231,-0.2501608431339264,0.0,0.0,0.0,0.0,0.0,0.0,0.0,0.0,0.0,-0.003488431917503476,0.011519611813127995,0.07363564521074295,0.0,0.0,0.0,0.0,0.0,0.0,0.0,0.0,0.0
1606987780667747959,1467424,1606984179745407101,imu_link,0.002349668415263295,0.0006436241092160344,0.19138005375862122,-0.9815130233764648,0.0,0.0,0.0,0.0,0.0,0.0,0.0,0.0,0.0,-22.06645965576172,-0.12391999363899231,-0.2501608431339264,0.0,0.0,0.0,0.0,0.0,0.0,0.0,0.0,0.0,-0.003488431917503476,0.011519611813127995,0.07363564521074295,0.0,0.0,0.0,0.0,0.0,0.0,0.0,0.0,0.0
1606987780671726111,1467425,1606984179745481621,imu_link,0.002349692629650235,0.000643385574221611,0.19138042628765106,-0.9815129637718201,0.0,0.0,0.0,0.0,0.0,0.0,0.0,0.0,0.0,-22.066503524780273,-0.12389378249645233,-0.25016874074935913,0.0,0.0,0.0,0.0,0.0,0.0,0.0,0.0,0.0,-0.002353108022361994,6.266208947636187e-05,0.0625251829624176,0.0,0.0,0.0,0.0,0.0,0.0,0.0,0.0,0.0
1606987780671760921,1467426,1606984179745553917,imu_link,0.002349692629650235,0.000643385574221611,0.19138042628765106,-0.9815129637718201,0.0,0.0,0.0,0.0,0.0,0.0,0.0,0.0,0.0,-22.066503524780273,-0.12389378249645233,-0.25016874074935913,0.0,0.0,0.0,0.0,0.0,0.0,0.0,0.0,0.0,-0.002353108022361994,6.266208947636187e-05,0.0625251829624176,0.0,0.0,0.0,0.0,0.0,0.0,0.0,0.0,0.0
1606987780671774380,1467427,1606984179758144393,imu_link,0.002351269591599703,0.0006412949878722429,0.191376730799675,-0.9815136790275574,0.0,0.0,0.0,0.0,0.0,0.0,0.0,0.0,0.0,-22.066072463989258,-0.12369227409362793,-0.2503924071788788,0.0,0.0,0.0,0.0,0.0,0.0,0.0,0.0,0.0,0.006130586378276348,-0.006860559340566397,0.06655266135931015,0.0,0.0,0.0,0.0,0.0,0.0,0.0,0.0,0.0
1606987780671790685,1467428,1606984179758288737,imu_link,0.002351269591599703,0.0006412949878722429,0.191376730799675,-0.9815136790275574,0.0,0.0,0.0,0.0,0.0,0.0,0.0,0.0,0.0,-22.066072463989258,-0.12369227409362793,-0.2503924071788788,0.0,0.0,0.0,0.0,0.0,0.0,0.0,0.0,0.0,0.006130586378276348,-0.006860559340566397,0.06655266135931015,0.0,0.0,0.0,0.0,0.0,0.0,0.0,0.0,0.0
1606987780671820687,1467429,1606984179758442107,imu_link,0.0023517992813140154,0.0006403063889592886,0.19137556850910187,-0.9815139174461365,0.0,0.0,0.0,0.0,0.0,0.0,0.0,0.0,0.0,-22.065937042236328,-0.12359241396188736,-0.25047382712364197,0.0,0.0,0.0,0.0,0.0,0.0,0.0,0.0,0.0,-0.01062832772731781,-0.0017200849251821637,0.05158310383558273,0.0,0.0,0.0,0.0,0.0,0.0,0.0,0.0,0.0
1606987780713539193,1467430,1606984179758539402,imu_link,0.0023517992813140154,0.0006403063889592886,0.19137556850910187,-0.9815139174461365,0.0,0.0,0.0,0.0,0.0,0.0,0.0,0.0,0.0,-22.065937042236328,-0.12359241396188736,-0.25047382712364197,0.0,0.0,0.0,0.0,0.0,0.0,0.0,0.0,0.0,-0.01062832772731781,-0.0017200849251821637,0.05158310383558273,0.0,0.0,0.0,0.0,0.0,0.0,0.0,0.0,0.0
1606987780713552090,1467431,1606984179758631069,imu_link,0.0023516721557825804,0.000640454120002687,0.19137056171894073,-0.9815148115158081,0.0,0.0,0.0,0.0,0.0,0.0,0.0,0.0,0.0,-22.065353393554688,-0.12360496819019318,-0.25045689940452576,0.0,0.0,0.0,0.0,0.0,0.0,0.0,0.0,0.0,-0.016919096931815147,-0.00217243074439466,0.056416526436805725,0.0,0.0,0.0,0.0,0.0,0.0,0.0,0.0,0.0
1606987780713563628,1467432,1606984179758712548,imu_link,0.0023516721557825804,0.000640454120002687,0.19137056171894073,-0.9815148115158081,0.0,0.0,0.0,0.0,0.0,0.0,0.0,0.0,0.0,-22.065353393554688,-0.12360496819019318,-0.25045689940452576,0.0,0.0,0.0,0.0,0.0,0.0,0.0,0.0,0.0,-0.016919096931815147,-0.00217243074439466,0.056416526436805725,0.0,0.0,0.0,0.0,0.0,0.0,0.0,0.0,0.0
1606987780713569867,1467433,1606984179758813827,imu_link,0.002351731527596712,0.0006411448703147471,0.19137051701545715,-0.9815148711204529,0.0,0.0,0.0,0.0,0.0,0.0,0.0,0.0,0.0,-22.06534767150879,-0.12368395179510117,-0.25044846534729004,0.0,0.0,0.0,0.0,0.0,0.0,0.0,0.0,0.0,-0.00044846170931123197,-0.0010603187838569283,0.06577299535274506,0.0,0.0,0.0,0.0,0.0,0.0,0.0,0.0,0.0
1606987780718805718,1467434,1606984179758897947,imu_link,0.002351731527596712,0.0006411448703147471,0.19137051701545715,-0.9815148711204529,0.0,0.0,0.0,0.0,0.0,0.0,0.0,0.0,0.0,-22.06534767150879,-0.12368395179510117,-0.25044846534729004,0.0,0.0,0.0,0.0,0.0,0.0,0.0,0.0,0.0,-0.00044846170931123197,-0.0010603187838569283,0.06577299535274506,0.0,0.0,0.0,0.0,0.0,0.0,0.0,0.0,0.0
1606987780718822866,1467435,1606984179759074966,imu_link,0.0023492183536291122,0.0006423034355975688,0.19136746227741241,-0.9815154671669006,0.0,0.0,0.0,0.0,0.0,0.0,0.0,0.0,0.0,-22.064990997314453,-0.12375836819410324,-0.2501407563686371,0.0,0.0,0.0,0.0,0.0,0.0,0.0,0.0,0.0,0.003589397296309471,-0.00017169832426588982,0.04002245515584946,0.0,0.0,0.0,0.0,0.0,0.0,0.0,0.0,0.0
1606987780718840798,1467436,1606984179759164684,imu_link,0.0023492183536291122,0.0006423034355975688,0.19136746227741241,-0.9815154671669006,0.0,0.0,0.0,0.0,0.0,0.0,0.0,0.0,0.0,-22.064990997314453,-0.12375836819410324,-0.2501407563686371,0.0,0.0,0.0,0.0,0.0,0.0,0.0,0.0,0.0,0.003589397296309471,-0.00017169832426588982,0.04002245515584946,0.0,0.0,0.0,0.0,0.0,0.0,0.0,0.0,0.0
1606987780718851624,1467437,1606984179759244353,imu_link,0.002350238151848316,0.0006401349673978984,0.1913672536611557,-0.9815155267715454,0.0,0.0,0.0,0.0,0.0,0.0,0.0,0.0,0.0,-22.064966201782227,-0.12353678792715073,-0.2503030598163605,0.0,0.0,0.0,0.0,0.0,0.0,0.0,0.0,0.0,0.000781756010837853,-0.008968142792582512,0.028675565496087074,0.0,0.0,0.0,0.0,0.0,0.0,0.0,0.0,0.0
1606987780718863660,1467438,1606984179771923707,imu_link,0.002350238151848316,0.0006401349673978984,0.1913672536611557,-0.9815155267715454,0.0,0.0,0.0,0.0,0.0,0.0,0.0,0.0,0.0,-22.064966201782227,-0.12353678792715073,-0.2503030598163605,0.0,0.0,0.0,0.0,0.0,0.0,0.0,0.0,0.0,0.000781756010837853,-0.008968142792582512,0.028675565496087074,0.0,0.0,0.0,0.0,0.0,0.0,0.0,0.0,0.0
1606987780728952086,1467439,1606984179772063165,imu_link,0.0023466376587748528,0.0006406132597476244,0.19136664271354675,-0.981515645980835,0.0,0.0,0.0,0.0,0.0,0.0,0.0,0.0,0.0,-22.064895629882812,-0.12351146340370178,-0.24988768994808197,0.0,0.0,0.0,0.0,0.0,0.0,0.0,0.0,0.0,-0.017652025446295738,0.019459767267107964,0.02949453517794609,0.0,0.0,0.0,0.0,0.0,0.0,0.0,0.0,0.0
1606987780728969289,1467440,1606984179772206191,imu_link,0.0023466376587748528,0.0006406132597476244,0.19136664271354675,-0.981515645980835,0.0,0.0,0.0,0.0,0.0,0.0,0.0,0.0,0.0,-22.064895629882812,-0.12351146340370178,-0.24988768994808197,0.0,0.0,0.0,0.0,0.0,0.0,0.0,0.0,0.0,-0.017652025446295738,0.019459767267107964,0.02949453517794609,0.0,0.0,0.0,0.0,0.0,0.0,0.0,0.0,0.0
1606987780728976994,1467441,1606984179772298084,imu_link,0.0023457426577806473,0.0006398275145329535,0.19136536121368408,-0.9815158843994141,0.0,0.0,0.0,0.0,0.0,0.0,0.0,0.0,0.0,-22.06474494934082,-0.1234031394124031,-0.24980442225933075,0.0,0.0,0.0,0.0,0.0,0.0,0.0,0.0,0.0,-0.01850838214159012,0.0274612158536911,0.0237661711871624,0.0,0.0,0.0,0.0,0.0,0.0,0.0,0.0,0.0
1606987780728982298,1467442,1606984179772379517,imu_link,0.0023457426577806473,0.0006398275145329535,0.19136536121368408,-0.9815158843994141,0.0,0.0,0.0,0.0,0.0,0.0,0.0,0.0,0.0,-22.06474494934082,-0.1234031394124031,-0.24980442225933075,0.0,0.0,0.0,0.0,0.0,0.0,0.0,0.0,0.0,-0.01850838214159012,0.0274612158536911,0.0237661711871624,0.0,0.0,0.0,0.0,0.0,0.0,0.0,0.0,0.0
1606987780733411337,1467443,1606984179772458665,imu_link,0.002352060517296195,0.000641625199932605,0.19136184453964233,-0.9815165996551514,0.0,0.0,0.0,0.0,0.0,0.0,0.0,0.0,0.0,-22.064334869384766,-0.1237429678440094,-0.25047600269317627,0.0,0.0,0.0,0.0,0.0,0.0,0.0,0.0,0.0,0.004693011753261089,0.00452553853392601,0.026488734409213066,0.0,0.0,0.0,0.0,0.0,0.0,0.0,0.0,0.0
1606987780733425096,1467444,1606984179772555865,imu_link,0.002352060517296195,0.000641625199932605,0.19136184453964233,-0.9815165996551514,0.0,0.0,0.0,0.0,0.0,0.0,0.0,0.0,0.0,-22.064334869384766,-0.1237429678440094,-0.25047600269317627,0.0,0.0,0.0,0.0,0.0,0.0,0.0,0.0,0.0,0.004693011753261089,0.00452553853392601,0.026488734409213066,0.0,0.0,0.0,0.0,0.0,0.0,0.0,0.0,0.0
1606987780733441049,1467445,1606984179772636136,imu_link,0.0023531264159828424,0.0006434270762838423,0.19136036932468414,-0.9815168380737305,0.0,0.0,0.0,0.0,0.0,0.0,0.0,0.0,0.0,-22.06416130065918,-0.12396863102912903,-0.2505565583705902,0.0,0.0,0.0,0.0,0.0,0.0,0.0,0.0,0.0,0.009753379039466381,0.010215118527412415,0.053574930876493454,0.0,0.0,0.0,0.0,0.0,0.0,0.0,0.0,0.0
1606987780733445460,1467446,1606984179772796602,imu_link,0.0023531264159828424,0.0006434270762838423,0.19136036932468414,-0.9815168380737305,0.0,0.0,0.0,0.0,0.0,0.0,0.0,0.0,0.0,-22.06416130065918,-0.12396863102912903,-0.2505565583705902,0.0,0.0,0.0,0.0,0.0,0.0,0.0,0.0,0.0,0.009753379039466381,0.010215118527412415,0.053574930876493454,0.0,0.0,0.0,0.0,0.0,0.0,0.0,0.0,0.0
1606987780733451368,1467447,1606984179772880406,imu_link,0.002354890340939164,0.0006412543007172644,0.19135555624961853,-0.9815177917480469,0.0,0.0,0.0,0.0,0.0,0.0,0.0,0.0,0.0,-22.063602447509766,-0.12376169860363007,-0.25080323219299316,0.0,0.0,0.0,0.0,0.0,0.0,0.0,0.0,0.0,0.021310284733772278,0.011991600506007671,0.060441531240940094,0.0,0.0,0.0,0.0,0.0,0.0,0.0,0.0,0.0
1606987780811687171,1467448,1606984179772966866,imu_link,0.002354890340939164,0.0006412543007172644,0.19135555624961853,-0.9815177917480469,0.0,0.0,0.0,0.0,0.0,0.0,0.0,0.0,0.0,-22.063602447509766,-0.12376169860363007,-0.25080323219299316,0.0,0.0,0.0,0.0,0.0,0.0,0.0,0.0,0.0,0.021310284733772278,0.011991600506007671,0.060441531240940094,0.0,0.0,0.0,0.0,0.0,0.0,0.0,0.0,0.0
1606987780811721587,1467449,1606984179785390564,imu_link,0.002354733645915985,0.000641805527266115,0.19135704636573792,-0.981517493724823,0.0,0.0,0.0,0.0,0.0,0.0,0.0,0.0,0.0,-22.06377601623535,-0.12382064014673233,-0.2507733106613159,0.0,0.0,0.0,0.0,0.0,0.0,0.0,0.0,0.0,0.015571149997413158,-0.0029049247968941927,0.05928146839141846,0.0,0.0,0.0,0.0,0.0,0.0,0.0,0.0,0.0
1606987780811751707,1467450,1606984179785528473,imu_link,0.002354733645915985,0.000641805527266115,0.19135704636573792,-0.981517493724823,0.0,0.0,0.0,0.0,0.0,0.0,0.0,0.0,0.0,-22.06377601623535,-0.12382064014673233,-0.2507733106613159,0.0,0.0,0.0,0.0,0.0,0.0,0.0,0.0,0.0,0.015571149997413158,-0.0029049247968941927,0.05928146839141846,0.0,0.0,0.0,0.0,0.0,0.0,0.0,0.0,0.0
1606987780811776953,1467451,1606984179785675648,imu_link,0.0023542216513305902,0.000638036523014307,0.19135738909244537,-0.9815174341201782,0.0,0.0,0.0,0.0,0.0,0.0,0.0,0.0,0.0,-22.063814163208008,-0.12338558584451675,-0.2507983446121216,0.0,0.0,0.0,0.0,0.0,0.0,0.0,0.0,0.0,0.004221480339765549,-0.005972506478428841,0.07241912931203842,0.0,0.0,0.0,0.0,0.0,0.0,0.0,0.0,0.0
1606987780815757114,1467452,1606984179785765572,imu_link,0.0023542216513305902,0.000638036523014307,0.19135738909244537,-0.9815174341201782,0.0,0.0,0.0,0.0,0.0,0.0,0.0,0.0,0.0,-22.063814163208008,-0.12338558584451675,-0.2507983446121216,0.0,0.0,0.0,0.0,0.0,0.0,0.0,0.0,0.0,0.004221480339765549,-0.005972506478428841,0.07241912931203842,0.0,0.0,0.0,0.0,0.0,0.0,0.0,0.0,0.0
1606987780815800144,1467453,1606984179785842936,imu_link,0.0023531171027570963,0.0006383419968187809,0.1913558691740036,-0.9815177321434021,0.0,0.0,0.0,0.0,0.0,0.0,0.0,0.0,0.0,-22.06363868713379,-0.12339535355567932,-0.25066760182380676,0.0,0.0,0.0,0.0,0.0,0.0,0.0,0.0,0.0,0.005127201788127422,0.0022994456812739372,0.04760796204209328,0.0,0.0,0.0,0.0,0.0,0.0,0.0,0.0,0.0
1606987780815821087,1467454,1606984179785943619,imu_link,0.0023531171027570963,0.0006383419968187809,0.1913558691740036,-0.9815177321434021,0.0,0.0,0.0,0.0,0.0,0.0,0.0,0.0,0.0,-22.06363868713379,-0.12339535355567932,-0.25066760182380676,0.0,0.0,0.0,0.0,0.0,0.0,0.0,0.0,0.0,0.005127201788127422,0.0022994456812739372,0.04760796204209328,0.0,0.0,0.0,0.0,0.0,0.0,0.0,0.0,0.0
1606987780815845521,1467455,1606984179786027583,imu_link,0.0023537790402770042,0.0006377538084052503,0.1913548707962036,-0.9815179705619812,0.0,0.0,0.0,0.0,0.0,0.0,0.0,0.0,0.0,-22.063520431518555,-0.12334346026182175,-0.25075507164001465,0.0,0.0,0.0,0.0,0.0,0.0,0.0,0.0,0.0,0.002748575061559677,0.009930114261806011,0.029927009716629982,0.0,0.0,0.0,0.0,0.0,0.0,0.0,0.0,0.0
1606987780815897539,1467456,1606984179786121450,imu_link,0.0023537790402770042,0.0006377538084052503,0.1913548707962036,-0.9815179705619812,0.0,0.0,0.0,0.0,0.0,0.0,0.0,0.0,0.0,-22.063520431518555,-0.12334346026182175,-0.25075507164001465,0.0,0.0,0.0,0.0,0.0,0.0,0.0,0.0,0.0,0.002748575061559677,0.009930114261806011,0.029927009716629982,0.0,0.0,0.0,0.0,0.0,0.0,0.0,0.0,0.0
1606987780823289207,1467457,1606984179786210526,imu_link,0.0023543727584183216,0.0006381029961630702,0.1913543939590454,-0.981518030166626,0.0,0.0,0.0,0.0,0.0,0.0,0.0,0.0,0.0,-22.063465118408203,-0.12339562177658081,-0.2508142590522766,0.0,0.0,0.0,0.0,0.0,0.0,0.0,0.0,0.0,-0.0004927440895698965,0.0047807530499994755,0.029459407553076744,0.0,0.0,0.0,0.0,0.0,0.0,0.0,0.0,0.0
1606987780823332165,1467458,1606984179786303917,imu_link,0.0023543727584183216,0.0006381029961630702,0.1913543939590454,-0.981518030166626,0.0,0.0,0.0,0.0,0.0,0.0,0.0,0.0,0.0,-22.063465118408203,-0.12339562177658081,-0.2508142590522766,0.0,0.0,0.0,0.0,0.0,0.0,0.0,0.0,0.0,-0.0004927440895698965,0.0047807530499994755,0.029459407553076744,0.0,0.0,0.0,0.0,0.0,0.0,0.0,0.0,0.0
1606987780823343785,1467459,1606984179786385035,imu_link,0.0023545294534415007,0.000635103730019182,0.19135715067386627,-0.981517493724823,0.0,0.0,0.0,0.0,0.0,0.0,0.0,0.0,0.0,-22.06378746032715,-0.12306241691112518,-0.25089728832244873,0.0,0.0,0.0,0.0,0.0,0.0,0.0,0.0,0.0,-0.0012277666246518493,-0.014465154148638248,0.04323090612888336,0.0,0.0,0.0,0.0,0.0,0.0,0.0,0.0,0.0
1606987780823355633,1467460,1606984179798414019,imu_link,0.0023545294534415007,0.000635103730019182,0.19135715067386627,-0.981517493724823,0.0,0.0,0.0,0.0,0.0,0.0,0.0,0.0,0.0,-22.06378746032715,-0.12306241691112518,-0.25089728832244873,0.0,0.0,0.0,0.0,0.0,0.0,0.0,0.0,0.0,-0.0012277666246518493,-0.014465154148638248,0.04323090612888336,0.0,0.0,0.0,0.0,0.0,0.0,0.0,0.0,0.0
1606987780828932538,1467461,1606984179798555857,imu_link,0.0023535732179880142,0.0006353534408845007,0.19135622680187225,-0.9815176725387573,0.0,0.0,0.0,0.0,0.0,0.0,0.0,0.0,0.0,-22.063682556152344,-0.12306930124759674,-0.25078439712524414,0.0,0.0,0.0,0.0,0.0,0.0,0.0,0.0,0.0,-0.014581390656530857,0.006205399055033922,0.054690368473529816,0.0,0.0,0.0,0.0,0.0,0.0,0.0,0.0,0.0
1606987780829019850,1467462,1606984179798692919,imu_link,0.0023535732179880142,0.0006353534408845007,0.19135622680187225,-0.9815176725387573,0.0,0.0,0.0,0.0,0.0,0.0,0.0,0.0,0.0,-22.063682556152344,-0.12306930124759674,-0.25078439712524414,0.0,0.0,0.0,0.0,0.0,0.0,0.0,0.0,0.0,-0.014581390656530857,0.006205399055033922,0.054690368473529816,0.0,0.0,0.0,0.0,0.0,0.0,0.0,0.0,0.0
1606987780829061656,1467463,1606984179798791953,imu_link,0.002354357624426484,0.000639316625893116,0.19135792553424835,-0.9815173149108887,0.0,0.0,0.0,0.0,0.0,0.0,0.0,0.0,0.0,-22.063879013061523,-0.12353269010782242,-0.2507854700088501,0.0,0.0,0.0,0.0,0.0,0.0,0.0,0.0,0.0,-0.007526763249188662,0.025518812239170074,0.06234065815806389,0.0,0.0,0.0,0.0,0.0,0.0,0.0,0.0,0.0
1606987780829097963,1467464,1606984179798869859,imu_link,0.002354357624426484,0.000639316625893116,0.19135792553424835,-0.9815173149108887,0.0,0.0,0.0,0.0,0.0,0.0,0.0,0.0,0.0,-22.063879013061523,-0.12353269010782242,-0.2507854700088501,0.0,0.0,0.0,0.0,0.0,0.0,0.0,0.0,0.0,-0.007526763249188662,0.025518812239170074,0.06234065815806389,0.0,0.0,0.0,0.0,0.0,0.0,0.0,0.0,0.0
1606987780829130706,1467465,1606984179799026837,imu_link,0.00235565728507936,0.0006402538856491446,0.19135600328445435,-0.9815176725387573,0.0,0.0,0.0,0.0,0.0,0.0,0.0,0.0,0.0,-22.06365203857422,-0.12366611510515213,-0.2509113848209381,0.0,0.0,0.0,0.0,0.0,0.0,0.0,0.0,0.0,0.002437644638121128,0.01980808936059475,0.06658675521612167,0.0,0.0,0.0,0.0,0.0,0.0,0.0,0.0,0.0
1606987780873122507,1467466,1606984179799120789,imu_link,0.00235565728507936,0.0006402538856491446,0.19135600328445435,-0.9815176725387573,0.0,0.0,0.0,0.0,0.0,0.0,0.0,0.0,0.0,-22.06365203857422,-0.12366611510515213,-0.2509113848209381,0.0,0.0,0.0,0.0,0.0,0.0,0.0,0.0,0.0,0.002437644638121128,0.01980808936059475,0.06658675521612167,0.0,0.0,0.0,0.0,0.0,0.0,0.0,0.0,0.0
1606987780873140505,1467467,1606984179799248901,imu_link,0.0023605627939105034,0.0006368954200297594,0.1913556605577469,-0.9815177321434021,0.0,0.0,0.0,0.0,0.0,0.0,0.0,0.0,0.0,-22.06361198425293,-0.12339586019515991,-0.2515367865562439,0.0,0.0,0.0,0.0,0.0,0.0,0.0,0.0,0.0,-0.0077707781456410885,0.009498941712081432,0.04873741790652275,0.0,0.0,0.0,0.0,0.0,0.0,0.0,0.0,0.0
1606987780873145439,1467468,1606984179799335231,imu_link,0.0023605627939105034,0.0006368954200297594,0.1913556605577469,-0.9815177321434021,0.0,0.0,0.0,0.0,0.0,0.0,0.0,0.0,0.0,-22.06361198425293,-0.12339586019515991,-0.2515367865562439,0.0,0.0,0.0,0.0,0.0,0.0,0.0,0.0,0.0,-0.0077707781456410885,0.009498941712081432,0.04873741790652275,0.0,0.0,0.0,0.0,0.0,0.0,0.0,0.0,0.0
1606987780873158521,1467469,1606984179799420603,imu_link,0.0023610545322299004,0.0006376363453455269,0.19135890901088715,-0.9815171360969543,0.0,0.0,0.0,0.0,0.0,0.0,0.0,0.0,0.0,-22.06399154663086,-0.12349080294370651,-0.25157544016838074,0.0,0.0,0.0,0.0,0.0,0.0,0.0,0.0,0.0,9.625862730899826e-05,-0.01704309694468975,0.012593721970915794,0.0,0.0,0.0,0.0,0.0,0.0,0.0,0.0,0.0
1606987780886855947,1467470,1606984179812133139,imu_link,0.0023610545322299004,0.0006376363453455269,0.19135890901088715,-0.9815171360969543,0.0,0.0,0.0,0.0,0.0,0.0,0.0,0.0,0.0,-22.06399154663086,-0.12349080294370651,-0.25157544016838074,0.0,0.0,0.0,0.0,0.0,0.0,0.0,0.0,0.0,9.625862730899826e-05,-0.01704309694468975,0.012593721970915794,0.0,0.0,0.0,0.0,0.0,0.0,0.0,0.0,0.0
1606987780886875018,1467471,1606984179812280826,imu_link,0.0023577071260660887,0.0006400117999874055,0.19135884940624237,-0.9815171957015991,0.0,0.0,0.0,0.0,0.0,0.0,0.0,0.0,0.0,-22.06398582458496,-0.12368457019329071,-0.2511468827724457,0.0,0.0,0.0,0.0,0.0,0.0,0.0,0.0,0.0,0.0007806536159478128,-0.009057614952325821,0.020886292681097984,0.0,0.0,0.0,0.0,0.0,0.0,0.0,0.0,0.0
1606987780886888775,1467472,1606984179812421441,imu_link,0.0023577071260660887,0.0006400117999874055,0.19135884940624237,-0.9815171957015991,0.0,0.0,0.0,0.0,0.0,0.0,0.0,0.0,0.0,-22.06398582458496,-0.12368457019329071,-0.2511468827724457,0.0,0.0,0.0,0.0,0.0,0.0,0.0,0.0,0.0,0.0007806536159478128,-0.009057614952325821,0.020886292681097984,0.0,0.0,0.0,0.0,0.0,0.0,0.0,0.0,0.0
1606987780886903926,1467473,1606984179812533646,imu_link,0.00235711969435215,0.0006393134826794267,0.1913585662841797,-0.9815171957015991,0.0,0.0,0.0,0.0,0.0,0.0,0.0,0.0,0.0,-22.063953399658203,-0.12359306961297989,-0.2510961890220642,0.0,0.0,0.0,0.0,0.0,0.0,0.0,0.0,0.0,0.001646640244871378,0.016433171927928925,0.03886440023779869,0.0,0.0,0.0,0.0,0.0,0.0,0.0,0.0,0.0
1606987780886920945,1467474,1606984179812626466,imu_link,0.00235711969435215,0.0006393134826794267,0.1913585662841797,-0.9815171957015991,0.0,0.0,0.0,0.0,0.0,0.0,0.0,0.0,0.0,-22.063953399658203,-0.12359306961297989,-0.2510961890220642,0.0,0.0,0.0,0.0,0.0,0.0,0.0,0.0,0.0,0.001646640244871378,0.016433171927928925,0.03886440023779869,0.0,0.0,0.0,0.0,0.0,0.0,0.0,0.0,0.0
1606987780902607838,1467475,1606984179812708315,imu_link,0.0023604880552738905,0.0006395008531399071,0.1913614720106125,-0.9815166592597961,0.0,0.0,0.0,0.0,0.0,0.0,0.0,0.0,0.0,-22.064287185668945,-0.12368875741958618,-0.25147050619125366,0.0,0.0,0.0,0.0,0.0,0.0,0.0,0.0,0.0,0.0012949765659868717,0.002489787060767412,0.04274756461381912,0.0,0.0,0.0,0.0,0.0,0.0,0.0,0.0,0.0
1606987780902629123,1467476,1606984179812808993,imu_link,0.0023604880552738905,0.0006395008531399071,0.1913614720106125,-0.9815166592597961,0.0,0.0,0.0,0.0,0.0,0.0,0.0,0.0,0.0,-22.064287185668945,-0.12368875741958618,-0.25147050619125366,0.0,0.0,0.0,0.0,0.0,0.0,0.0,0.0,0.0,0.0012949765659868717,0.002489787060767412,0.04274756461381912,0.0,0.0,0.0,0.0,0.0,0.0,0.0,0.0,0.0
1606987780902636479,1467477,1606984179812894496,imu_link,0.0023597083054482937,0.0006384555017575622,0.19136029481887817,-0.9815167784690857,0.0,0.0,0.0,0.0,0.0,0.0,0.0,0.0,0.0,-22.06415367126465,-0.12355376780033112,-0.25140589475631714,0.0,0.0,0.0,0.0,0.0,0.0,0.0,0.0,0.0,0.005553885828703642,-0.024692576378583908,0.05315255746245384,0.0,0.0,0.0,0.0,0.0,0.0,0.0,0.0,0.0
1606987780902643373,1467478,1606984179812970587,imu_link,0.0023597083054482937,0.0006384555017575622,0.19136029481887817,-0.9815167784690857,0.0,0.0,0.0,0.0,0.0,0.0,0.0,0.0,0.0,-22.06415367126465,-0.12355376780033112,-0.25140589475631714,0.0,0.0,0.0,0.0,0.0,0.0,0.0,0.0,0.0,0.005553885828703642,-0.024692576378583908,0.05315255746245384,0.0,0.0,0.0,0.0,0.0,0.0,0.0,0.0,0.0
1606987780909905331,1467479,1606984179813080872,imu_link,0.002352981362491846,0.0006394889205694199,0.1913648545742035,-0.9815159440040588,0.0,0.0,0.0,0.0,0.0,0.0,0.0,0.0,0.0,-22.064687728881836,-0.12352366000413895,-0.2506260573863983,0.0,0.0,0.0,0.0,0.0,0.0,0.0,0.0,0.0,0.015717018395662308,-0.026405246928334236,0.04054533317685127,0.0,0.0,0.0,0.0,0.0,0.0,0.0,0.0,0.0
1606987780909927441,1467480,1606984179813166135,imu_link,0.002352981362491846,0.0006394889205694199,0.1913648545742035,-0.9815159440040588,0.0,0.0,0.0,0.0,0.0,0.0,0.0,0.0,0.0,-22.064687728881836,-0.12352366000413895,-0.2506260573863983,0.0,0.0,0.0,0.0,0.0,0.0,0.0,0.0,0.0,0.015717018395662308,-0.026405246928334236,0.04054533317685127,0.0,0.0,0.0,0.0,0.0,0.0,0.0,0.0,0.0
1606987780909983876,1467481,1606984179825555968,imu_link,0.0023523156996816397,0.0006385274464264512,0.1913638710975647,-0.9815161228179932,0.0,0.0,0.0,0.0,0.0,0.0,0.0,0.0,0.0,-22.064573287963867,-0.12340065836906433,-0.2505723834037781,0.0,0.0,0.0,0.0,0.0,0.0,0.0,0.0,0.0,0.00981113687157631,0.0019317944534122944,0.028142977505922318,0.0,0.0,0.0,0.0,0.0,0.0,0.0,0.0,0.0
1606987780909999628,1467482,1606984179825698844,imu_link,0.0023523156996816397,0.0006385274464264512,0.1913638710975647,-0.9815161228179932,0.0,0.0,0.0,0.0,0.0,0.0,0.0,0.0,0.0,-22.064573287963867,-0.12340065836906433,-0.2505723834037781,0.0,0.0,0.0,0.0,0.0,0.0,0.0,0.0,0.0,0.00981113687157631,0.0019317944534122944,0.028142977505922318,0.0,0.0,0.0,0.0,0.0,0.0,0.0,0.0,0.0
1606987780910013924,1467483,1606984179825845714,imu_link,0.0023538528475910425,0.0006368160247802734,0.19136229157447815,-0.9815164804458618,0.0,0.0,0.0,0.0,0.0,0.0,0.0,0.0,0.0,-22.064388275146484,-0.12324148416519165,-0.2507829964160919,0.0,0.0,0.0,0.0,0.0,0.0,0.0,0.0,0.0,-0.004730313550680876,0.008242369629442692,0.03043544664978981,0.0,0.0,0.0,0.0,0.0,0.0,0.0,0.0,0.0
1606987780990801590,1467484,1606984179825948206,imu_link,0.0023538528475910425,0.0006368160247802734,0.19136229157447815,-0.9815164804458618,0.0,0.0,0.0,0.0,0.0,0.0,0.0,0.0,0.0,-22.064388275146484,-0.12324148416519165,-0.2507829964160919,0.0,0.0,0.0,0.0,0.0,0.0,0.0,0.0,0.0,-0.004730313550680876,0.008242369629442692,0.03043544664978981,0.0,0.0,0.0,0.0,0.0,0.0,0.0,0.0,0.0
1606987780990825317,1467485,1606984179826026232,imu_link,0.0023547031451016665,0.0006374880904331803,0.19136232137680054,-0.981516420841217,0.0,0.0,0.0,0.0,0.0,0.0,0.0,0.0,0.0,-22.06439208984375,-0.12333571910858154,-0.2508639097213745,0.0,0.0,0.0,0.0,0.0,0.0,0.0,0.0,0.0,-0.01634802296757698,-0.0012940856395289302,0.025923997163772583,0.0,0.0,0.0,0.0,0.0,0.0,0.0,0.0,0.0
1606987780990834098,1467486,1606984179826106442,imu_link,0.0023547031451016665,0.0006374880904331803,0.19136232137680054,-0.981516420841217,0.0,0.0,0.0,0.0,0.0,0.0,0.0,0.0,0.0,-22.06439208984375,-0.12333571910858154,-0.2508639097213745,0.0,0.0,0.0,0.0,0.0,0.0,0.0,0.0,0.0,-0.01634802296757698,-0.0012940856395289302,0.025923997163772583,0.0,0.0,0.0,0.0,0.0,0.0,0.0,0.0,0.0
1606987780990853796,1467487,1606984179826207757,imu_link,0.0023542221169918776,0.0006394507363438606,0.19136232137680054,-0.981516420841217,0.0,0.0,0.0,0.0,0.0,0.0,0.0,0.0,0.0,-22.06439208984375,-0.12354592233896255,-0.250766783952713,0.0,0.0,0.0,0.0,0.0,0.0,0.0,0.0,0.0,-0.00354603654704988,-2.59467342402786e-05,0.02150646783411503,0.0,0.0,0.0,0.0,0.0,0.0,0.0,0.0,0.0
1606987780997162006,1467488,1606984179826288759,imu_link,0.0023542221169918776,0.0006394507363438606,0.19136232137680054,-0.981516420841217,0.0,0.0,0.0,0.0,0.0,0.0,0.0,0.0,0.0,-22.06439208984375,-0.12354592233896255,-0.250766783952713,0.0,0.0,0.0,0.0,0.0,0.0,0.0,0.0,0.0,-0.00354603654704988,-2.59467342402786e-05,0.02150646783411503,0.0,0.0,0.0,0.0,0.0,0.0,0.0,0.0,0.0
1606987780997184713,1467489,1606984179826452879,imu_link,0.0023536013904958963,0.0006395638338290155,0.19136154651641846,-0.9815165996551514,0.0,0.0,0.0,0.0,0.0,0.0,0.0,0.0,0.0,-22.064300537109375,-0.12354482710361481,-0.25069454312324524,0.0,0.0,0.0,0.0,0.0,0.0,0.0,0.0,0.0,0.0075301239266991615,-0.0032726305071264505,0.021420694887638092,0.0,0.0,0.0,0.0,0.0,0.0,0.0,0.0,0.0
1606987780997193942,1467490,1606984179826536362,imu_link,0.0023536013904958963,0.0006395638338290155,0.19136154651641846,-0.9815165996551514,0.0,0.0,0.0,0.0,0.0,0.0,0.0,0.0,0.0,-22.064300537109375,-0.12354482710361481,-0.25069454312324524,0.0,0.0,0.0,0.0,0.0,0.0,0.0,0.0,0.0,0.0075301239266991615,-0.0032726305071264505,0.021420694887638092,0.0,0.0,0.0,0.0,0.0,0.0,0.0,0.0,0.0
1606987780997202620,1467491,1606984179826621494,imu_link,0.002351762494072318,0.0006398138939402997,0.191361203789711,-0.9815166592597961,0.0,0.0,0.0,0.0,0.0,0.0,0.0,0.0,0.0,-22.064260482788086,-0.12353255599737167,-0.2504822909832001,0.0,0.0,0.0,0.0,0.0,0.0,0.0,0.0,0.0,0.007214400451630354,0.005903839599341154,0.017256706953048706,0.0,0.0,0.0,0.0,0.0,0.0,0.0,0.0,0.0
1606987781010829015,1467492,1606984179839388020,imu_link,0.002351762494072318,0.0006398138939402997,0.191361203789711,-0.9815166592597961,0.0,0.0,0.0,0.0,0.0,0.0,0.0,0.0,0.0,-22.064260482788086,-0.12353255599737167,-0.2504822909832001,0.0,0.0,0.0,0.0,0.0,0.0,0.0,0.0,0.0,0.007214400451630354,0.005903839599341154,0.017256706953048706,0.0,0.0,0.0,0.0,0.0,0.0,0.0,0.0,0.0
1606987781010854917,1467493,1606984179839526766,imu_link,0.002352479612454772,0.0006410339847207069,0.19136227667331696,-0.9815164804458618,0.0,0.0,0.0,0.0,0.0,0.0,0.0,0.0,0.0,-22.06438636779785,-0.12368578463792801,-0.25053608417510986,0.0,0.0,0.0,0.0,0.0,0.0,0.0,0.0,0.0,0.002087225206196308,0.016508987173438072,0.042670734226703644,0.0,0.0,0.0,0.0,0.0,0.0,0.0,0.0,0.0
1606987781010875708,1467494,1606984179839682717,imu_link,0.002352479612454772,0.0006410339847207069,0.19136227667331696,-0.9815164804458618,0.0,0.0,0.0,0.0,0.0,0.0,0.0,0.0,0.0,-22.06438636779785,-0.12368578463792801,-0.25053608417510986,0.0,0.0,0.0,0.0,0.0,0.0,0.0,0.0,0.0,0.002087225206196308,0.016508987173438072,0.042670734226703644,0.0,0.0,0.0,0.0,0.0,0.0,0.0,0.0,0.0
1606987781010886801,1467495,1606984179839777927,imu_link,0.002355472883209586,0.0006368554313667119,0.19136174023151398,-0.9815165996551514,0.0,0.0,0.0,0.0,0.0,0.0,0.0,0.0,0.0,-22.064321517944336,-0.12328129261732101,-0.2509644031524658,0.0,0.0,0.0,0.0,0.0,0.0,0.0,0.0,0.0,-0.007852435111999512,0.006183714605867863,0.02043473720550537,0.0,0.0,0.0,0.0,0.0,0.0,0.0,0.0,0.0
1606987781010901570,1467496,1606984179839860263,imu_link,0.002355472883209586,0.0006368554313667119,0.19136174023151398,-0.9815165996551514,0.0,0.0,0.0,0.0,0.0,0.0,0.0,0.0,0.0,-22.064321517944336,-0.12328129261732101,-0.2509644031524658,0.0,0.0,0.0,0.0,0.0,0.0,0.0,0.0,0.0,-0.007852435111999512,0.006183714605867863,0.02043473720550537,0.0,0.0,0.0,0.0,0.0,0.0,0.0,0.0,0.0
1606987781014711611,1467497,1606984179839944768,imu_link,0.0023549103643745184,0.0006345484289340675,0.1913605034351349,-0.9815168380737305,0.0,0.0,0.0,0.0,0.0,0.0,0.0,0.0,0.0,-22.064178466796875,-0.12300918251276016,-0.250951886177063,0.0,0.0,0.0,0.0,0.0,0.0,0.0,0.0,0.0,-0.003178850281983614,0.003220119746401906,-0.004583465866744518,0.0,0.0,0.0,0.0,0.0,0.0,0.0,0.0,0.0
1606987781014735945,1467498,1606984179840045046,imu_link,0.0023549103643745184,0.0006345484289340675,0.1913605034351349,-0.9815168380737305,0.0,0.0,0.0,0.0,0.0,0.0,0.0,0.0,0.0,-22.064178466796875,-0.12300918251276016,-0.250951886177063,0.0,0.0,0.0,0.0,0.0,0.0,0.0,0.0,0.0,-0.003178850281983614,0.003220119746401906,-0.004583465866744518,0.0,0.0,0.0,0.0,0.0,0.0,0.0,0.0,0.0
1606987781014753924,1467499,1606984179840126018,imu_link,0.0023571564815938473,0.0006350016919896007,0.19135881960391998,-0.9815171360969543,0.0,0.0,0.0,0.0,0.0,0.0,0.0,0.0,0.0,-22.063983917236328,-0.12310897558927536,-0.2511948049068451,0.0,0.0,0.0,0.0,0.0,0.0,0.0,0.0,0.0,-0.0021048295311629772,0.00458324933424592,0.018813177943229675,0.0,0.0,0.0,0.0,0.0,0.0,0.0,0.0,0.0
1606987781014789112,1467500,1606984179840288950,imu_link,0.0023571564815938473,0.0006350016919896007,0.19135881960391998,-0.9815171360969543,0.0,0.0,0.0,0.0,0.0,0.0,0.0,0.0,0.0,-22.063983917236328,-0.12310897558927536,-0.2511948049068451,0.0,0.0,0.0,0.0,0.0,0.0,0.0,0.0,0.0,-0.0021048295311629772,0.00458324933424592,0.018813177943229675,0.0,0.0,0.0,0.0,0.0,0.0,0.0,0.0,0.0
1606987781074062404,1467501,1606984179840372433,imu_link,0.0023571066558361053,0.0006344558205455542,0.19135785102844238,-0.9815173149108887,0.0,0.0,0.0,0.0,0.0,0.0,0.0,0.0,0.0,-22.063871383666992,-0.12304624170064926,-0.2512013018131256,0.0,0.0,0.0,0.0,0.0,0.0,0.0,0.0,0.0,-0.018905382603406906,0.003693734295666218,0.04538261517882347,0.0,0.0,0.0,0.0,0.0,0.0,0.0,0.0,0.0
1606987781074077299,1467502,1606984179840455916,imu_link,0.0023571066558361053,0.0006344558205455542,0.19135785102844238,-0.9815173149108887,0.0,0.0,0.0,0.0,0.0,0.0,0.0,0.0,0.0,-22.063871383666992,-0.12304624170064926,-0.2512013018131256,0.0,0.0,0.0,0.0,0.0,0.0,0.0,0.0,0.0,-0.018905382603406906,0.003693734295666218,0.04538261517882347,0.0,0.0,0.0,0.0,0.0,0.0,0.0,0.0,0.0
1606987781074095412,1467503,1606984179852895460,imu_link,0.002359366277232766,0.0006379693513736129,0.1913575530052185,-0.9815173745155334,0.0,0.0,0.0,0.0,0.0,0.0,0.0,0.0,0.0,-22.063831329345703,-0.12349089235067368,-0.2513784170150757,0.0,0.0,0.0,0.0,0.0,0.0,0.0,0.0,0.0,-0.025477880612015724,0.0037543531507253647,0.027587126940488815,0.0,0.0,0.0,0.0,0.0,0.0,0.0,0.0,0.0
1606987781074107380,1467504,1606984179853041067,imu_link,0.002359366277232766,0.0006379693513736129,0.1913575530052185,-0.9815173745155334,0.0,0.0,0.0,0.0,0.0,0.0,0.0,0.0,0.0,-22.063831329345703,-0.12349089235067368,-0.2513784170150757,0.0,0.0,0.0,0.0,0.0,0.0,0.0,0.0,0.0,-0.025477880612015724,0.0037543531507253647,0.027587126940488815,0.0,0.0,0.0,0.0,0.0,0.0,0.0,0.0,0.0
1606987781074119008,1467505,1606984179853179137,imu_link,0.0023588533513247967,0.0006389592890627682,0.19135677814483643,-0.981517493724823,0.0,0.0,0.0,0.0,0.0,0.0,0.0,0.0,0.0,-22.063745498657227,-0.12359078228473663,-0.2512991726398468,0.0,0.0,0.0,0.0,0.0,0.0,0.0,0.0,0.0,-0.010840666480362415,0.0037032542750239372,0.012497623451054096,0.0,0.0,0.0,0.0,0.0,0.0,0.0,0.0,0.0
1606987781077236995,1467506,1606984179853268529,imu_link,0.0023588533513247967,0.0006389592890627682,0.19135677814483643,-0.981517493724823,0.0,0.0,0.0,0.0,0.0,0.0,0.0,0.0,0.0,-22.063745498657227,-0.12359078228473663,-0.2512991726398468,0.0,0.0,0.0,0.0,0.0,0.0,0.0,0.0,0.0,-0.010840666480362415,0.0037032542750239372,0.012497623451054096,0.0,0.0,0.0,0.0,0.0,0.0,0.0,0.0,0.0
1606987781077247315,1467507,1606984179853350448,imu_link,0.002360326936468482,0.0006415181560441852,0.19135284423828125,-0.9815182685852051,0.0,0.0,0.0,0.0,0.0,0.0,0.0,0.0,0.0,-22.06328010559082,-0.12390989810228348,-0.25140926241874695,0.0,0.0,0.0,0.0,0.0,0.0,0.0,0.0,0.0,0.0022646805737167597,0.0069175343960523605,0.02371596358716488,0.0,0.0,0.0,0.0,0.0,0.0,0.0,0.0,0.0
1606987781077266610,1467508,1606984179853447117,imu_link,0.002360326936468482,0.0006415181560441852,0.19135284423828125,-0.9815182685852051,0.0,0.0,0.0,0.0,0.0,0.0,0.0,0.0,0.0,-22.06328010559082,-0.12390989810228348,-0.25140926241874695,0.0,0.0,0.0,0.0,0.0,0.0,0.0,0.0,0.0,0.0022646805737167597,0.0069175343960523605,0.02371596358716488,0.0,0.0,0.0,0.0,0.0,0.0,0.0,0.0,0.0
1606987781077282499,1467509,1606984179853530274,imu_link,0.002361926017329097,0.0006427058251574636,0.19135203957557678,-0.9815184473991394,0.0,0.0,0.0,0.0,0.0,0.0,0.0,0.0,0.0,-22.063188552856445,-0.12407833337783813,-0.251563161611557,0.0,0.0,0.0,0.0,0.0,0.0,0.0,0.0,0.0,-0.0036526601761579514,-0.019221972674131393,0.018635781481862068,0.0,0.0,0.0,0.0,0.0,0.0,0.0,0.0,0.0
1606987781086114853,1467510,1606984179853610961,imu_link,0.002361926017329097,0.0006427058251574636,0.19135203957557678,-0.9815184473991394,0.0,0.0,0.0,0.0,0.0,0.0,0.0,0.0,0.0,-22.063188552856445,-0.12407833337783813,-0.251563161611557,0.0,0.0,0.0,0.0,0.0,0.0,0.0,0.0,0.0,-0.0036526601761579514,-0.019221972674131393,0.018635781481862068,0.0,0.0,0.0,0.0,0.0,0.0,0.0,0.0,0.0
1606987781086132889,1467511,1606984179853691843,imu_link,0.0023562596179544926,0.0006449652137234807,0.19135206937789917,-0.9815184473991394,0.0,0.0,0.0,0.0,0.0,0.0,0.0,0.0,0.0,-22.063194274902344,-0.1242082267999649,-0.2508763372898102,0.0,0.0,0.0,0.0,0.0,0.0,0.0,0.0,0.0,-0.0019230933394283056,-0.031095828860998154,0.056712452322244644,0.0,0.0,0.0,0.0,0.0,0.0,0.0,0.0,0.0
1606987781086146132,1467512,1606984179853774735,imu_link,0.0023562596179544926,0.0006449652137234807,0.19135206937789917,-0.9815184473991394,0.0,0.0,0.0,0.0,0.0,0.0,0.0,0.0,0.0,-22.063194274902344,-0.1242082267999649,-0.2508763372898102,0.0,0.0,0.0,0.0,0.0,0.0,0.0,0.0,0.0,-0.0019230933394283056,-0.031095828860998154,0.056712452322244644,0.0,0.0,0.0,0.0,0.0,0.0,0.0,0.0,0.0
1606987781086156261,1467513,1606984179853858168,imu_link,0.002356166485697031,0.0006464877515099943,0.19135329127311707,-0.9815182089805603,0.0,0.0,0.0,0.0,0.0,0.0,0.0,0.0,0.0,-22.063335418701172,-0.12437773495912552,-0.25083231925964355,0.0,0.0,0.0,0.0,0.0,0.0,0.0,0.0,0.0,-0.0016766468761488795,-0.003559435484930873,0.054354824125766754,0.0,0.0,0.0,0.0,0.0,0.0,0.0,0.0,0.0
1606987781086162025,1467514,1606984179865727593,imu_link,0.002356166485697031,0.0006464877515099943,0.19135329127311707,-0.9815182089805603,0.0,0.0,0.0,0.0,0.0,0.0,0.0,0.0,0.0,-22.063335418701172,-0.12437773495912552,-0.25083231925964355,0.0,0.0,0.0,0.0,0.0,0.0,0.0,0.0,0.0,-0.0016766468761488795,-0.003559435484930873,0.054354824125766754,0.0,0.0,0.0,0.0,0.0,0.0,0.0,0.0,0.0
1606987781092109930,1467515,1606984179865873114,imu_link,0.0023555115330964327,0.0006469340878538787,0.19135411083698273,-0.981518030166626,0.0,0.0,0.0,0.0,0.0,0.0,0.0,0.0,0.0,-22.063432693481445,-0.12441378086805344,-0.25074875354766846,0.0,0.0,0.0,0.0,0.0,0.0,0.0,0.0,0.0,-0.014364167116582394,0.005821450613439083,0.02779175527393818,0.0,0.0,0.0,0.0,0.0,0.0,0.0,0.0,0.0
1606987781092132752,1467516,1606984179865999457,imu_link,0.0023555115330964327,0.0006469340878538787,0.19135411083698273,-0.981518030166626,0.0,0.0,0.0,0.0,0.0,0.0,0.0,0.0,0.0,-22.063432693481445,-0.12441378086805344,-0.25074875354766846,0.0,0.0,0.0,0.0,0.0,0.0,0.0,0.0,0.0,-0.014364167116582394,0.005821450613439083,0.02779175527393818,0.0,0.0,0.0,0.0,0.0,0.0,0.0,0.0,0.0
1606987781092147814,1467517,1606984179866085681,imu_link,0.0023539091926068068,0.0006477672723121941,0.1913534551858902,-0.9815181493759155,0.0,0.0,0.0,0.0,0.0,0.0,0.0,0.0,0.0,-22.0633544921875,-0.12447218596935272,-0.2505503296852112,0.0,0.0,0.0,0.0,0.0,0.0,0.0,0.0,0.0,0.0009321508696302772,0.002493706066161394,0.03921394795179367,0.0,0.0,0.0,0.0,0.0,0.0,0.0,0.0,0.0
1606987781092156282,1467518,1606984179866167376,imu_link,0.0023539091926068068,0.0006477672723121941,0.1913534551858902,-0.9815181493759155,0.0,0.0,0.0,0.0,0.0,0.0,0.0,0.0,0.0,-22.0633544921875,-0.12447218596935272,-0.2505503296852112,0.0,0.0,0.0,0.0,0.0,0.0,0.0,0.0,0.0,0.0009321508696302772,0.002493706066161394,0.03921394795179367,0.0,0.0,0.0,0.0,0.0,0.0,0.0,0.0,0.0
1606987781120420368,1467519,1606984179866278708,imu_link,0.0023544831201434135,0.0006475179106928408,0.19135427474975586,-0.981518030166626,0.0,0.0,0.0,0.0,0.0,0.0,0.0,0.0,0.0,-22.06344985961914,-0.12445694208145142,-0.2506202161312103,0.0,0.0,0.0,0.0,0.0,0.0,0.0,0.0,0.0,0.003537219250574708,0.006884528324007988,0.03632829338312149,0.0,0.0,0.0,0.0,0.0,0.0,0.0,0.0,0.0
1606987781120454856,1467520,1606984179866361705,imu_link,0.0023544831201434135,0.0006475179106928408,0.19135427474975586,-0.981518030166626,0.0,0.0,0.0,0.0,0.0,0.0,0.0,0.0,0.0,-22.06344985961914,-0.12445694208145142,-0.2506202161312103,0.0,0.0,0.0,0.0,0.0,0.0,0.0,0.0,0.0,0.003537219250574708,0.006884528324007988,0.03632829338312149,0.0,0.0,0.0,0.0,0.0,0.0,0.0,0.0,0.0
1606987781120480393,1467521,1606984179866533608,imu_link,0.0023544831201434135,0.0006475179106928408,0.19135427474975586,-0.981518030166626,0.0,0.0,0.0,0.0,0.0,0.0,0.0,0.0,0.0,-22.06344985961914,-0.12445694208145142,-0.2506202161312103,0.0,0.0,0.0,0.0,0.0,0.0,0.0,0.0,0.0,0.0007138053188100457,0.016290847212076187,0.024950416758656502,0.0,0.0,0.0,0.0,0.0,0.0,0.0,0.0,0.0
1606987781120528366,1467522,1606984179866615673,imu_link,0.0023544831201434135,0.0006475179106928408,0.19135427474975586,-0.981518030166626,0.0,0.0,0.0,0.0,0.0,0.0,0.0,0.0,0.0,-22.06344985961914,-0.12445694208145142,-0.2506202161312103,0.0,0.0,0.0,0.0,0.0,0.0,0.0,0.0,0.0,0.0007138053188100457,0.016290847212076187,0.024950416758656502,0.0,0.0,0.0,0.0,0.0,0.0,0.0,0.0,0.0
1606987781120547811,1467523,1606984179866774987,imu_link,0.002356822369620204,0.0006460680160671473,0.19136016070842743,-0.9815168380737305,0.0,0.0,0.0,0.0,0.0,0.0,0.0,0.0,0.0,-22.064138412475586,-0.12434666603803635,-0.25091439485549927,0.0,0.0,0.0,0.0,0.0,0.0,0.0,0.0,0.0,0.013314795680344105,0.009178977459669113,0.034565240144729614,0.0,0.0,0.0,0.0,0.0,0.0,0.0,0.0,0.0
1606987781129542674,1467524,1606984179879493481,imu_link,0.002356822369620204,0.0006460680160671473,0.19136016070842743,-0.9815168380737305,0.0,0.0,0.0,0.0,0.0,0.0,0.0,0.0,0.0,-22.064138412475586,-0.12434666603803635,-0.25091439485549927,0.0,0.0,0.0,0.0,0.0,0.0,0.0,0.0,0.0,0.013314795680344105,0.009178977459669113,0.034565240144729614,0.0,0.0,0.0,0.0,0.0,0.0,0.0,0.0,0.0
1606987781129572573,1467525,1606984179879633430,imu_link,0.0023576924577355385,0.0006450552609749138,0.1913595050573349,-0.9815170168876648,0.0,0.0,0.0,0.0,0.0,0.0,0.0,0.0,0.0,-22.06406021118164,-0.12425165623426437,-0.25103455781936646,0.0,0.0,0.0,0.0,0.0,0.0,0.0,0.0,0.0,0.013773227110505104,-0.011758506298065186,0.0657029002904892,0.0,0.0,0.0,0.0,0.0,0.0,0.0,0.0,0.0
1606987781129614964,1467526,1606984179879772848,imu_link,0.0023576924577355385,0.0006450552609749138,0.1913595050573349,-0.9815170168876648,0.0,0.0,0.0,0.0,0.0,0.0,0.0,0.0,0.0,-22.06406021118164,-0.12425165623426437,-0.25103455781936646,0.0,0.0,0.0,0.0,0.0,0.0,0.0,0.0,0.0,0.013773227110505104,-0.011758506298065186,0.0657029002904892,0.0,0.0,0.0,0.0,0.0,0.0,0.0,0.0,0.0
1606987781129636962,1467527,1606984179879872393,imu_link,0.0023549406323581934,0.0006407086621038616,0.19136789441108704,-0.9815154075622559,0.0,0.0,0.0,0.0,0.0,0.0,0.0,0.0,0.0,-22.06504249572754,-0.12370458990335464,-0.25081929564476013,0.0,0.0,0.0,0.0,0.0,0.0,0.0,0.0,0.0,0.004904388450086117,-0.006014000624418259,0.06661331653594971,0.0,0.0,0.0,0.0,0.0,0.0,0.0,0.0,0.0
1606987781137630941,1467528,1606984179879955761,imu_link,0.0023549406323581934,0.0006407086621038616,0.19136789441108704,-0.9815154075622559,0.0,0.0,0.0,0.0,0.0,0.0,0.0,0.0,0.0,-22.06504249572754,-0.12370458990335464,-0.25081929564476013,0.0,0.0,0.0,0.0,0.0,0.0,0.0,0.0,0.0,0.004904388450086117,-0.006014000624418259,0.06661331653594971,0.0,0.0,0.0,0.0,0.0,0.0,0.0,0.0,0.0
1606987781137676364,1467529,1606984179880043684,imu_link,0.0023541401606053114,0.0006414162344299257,0.19136716425418854,-0.9815155863761902,0.0,0.0,0.0,0.0,0.0,0.0,0.0,0.0,0.0,-22.06495475769043,-0.12376643717288971,-0.2507138252258301,0.0,0.0,0.0,0.0,0.0,0.0,0.0,0.0,0.0,1.5222452930174768e-05,0.001169709488749504,0.05868060514330864,0.0,0.0,0.0,0.0,0.0,0.0,0.0,0.0,0.0
1606987781137709096,1467530,1606984179880143741,imu_link,0.0023541401606053114,0.0006414162344299257,0.19136716425418854,-0.9815155863761902,0.0,0.0,0.0,0.0,0.0,0.0,0.0,0.0,0.0,-22.06495475769043,-0.12376643717288971,-0.2507138252258301,0.0,0.0,0.0,0.0,0.0,0.0,0.0,0.0,0.0,1.5222452930174768e-05,0.001169709488749504,0.05868060514330864,0.0,0.0,0.0,0.0,0.0,0.0,0.0,0.0,0.0
1606987781137721322,1467531,1606984179880225139,imu_link,0.002355505945160985,0.00063933344790712,0.19136610627174377,-0.9815157651901245,0.0,0.0,0.0,0.0,0.0,0.0,0.0,0.0,0.0,-22.06483268737793,-0.12356185168027878,-0.25091326236724854,0.0,0.0,0.0,0.0,0.0,0.0,0.0,0.0,0.0,-0.0031873222906142473,0.0020721005275845528,0.03211510181427002,0.0,0.0,0.0,0.0,0.0,0.0,0.0,0.0,0.0
1606987781137737358,1467532,1606984179880307139,imu_link,0.002355505945160985,0.00063933344790712,0.19136610627174377,-0.9815157651901245,0.0,0.0,0.0,0.0,0.0,0.0,0.0,0.0,0.0,-22.06483268737793,-0.12356185168027878,-0.25091326236724854,0.0,0.0,0.0,0.0,0.0,0.0,0.0,0.0,0.0,-0.0031873222906142473,0.0020721005275845528,0.03211510181427002,0.0,0.0,0.0,0.0,0.0,0.0,0.0,0.0,0.0
1606987781169893069,1467533,1606984179880390226,imu_link,0.0023557059466838837,0.0006395394448190928,0.191365584731102,-0.9815158843994141,0.0,0.0,0.0,0.0,0.0,0.0,0.0,0.0,0.0,-22.06477165222168,-0.12358927726745605,-0.2509312927722931,0.0,0.0,0.0,0.0,0.0,0.0,0.0,0.0,0.0,-0.011076762340962887,0.004143307451158762,0.002561677247285843,0.0,0.0,0.0,0.0,0.0,0.0,0.0,0.0,0.0
1606987781169925357,1467534,1606984179880472592,imu_link,0.0023557059466838837,0.0006395394448190928,0.191365584731102,-0.9815158843994141,0.0,0.0,0.0,0.0,0.0,0.0,0.0,0.0,0.0,-22.06477165222168,-0.12358927726745605,-0.2509312927722931,0.0,0.0,0.0,0.0,0.0,0.0,0.0,0.0,0.0,-0.011076762340962887,0.004143307451158762,0.002561677247285843,0.0,0.0,0.0,0.0,0.0,0.0,0.0,0.0,0.0
1606987781169965446,1467535,1606984179893033587,imu_link,0.002356486162170768,0.0006401293212547898,0.19136512279510498,-0.9815159440040588,0.0,0.0,0.0,0.0,0.0,0.0,0.0,0.0,0.0,-22.064716339111328,-0.12367261201143265,-0.251006156206131,0.0,0.0,0.0,0.0,0.0,0.0,0.0,0.0,0.0,0.002071225782856345,-0.005844213534146547,0.013272888958454132,0.0,0.0,0.0,0.0,0.0,0.0,0.0,0.0,0.0
1606987781169986502,1467536,1606984179893175180,imu_link,0.002356486162170768,0.0006401293212547898,0.19136512279510498,-0.9815159440040588,0.0,0.0,0.0,0.0,0.0,0.0,0.0,0.0,0.0,-22.064716339111328,-0.12367261201143265,-0.251006156206131,0.0,0.0,0.0,0.0,0.0,0.0,0.0,0.0,0.0,0.002071225782856345,-0.005844213534146547,0.013272888958454132,0.0,0.0,0.0,0.0,0.0,0.0,0.0,0.0,0.0
1606987781232738559,1467537,1606984179893278444,imu_link,0.002357759512960911,0.0006401619757525623,0.19136615097522736,-0.9815157651901245,0.0,0.0,0.0,0.0,0.0,0.0,0.0,0.0,0.0,-22.064838409423828,-0.1237044706940651,-0.2511485517024994,0.0,0.0,0.0,0.0,0.0,0.0,0.0,0.0,0.0,0.028344018384814262,-0.009075426496565342,0.014496137388050556,0.0,0.0,0.0,0.0,0.0,0.0,0.0,0.0,0.0
1606987781232763226,1467538,1606984179893366497,imu_link,0.002357759512960911,0.0006401619757525623,0.19136615097522736,-0.9815157651901245,0.0,0.0,0.0,0.0,0.0,0.0,0.0,0.0,0.0,-22.064838409423828,-0.1237044706940651,-0.2511485517024994,0.0,0.0,0.0,0.0,0.0,0.0,0.0,0.0,0.0,0.028344018384814262,-0.009075426496565342,0.014496137388050556,0.0,0.0,0.0,0.0,0.0,0.0,0.0,0.0,0.0
1606987781232771597,1467539,1606984179893460826,imu_link,0.0023555567022413015,0.0006353632779791951,0.19136656820774078,-0.981515645980835,0.0,0.0,0.0,0.0,0.0,0.0,0.0,0.0,0.0,-22.064889907836914,-0.12311653792858124,-0.25100600719451904,0.0,0.0,0.0,0.0,0.0,0.0,0.0,0.0,0.0,0.02944483794271946,-0.0026602279394865036,0.01779809780418873,0.0,0.0,0.0,0.0,0.0,0.0,0.0,0.0,0.0
1606987781232786415,1467540,1606984179893542780,imu_link,0.0023555567022413015,0.0006353632779791951,0.19136656820774078,-0.981515645980835,0.0,0.0,0.0,0.0,0.0,0.0,0.0,0.0,0.0,-22.064889907836914,-0.12311653792858124,-0.25100600719451904,0.0,0.0,0.0,0.0,0.0,0.0,0.0,0.0,0.0,0.02944483794271946,-0.0026602279394865036,0.01779809780418873,0.0,0.0,0.0,0.0,0.0,0.0,0.0,0.0,0.0
1606987781232799281,1467541,1606984179893645769,imu_link,0.0023557888343930244,0.0006350650801323354,0.1913665235042572,-0.981515645980835,0.0,0.0,0.0,0.0,0.0,0.0,0.0,0.0,0.0,-22.064884185791016,-0.12308808416128159,-0.25103864073753357,0.0,0.0,0.0,0.0,0.0,0.0,0.0,0.0,0.0,0.010880950838327408,0.018818022683262825,0.027964871376752853,0.0,0.0,0.0,0.0,0.0,0.0,0.0,0.0,0.0
1606987781239256719,1467542,1606984179893726516,imu_link,0.0023557888343930244,0.0006350650801323354,0.1913665235042572,-0.981515645980835,0.0,0.0,0.0,0.0,0.0,0.0,0.0,0.0,0.0,-22.064884185791016,-0.12308808416128159,-0.25103864073753357,0.0,0.0,0.0,0.0,0.0,0.0,0.0,0.0,0.0,0.010880950838327408,0.018818022683262825,0.027964871376752853,0.0,0.0,0.0,0.0,0.0,0.0,0.0,0.0,0.0
1606987781239276477,1467543,1606984179893809197,imu_link,0.0023591183125972748,0.0006337580853141844,0.19136641919612885,-0.9815157055854797,0.0,0.0,0.0,0.0,0.0,0.0,0.0,0.0,0.0,-22.064870834350586,-0.12301407754421234,-0.25144174695014954,0.0,0.0,0.0,0.0,0.0,0.0,0.0,0.0,0.0,0.009323498234152794,0.023936012759804726,0.049047257751226425,0.0,0.0,0.0,0.0,0.0,0.0,0.0,0.0,0.0
1606987781239300509,1467544,1606984179893888155,imu_link,0.0023591183125972748,0.0006337580853141844,0.19136641919612885,-0.9815157055854797,0.0,0.0,0.0,0.0,0.0,0.0,0.0,0.0,0.0,-22.064870834350586,-0.12301407754421234,-0.25144174695014954,0.0,0.0,0.0,0.0,0.0,0.0,0.0,0.0,0.0,0.009323498234152794,0.023936012759804726,0.049047257751226425,0.0,0.0,0.0,0.0,0.0,0.0,0.0,0.0,0.0
1606987781239308420,1467545,1606984179893976970,imu_link,0.0023575457744300365,0.0006351897027343512,0.19136707484722137,-0.9815155863761902,0.0,0.0,0.0,0.0,0.0,0.0,0.0,0.0,0.0,-22.064945220947266,-0.12314076721668243,-0.25123345851898193,0.0,0.0,0.0,0.0,0.0,0.0,0.0,0.0,0.0,0.010711283423006535,0.014025545679032803,0.05362226814031601,0.0,0.0,0.0,0.0,0.0,0.0,0.0,0.0,0.0
1606987781244881487,1467546,1606984179907058370,imu_link,0.0023575457744300365,0.0006351897027343512,0.19136707484722137,-0.9815155863761902,0.0,0.0,0.0,0.0,0.0,0.0,0.0,0.0,0.0,-22.064945220947266,-0.12314076721668243,-0.25123345851898193,0.0,0.0,0.0,0.0,0.0,0.0,0.0,0.0,0.0,0.010711283423006535,0.014025545679032803,0.05362226814031601,0.0,0.0,0.0,0.0,0.0,0.0,0.0,0.0,0.0
1606987781244914141,1467547,1606984179907197381,imu_link,0.0023578794207423925,0.000631377100944519,0.19136588275432587,-0.9815158247947693,0.0,0.0,0.0,0.0,0.0,0.0,0.0,0.0,0.0,-22.064807891845703,-0.12271897494792938,-0.25135472416877747,0.0,0.0,0.0,0.0,0.0,0.0,0.0,0.0,0.0,-0.0017063095001503825,0.012908506207168102,0.04086754471063614,0.0,0.0,0.0,0.0,0.0,0.0,0.0,0.0,0.0
1606987781244925869,1467548,1606984179907283065,imu_link,0.0023578794207423925,0.000631377100944519,0.19136588275432587,-0.9815158247947693,0.0,0.0,0.0,0.0,0.0,0.0,0.0,0.0,0.0,-22.064807891845703,-0.12271897494792938,-0.25135472416877747,0.0,0.0,0.0,0.0,0.0,0.0,0.0,0.0,0.0,-0.0017063095001503825,0.012908506207168102,0.04086754471063614,0.0,0.0,0.0,0.0,0.0,0.0,0.0,0.0,0.0
1606987781244942919,1467549,1606984179907365350,imu_link,0.0023586314637213945,0.00063284084899351,0.1913652867078781,-0.9815158247947693,0.0,0.0,0.0,0.0,0.0,0.0,0.0,0.0,0.0,-22.064741134643555,-0.12289993464946747,-0.25140729546546936,0.0,0.0,0.0,0.0,0.0,0.0,0.0,0.0,0.0,0.003408951684832573,0.0072055840864777565,0.05063735321164131,0.0,0.0,0.0,0.0,0.0,0.0,0.0,0.0,0.0
1606987781244960933,1467550,1606984179907446653,imu_link,0.0023586314637213945,0.00063284084899351,0.1913652867078781,-0.9815158247947693,0.0,0.0,0.0,0.0,0.0,0.0,0.0,0.0,0.0,-22.064741134643555,-0.12289993464946747,-0.25140729546546936,0.0,0.0,0.0,0.0,0.0,0.0,0.0,0.0,0.0,0.003408951684832573,0.0072055840864777565,0.05063735321164131,0.0,0.0,0.0,0.0,0.0,0.0,0.0,0.0,0.0
1606987781257520071,1467551,1606984179907548444,imu_link,0.0023587800096720457,0.0006314755883067846,0.19136369228363037,-0.9815161824226379,0.0,0.0,0.0,0.0,0.0,0.0,0.0,0.0,0.0,-22.064550399780273,-0.12274923175573349,-0.25145411491394043,0.0,0.0,0.0,0.0,0.0,0.0,0.0,0.0,0.0,-0.008440479636192322,0.015008743852376938,0.05398722365498543,0.0,0.0,0.0,0.0,0.0,0.0,0.0,0.0,0.0
1606987781257547266,1467552,1606984179907630634,imu_link,0.0023587800096720457,0.0006314755883067846,0.19136369228363037,-0.9815161824226379,0.0,0.0,0.0,0.0,0.0,0.0,0.0,0.0,0.0,-22.064550399780273,-0.12274923175573349,-0.25145411491394043,0.0,0.0,0.0,0.0,0.0,0.0,0.0,0.0,0.0,-0.008440479636192322,0.015008743852376938,0.05398722365498543,0.0,0.0,0.0,0.0,0.0,0.0,0.0,0.0,0.0
1606987781257568706,1467553,1606984179907714704,imu_link,0.0023576354142278433,0.0006320044631138444,0.19136349856853485,-0.9815162420272827,0.0,0.0,0.0,0.0,0.0,0.0,0.0,0.0,0.0,-22.06452751159668,-0.12278357148170471,-0.25131380558013916,0.0,0.0,0.0,0.0,0.0,0.0,0.0,0.0,0.0,-0.016069181263446808,0.005903094075620174,0.048602934926748276,0.0,0.0,0.0,0.0,0.0,0.0,0.0,0.0,0.0
1606987781257577364,1467554,1606984179907798372,imu_link,0.0023576354142278433,0.0006320044631138444,0.19136349856853485,-0.9815162420272827,0.0,0.0,0.0,0.0,0.0,0.0,0.0,0.0,0.0,-22.06452751159668,-0.12278357148170471,-0.25131380558013916,0.0,0.0,0.0,0.0,0.0,0.0,0.0,0.0,0.0,-0.016069181263446808,0.005903094075620174,0.048602934926748276,0.0,0.0,0.0,0.0,0.0,0.0,0.0,0.0,0.0
1606987781266409505,1467555,1606984179907878282,imu_link,0.0023600689601153135,0.000634203664958477,0.19136802852153778,-0.9815153479576111,0.0,0.0,0.0,0.0,0.0,0.0,0.0,0.0,0.0,-22.0650577545166,-0.12308544665575027,-0.2515387237071991,0.0,0.0,0.0,0.0,0.0,0.0,0.0,0.0,0.0,-0.006032141856849194,-0.009022663347423077,0.038004424422979355,0.0,0.0,0.0,0.0,0.0,0.0,0.0,0.0,0.0
1606987781266447422,1467556,1606984179907958187,imu_link,0.0023600689601153135,0.000634203664958477,0.19136802852153778,-0.9815153479576111,0.0,0.0,0.0,0.0,0.0,0.0,0.0,0.0,0.0,-22.0650577545166,-0.12308544665575027,-0.2515387237071991,0.0,0.0,0.0,0.0,0.0,0.0,0.0,0.0,0.0,-0.006032141856849194,-0.009022663347423077,0.038004424422979355,0.0,0.0,0.0,0.0,0.0,0.0,0.0,0.0,0.0
1606987781266526109,1467557,1606984179919731674,imu_link,0.0023602130822837353,0.0006362086860463023,0.19136865437030792,-0.9815152287483215,0.0,0.0,0.0,0.0,0.0,0.0,0.0,0.0,0.0,-22.06513023376465,-0.1233142837882042,-0.2515108585357666,0.0,0.0,0.0,0.0,0.0,0.0,0.0,0.0,0.0,0.006828168407082558,-0.009978266432881355,0.03926578164100647,0.0,0.0,0.0,0.0,0.0,0.0,0.0,0.0,0.0
1606987781266551372,1467558,1606984179919876971,imu_link,0.0023602130822837353,0.0006362086860463023,0.19136865437030792,-0.9815152287483215,0.0,0.0,0.0,0.0,0.0,0.0,0.0,0.0,0.0,-22.06513023376465,-0.1233142837882042,-0.2515108585357666,0.0,0.0,0.0,0.0,0.0,0.0,0.0,0.0,0.0,0.006828168407082558,-0.009978266432881355,0.03926578164100647,0.0,0.0,0.0,0.0,0.0,0.0,0.0,0.0,0.0
1606987781273773031,1467559,1606984179920032942,imu_link,0.0023577644024044275,0.0006369049078784883,0.1913718432188034,-0.9815146327018738,0.0,0.0,0.0,0.0,0.0,0.0,0.0,0.0,0.0,-22.065502166748047,-0.1233396977186203,-0.25121980905532837,0.0,0.0,0.0,0.0,0.0,0.0,0.0,0.0,0.0,0.009160609915852547,-0.012350698001682758,0.051442328840494156,0.0,0.0,0.0,0.0,0.0,0.0,0.0,0.0,0.0
1606987781273807955,1467560,1606984179920130031,imu_link,0.0023577644024044275,0.0006369049078784883,0.1913718432188034,-0.9815146327018738,0.0,0.0,0.0,0.0,0.0,0.0,0.0,0.0,0.0,-22.065502166748047,-0.1233396977186203,-0.25121980905532837,0.0,0.0,0.0,0.0,0.0,0.0,0.0,0.0,0.0,0.009160609915852547,-0.012350698001682758,0.051442328840494156,0.0,0.0,0.0,0.0,0.0,0.0,0.0,0.0,0.0
1606987781273826895,1467561,1606984179920210207,imu_link,0.0023591516073793173,0.000636985816527158,0.19137071073055267,-0.9815148115158081,0.0,0.0,0.0,0.0,0.0,0.0,0.0,0.0,0.0,-22.06536865234375,-0.1233789324760437,-0.251374214887619,0.0,0.0,0.0,0.0,0.0,0.0,0.0,0.0,0.0,0.011456267908215523,0.00044252918451093137,0.060963571071624756,0.0,0.0,0.0,0.0,0.0,0.0,0.0,0.0,0.0
1606987781273897131,1467562,1606984179920312930,imu_link,0.0023591516073793173,0.000636985816527158,0.19137071073055267,-0.9815148115158081,0.0,0.0,0.0,0.0,0.0,0.0,0.0,0.0,0.0,-22.06536865234375,-0.1233789324760437,-0.251374214887619,0.0,0.0,0.0,0.0,0.0,0.0,0.0,0.0,0.0,0.011456267908215523,0.00044252918451093137,0.060963571071624756,0.0,0.0,0.0,0.0,0.0,0.0,0.0,0.0,0.0
1606987781273906997,1467563,1606984179920395671,imu_link,0.0023588689509779215,0.0006356246303766966,0.19136576354503632,-0.9815157651901245,0.0,0.0,0.0,0.0,0.0,0.0,0.0,0.0,0.0,-22.06479263305664,-0.1232183650135994,-0.2513728737831116,0.0,0.0,0.0,0.0,0.0,0.0,0.0,0.0,0.0,0.023279771208763123,0.028581345453858376,0.06410865485668182,0.0,0.0,0.0,0.0,0.0,0.0,0.0,0.0,0.0
1606987781281453204,1467564,1606984179920483134,imu_link,0.0023588689509779215,0.0006356246303766966,0.19136576354503632,-0.9815157651901245,0.0,0.0,0.0,0.0,0.0,0.0,0.0,0.0,0.0,-22.06479263305664,-0.1232183650135994,-0.2513728737831116,0.0,0.0,0.0,0.0,0.0,0.0,0.0,0.0,0.0,0.023279771208763123,0.028581345453858376,0.06410865485668182,0.0,0.0,0.0,0.0,0.0,0.0,0.0,0.0,0.0
1606987781281508772,1467565,1606984179920563855,imu_link,0.002357770223170519,0.000635520787909627,0.191364124417305,-0.9815161228179932,0.0,0.0,0.0,0.0,0.0,0.0,0.0,0.0,0.0,-22.06460189819336,-0.12318217754364014,-0.25125181674957275,0.0,0.0,0.0,0.0,0.0,0.0,0.0,0.0,0.0,0.012893849052488804,0.022188296541571617,0.04706911742687225,0.0,0.0,0.0,0.0,0.0,0.0,0.0,0.0,0.0
1606987781281533051,1467566,1606984179920646572,imu_link,0.002357770223170519,0.000635520787909627,0.191364124417305,-0.9815161228179932,0.0,0.0,0.0,0.0,0.0,0.0,0.0,0.0,0.0,-22.06460189819336,-0.12318217754364014,-0.25125181674957275,0.0,0.0,0.0,0.0,0.0,0.0,0.0,0.0,0.0,0.012893849052488804,0.022188296541571617,0.04706911742687225,0.0,0.0,0.0,0.0,0.0,0.0,0.0,0.0,0.0
1606987781281573111,1467567,1606984179933188395,imu_link,0.0023606785107403994,0.0006322143017314374,0.19135749340057373,-0.9815174341201782,0.0,0.0,0.0,0.0,0.0,0.0,0.0,0.0,0.0,-22.06382942199707,-0.12287236005067825,-0.25165221095085144,0.0,0.0,0.0,0.0,0.0,0.0,0.0,0.0,0.0,-0.0009149350808002055,-0.004400964360684156,0.04181129112839699,0.0,0.0,0.0,0.0,0.0,0.0,0.0,0.0,0.0
1606987781334362988,1467568,1606984179933265829,imu_link,0.0023606785107403994,0.0006322143017314374,0.19135749340057373,-0.9815174341201782,0.0,0.0,0.0,0.0,0.0,0.0,0.0,0.0,0.0,-22.06382942199707,-0.12287236005067825,-0.25165221095085144,0.0,0.0,0.0,0.0,0.0,0.0,0.0,0.0,0.0,-0.0009149350808002055,-0.004400964360684156,0.04181129112839699,0.0,0.0,0.0,0.0,0.0,0.0,0.0,0.0,0.0
1606987781334393469,1467569,1606984179933369582,imu_link,0.002360159996896982,0.0006314057391136885,0.19135797023773193,-0.9815173149108887,0.0,0.0,0.0,0.0,0.0,0.0,0.0,0.0,0.0,-22.06388282775879,-0.12277017533779144,-0.251611590385437,0.0,0.0,0.0,0.0,0.0,0.0,0.0,0.0,0.0,0.0006843554438091815,-0.006506338249891996,0.05071081221103668,0.0,0.0,0.0,0.0,0.0,0.0,0.0,0.0,0.0
1606987781334409808,1467570,1606984179933412807,imu_link,0.002360159996896982,0.0006314057391136885,0.19135797023773193,-0.9815173149108887,0.0,0.0,0.0,0.0,0.0,0.0,0.0,0.0,0.0,-22.06388282775879,-0.12277017533779144,-0.251611590385437,0.0,0.0,0.0,0.0,0.0,0.0,0.0,0.0,0.0,0.0006843554438091815,-0.006506338249891996,0.05071081221103668,0.0,0.0,0.0,0.0,0.0,0.0,0.0,0.0,0.0
1606987781334426902,1467571,1606984179933457640,imu_link,0.0023592521902173758,0.0006314229685813189,0.19136656820774078,-0.981515645980835,0.0,0.0,0.0,0.0,0.0,0.0,0.0,0.0,0.0,-22.06488800048828,-0.12275440990924835,-0.25150802731513977,0.0,0.0,0.0,0.0,0.0,0.0,0.0,0.0,0.0,0.010500629432499409,-0.007381155155599117,0.03570640832185745,0.0,0.0,0.0,0.0,0.0,0.0,0.0,0.0,0.0
1606987781334447790,1467572,1606984179933499457,imu_link,0.0023592521902173758,0.0006314229685813189,0.19136656820774078,-0.981515645980835,0.0,0.0,0.0,0.0,0.0,0.0,0.0,0.0,0.0,-22.06488800048828,-0.12275440990924835,-0.25150802731513977,0.0,0.0,0.0,0.0,0.0,0.0,0.0,0.0,0.0,0.010500629432499409,-0.007381155155599117,0.03570640832185745,0.0,0.0,0.0,0.0,0.0,0.0,0.0,0.0,0.0
1606987781350569657,1467573,1606984179933552462,imu_link,0.0023592521902173758,0.0006314229685813189,0.19136656820774078,-0.981515645980835,0.0,0.0,0.0,0.0,0.0,0.0,0.0,0.0,0.0,-22.06488800048828,-0.12275440990924835,-0.25150802731513977,0.0,0.0,0.0,0.0,0.0,0.0,0.0,0.0,0.0,0.006717106327414513,0.007731820456683636,0.0025706582237035036,0.0,0.0,0.0,0.0,0.0,0.0,0.0,0.0,0.0
1606987781350588920,1467574,1606984179933592778,imu_link,0.0023592521902173758,0.0006314229685813189,0.19136656820774078,-0.981515645980835,0.0,0.0,0.0,0.0,0.0,0.0,0.0,0.0,0.0,-22.06488800048828,-0.12275440990924835,-0.25150802731513977,0.0,0.0,0.0,0.0,0.0,0.0,0.0,0.0,0.0,0.006717106327414513,0.007731820456683636,0.0025706582237035036,0.0,0.0,0.0,0.0,0.0,0.0,0.0,0.0,0.0
1606987781350597684,1467575,1606984179933630503,imu_link,0.0023586838506162167,0.0006302916444838047,0.1913776397705078,-0.981513500213623,0.0,0.0,0.0,0.0,0.0,0.0,0.0,0.0,0.0,-22.066177368164062,-0.12261753529310226,-0.2514674961566925,0.0,0.0,0.0,0.0,0.0,0.0,0.0,0.0,0.0,-0.002188898855820298,0.016455408185720444,0.014814212918281555,0.0,0.0,0.0,0.0,0.0,0.0,0.0,0.0,0.0
1606987781350615002,1467576,1606984179933670325,imu_link,0.0023586838506162167,0.0006302916444838047,0.1913776397705078,-0.981513500213623,0.0,0.0,0.0,0.0,0.0,0.0,0.0,0.0,0.0,-22.066177368164062,-0.12261753529310226,-0.2514674961566925,0.0,0.0,0.0,0.0,0.0,0.0,0.0,0.0,0.0,-0.002188898855820298,0.016455408185720444,0.014814212918281555,0.0,0.0,0.0,0.0,0.0,0.0,0.0,0.0,0.0
1606987781419234929,1467577,1606984179933709844,imu_link,0.0023580966517329216,0.0006299652741290629,0.19137772917747498,-0.981513500213623,0.0,0.0,0.0,0.0,0.0,0.0,0.0,0.0,0.0,-22.06618881225586,-0.12256798148155212,-0.2514086365699768,0.0,0.0,0.0,0.0,0.0,0.0,0.0,0.0,0.0,-0.014796688221395016,-0.001301228767260909,0.03340590372681618,0.0,0.0,0.0,0.0,0.0,0.0,0.0,0.0,0.0
1606987781419281990,1467578,1606984179947007529,imu_link,0.0023580966517329216,0.0006299652741290629,0.19137772917747498,-0.981513500213623,0.0,0.0,0.0,0.0,0.0,0.0,0.0,0.0,0.0,-22.06618881225586,-0.12256798148155212,-0.2514086365699768,0.0,0.0,0.0,0.0,0.0,0.0,0.0,0.0,0.0,-0.014796688221395016,-0.001301228767260909,0.03340590372681618,0.0,0.0,0.0,0.0,0.0,0.0,0.0,0.0,0.0
1606987781419289173,1467579,1606984179947079182,imu_link,0.002359793521463871,0.0006314612692221999,0.1913730651140213,-0.9815143942832947,0.0,0.0,0.0,0.0,0.0,0.0,0.0,0.0,0.0,-22.065645217895508,-0.12277224659919739,-0.25156721472740173,0.0,0.0,0.0,0.0,0.0,0.0,0.0,0.0,0.0,-0.007506597321480513,-0.006294336635619402,0.03770386427640915,0.0,0.0,0.0,0.0,0.0,0.0,0.0,0.0,0.0
1606987781419297531,1467580,1606984179947168725,imu_link,0.002359793521463871,0.0006314612692221999,0.1913730651140213,-0.9815143942832947,0.0,0.0,0.0,0.0,0.0,0.0,0.0,0.0,0.0,-22.065645217895508,-0.12277224659919739,-0.25156721472740173,0.0,0.0,0.0,0.0,0.0,0.0,0.0,0.0,0.0,-0.007506597321480513,-0.006294336635619402,0.03770386427640915,0.0,0.0,0.0,0.0,0.0,0.0,0.0,0.0,0.0
1606987781419314754,1467581,1606984179947212992,imu_link,0.002359333448112011,0.0006340923137031496,0.19137345254421234,-0.9815143346786499,0.0,0.0,0.0,0.0,0.0,0.0,0.0,0.0,0.0,-22.065689086914062,-0.12305819243192673,-0.25145772099494934,0.0,0.0,0.0,0.0,0.0,0.0,0.0,0.0,0.0,0.01719481311738491,-0.009255621582269669,0.06028980761766434,0.0,0.0,0.0,0.0,0.0,0.0,0.0,0.0,0.0
1606987781422848754,1467582,1606984179947258998,imu_link,0.002359333448112011,0.0006340923137031496,0.19137345254421234,-0.9815143346786499,0.0,0.0,0.0,0.0,0.0,0.0,0.0,0.0,0.0,-22.065689086914062,-0.12305819243192673,-0.25145772099494934,0.0,0.0,0.0,0.0,0.0,0.0,0.0,0.0,0.0,0.01719481311738491,-0.009255621582269669,0.06028980761766434,0.0,0.0,0.0,0.0,0.0,0.0,0.0,0.0,0.0
1606987781422875888,1467583,1606984179947300903,imu_link,0.002358586760237813,0.0006308783777058125,0.19137100875377655,-0.9815147519111633,0.0,0.0,0.0,0.0,0.0,0.0,0.0,0.0,0.0,-22.065406799316406,-0.122679702937603,-0.251444548368454,0.0,0.0,0.0,0.0,0.0,0.0,0.0,0.0,0.0,0.02461153268814087,-0.0053275516256690025,0.06305219978094101,0.0,0.0,0.0,0.0,0.0,0.0,0.0,0.0,0.0
1606987781422889013,1467584,1606984179947353693,imu_link,0.002358586760237813,0.0006308783777058125,0.19137100875377655,-0.9815147519111633,0.0,0.0,0.0,0.0,0.0,0.0,0.0,0.0,0.0,-22.065406799316406,-0.122679702937603,-0.251444548368454,0.0,0.0,0.0,0.0,0.0,0.0,0.0,0.0,0.0,0.02461153268814087,-0.0053275516256690025,0.06305219978094101,0.0,0.0,0.0,0.0,0.0,0.0,0.0,0.0,0.0
1606987781422899454,1467585,1606984179947395752,imu_link,0.0023584223818033934,0.0006331456243060529,0.1913711577653885,-0.9815146923065186,0.0,0.0,0.0,0.0,0.0,0.0,0.0,0.0,0.0,-22.065425872802734,-0.12293113768100739,-0.25137636065483093,0.0,0.0,0.0,0.0,0.0,0.0,0.0,0.0,0.0,0.019522976130247116,-0.0011475622886791825,0.04560219869017601,0.0,0.0,0.0,0.0,0.0,0.0,0.0,0.0,0.0
1606987781427117957,1467586,1606984179947441140,imu_link,0.0023584223818033934,0.0006331456243060529,0.1913711577653885,-0.9815146923065186,0.0,0.0,0.0,0.0,0.0,0.0,0.0,0.0,0.0,-22.065425872802734,-0.12293113768100739,-0.25137636065483093,0.0,0.0,0.0,0.0,0.0,0.0,0.0,0.0,0.0,0.019522976130247116,-0.0011475622886791825,0.04560219869017601,0.0,0.0,0.0,0.0,0.0,0.0,0.0,0.0,0.0
1606987781427149416,1467587,1606984179947487465,imu_link,0.0023575325030833483,0.0006298148073256016,0.1913682520389557,-0.9815152883529663,0.0,0.0,0.0,0.0,0.0,0.0,0.0,0.0,0.0,-22.06508445739746,-0.12253624200820923,-0.25134965777397156,0.0,0.0,0.0,0.0,0.0,0.0,0.0,0.0,0.0,0.01180467288941145,-0.00568408565595746,0.05056382715702057,0.0,0.0,0.0,0.0,0.0,0.0,0.0,0.0,0.0
1606987781427163273,1467588,1606984179947531740,imu_link,0.0023575325030833483,0.0006298148073256016,0.1913682520389557,-0.9815152883529663,0.0,0.0,0.0,0.0,0.0,0.0,0.0,0.0,0.0,-22.06508445739746,-0.12253624200820923,-0.25134965777397156,0.0,0.0,0.0,0.0,0.0,0.0,0.0,0.0,0.0,0.01180467288941145,-0.00568408565595746,0.05056382715702057,0.0,0.0,0.0,0.0,0.0,0.0,0.0,0.0,0.0
1606987781427172657,1467589,1606984179960482213,imu_link,0.002357710152864456,0.0006291756290011108,0.19136905670166016,-0.981515109539032,0.0,0.0,0.0,0.0,0.0,0.0,0.0,0.0,0.0,-22.0651798248291,-0.12246845662593842,-0.25138357281684875,0.0,0.0,0.0,0.0,0.0,0.0,0.0,0.0,0.0,-0.011777653358876705,0.010440974496304989,0.06545376032590866,0.0,0.0,0.0,0.0,0.0,0.0,0.0,0.0,0.0
1606987781427187828,1467590,1606984179960591735,imu_link,0.002357710152864456,0.0006291756290011108,0.19136905670166016,-0.981515109539032,0.0,0.0,0.0,0.0,0.0,0.0,0.0,0.0,0.0,-22.0651798248291,-0.12246845662593842,-0.25138357281684875,0.0,0.0,0.0,0.0,0.0,0.0,0.0,0.0,0.0,-0.011777653358876705,0.010440974496304989,0.06545376032590866,0.0,0.0,0.0,0.0,0.0,0.0,0.0,0.0,0.0
1606987781433025628,1467591,1606984179960705919,imu_link,0.002359488047659397,0.0006303703412413597,0.1913655549287796,-0.9815158247947693,0.0,0.0,0.0,0.0,0.0,0.0,0.0,0.0,0.0,-22.064769744873047,-0.12264092266559601,-0.25155773758888245,0.0,0.0,0.0,0.0,0.0,0.0,0.0,0.0,0.0,-0.018762068822979927,0.017700355499982834,0.055945683270692825,0.0,0.0,0.0,0.0,0.0,0.0,0.0,0.0,0.0
1606987781433075475,1467592,1606984179960776041,imu_link,0.002359488047659397,0.0006303703412413597,0.1913655549287796,-0.9815158247947693,0.0,0.0,0.0,0.0,0.0,0.0,0.0,0.0,0.0,-22.064769744873047,-0.12264092266559601,-0.25155773758888245,0.0,0.0,0.0,0.0,0.0,0.0,0.0,0.0,0.0,-0.018762068822979927,0.017700355499982834,0.055945683270692825,0.0,0.0,0.0,0.0,0.0,0.0,0.0,0.0,0.0
1606987781433120284,1467593,1606984179960833035,imu_link,0.0023592221550643444,0.000630812777671963,0.19136467576026917,-0.9815160036087036,0.0,0.0,0.0,0.0,0.0,0.0,0.0,0.0,0.0,-22.064666748046875,-0.12268463522195816,-0.25151824951171875,0.0,0.0,0.0,0.0,0.0,0.0,0.0,0.0,0.0,0.0009958718437701464,0.014062181115150452,0.033487237989902496,0.0,0.0,0.0,0.0,0.0,0.0,0.0,0.0,0.0
1606987781433132276,1467594,1606984179960891017,imu_link,0.0023592221550643444,0.000630812777671963,0.19136467576026917,-0.9815160036087036,0.0,0.0,0.0,0.0,0.0,0.0,0.0,0.0,0.0,-22.064666748046875,-0.12268463522195816,-0.25151824951171875,0.0,0.0,0.0,0.0,0.0,0.0,0.0,0.0,0.0,0.0009958718437701464,0.014062181115150452,0.033487237989902496,0.0,0.0,0.0,0.0,0.0,0.0,0.0,0.0,0.0
1606987781438168887,1467595,1606984179960976432,imu_link,0.0023605700116604567,0.0006285062409006059,0.19136758148670197,-0.9815154075622559,0.0,0.0,0.0,0.0,0.0,0.0,0.0,0.0,0.0,-22.065004348754883,-0.12245550751686096,-0.2517200708389282,0.0,0.0,0.0,0.0,0.0,0.0,0.0,0.0,0.0,0.008474491536617279,0.005543468985706568,0.026208756491541862,0.0,0.0,0.0,0.0,0.0,0.0,0.0,0.0,0.0
1606987781438199167,1467596,1606984179961042429,imu_link,0.0023605700116604567,0.0006285062409006059,0.19136758148670197,-0.9815154075622559,0.0,0.0,0.0,0.0,0.0,0.0,0.0,0.0,0.0,-22.065004348754883,-0.12245550751686096,-0.2517200708389282,0.0,0.0,0.0,0.0,0.0,0.0,0.0,0.0,0.0,0.008474491536617279,0.005543468985706568,0.026208756491541862,0.0,0.0,0.0,0.0,0.0,0.0,0.0,0.0,0.0
1606987781438210673,1467597,1606984179961138258,imu_link,0.0023592126090079546,0.000626980559900403,0.19136759638786316,-0.9815154075622559,0.0,0.0,0.0,0.0,0.0,0.0,0.0,0.0,0.0,-22.06501007080078,-0.1222541481256485,-0.25160083174705505,0.0,0.0,0.0,0.0,0.0,0.0,0.0,0.0,0.0,0.005214707925915718,0.0030091397929936647,0.03333912417292595,0.0,0.0,0.0,0.0,0.0,0.0,0.0,0.0,0.0
1606987781438220135,1467598,1606984179961203835,imu_link,0.0023592126090079546,0.000626980559900403,0.19136759638786316,-0.9815154075622559,0.0,0.0,0.0,0.0,0.0,0.0,0.0,0.0,0.0,-22.06501007080078,-0.1222541481256485,-0.25160083174705505,0.0,0.0,0.0,0.0,0.0,0.0,0.0,0.0,0.0,0.005214707925915718,0.0030091397929936647,0.03333912417292595,0.0,0.0,0.0,0.0,0.0,0.0,0.0,0.0,0.0
1606987781438238451,1467599,1606984179961264711,imu_link,0.0023612920194864273,0.0006269608275033534,0.1913696825504303,-0.9815150499343872,0.0,0.0,0.0,0.0,0.0,0.0,0.0,0.0,0.0,-22.065250396728516,-0.12229806184768677,-0.2518348693847656,0.0,0.0,0.0,0.0,0.0,0.0,0.0,0.0,0.0,0.016105705872178078,0.009934009052813053,0.02469639852643013,0.0,0.0,0.0,0.0,0.0,0.0,0.0,0.0,0.0
1606987781477795806,1467600,1606984179974332816,imu_link,0.0023612920194864273,0.0006269608275033534,0.1913696825504303,-0.9815150499343872,0.0,0.0,0.0,0.0,0.0,0.0,0.0,0.0,0.0,-22.065250396728516,-0.12229806184768677,-0.2518348693847656,0.0,0.0,0.0,0.0,0.0,0.0,0.0,0.0,0.0,0.016105705872178078,0.009934009052813053,0.02469639852643013,0.0,0.0,0.0,0.0,0.0,0.0,0.0,0.0,0.0
1606987781477813371,1467601,1606984179974441190,imu_link,0.002361646620556712,0.0006271180463954806,0.1913691610097885,-0.981515109539032,0.0,0.0,0.0,0.0,0.0,0.0,0.0,0.0,0.0,-22.0651912689209,-0.12232338637113571,-0.25187137722969055,0.0,0.0,0.0,0.0,0.0,0.0,0.0,0.0,0.0,0.018487952649593353,0.007116653490811586,0.029735365882515907,0.0,0.0,0.0,0.0,0.0,0.0,0.0,0.0,0.0
1606987781477830422,1467602,1606984179974560638,imu_link,0.002361646620556712,0.0006271180463954806,0.1913691610097885,-0.981515109539032,0.0,0.0,0.0,0.0,0.0,0.0,0.0,0.0,0.0,-22.0651912689209,-0.12232338637113571,-0.25187137722969055,0.0,0.0,0.0,0.0,0.0,0.0,0.0,0.0,0.0,0.018487952649593353,0.007116653490811586,0.029735365882515907,0.0,0.0,0.0,0.0,0.0,0.0,0.0,0.0,0.0
1606987781477838358,1467603,1606984179974638589,imu_link,0.002362479455769062,0.0006253842147998512,0.19137117266654968,-0.9815147519111633,0.0,0.0,0.0,0.0,0.0,0.0,0.0,0.0,0.0,-22.065425872802734,-0.12214715778827667,-0.2520028054714203,0.0,0.0,0.0,0.0,0.0,0.0,0.0,0.0,0.0,-0.0005722013302147388,0.010482299141585827,0.05729041248559952,0.0,0.0,0.0,0.0,0.0,0.0,0.0,0.0,0.0
1606987781486604535,1467604,1606984179974703437,imu_link,0.002362479455769062,0.0006253842147998512,0.19137117266654968,-0.9815147519111633,0.0,0.0,0.0,0.0,0.0,0.0,0.0,0.0,0.0,-22.065425872802734,-0.12214715778827667,-0.2520028054714203,0.0,0.0,0.0,0.0,0.0,0.0,0.0,0.0,0.0,-0.0005722013302147388,0.010482299141585827,0.05729041248559952,0.0,0.0,0.0,0.0,0.0,0.0,0.0,0.0,0.0
1606987781486621927,1467605,1606984179974783284,imu_link,0.0023624394088983536,0.0006256973720155656,0.19137515127658844,-0.9815139770507812,0.0,0.0,0.0,0.0,0.0,0.0,0.0,0.0,0.0,-22.06589126586914,-0.12218252569437027,-0.2519909739494324,0.0,0.0,0.0,0.0,0.0,0.0,0.0,0.0,0.0,-0.006003809627145529,0.0038792856503278017,0.03611447289586067,0.0,0.0,0.0,0.0,0.0,0.0,0.0,0.0,0.0
1606987781486628973,1467606,1606984179974847997,imu_link,0.0023624394088983536,0.0006256973720155656,0.19137515127658844,-0.9815139770507812,0.0,0.0,0.0,0.0,0.0,0.0,0.0,0.0,0.0,-22.06589126586914,-0.12218252569437027,-0.2519909739494324,0.0,0.0,0.0,0.0,0.0,0.0,0.0,0.0,0.0,-0.006003809627145529,0.0038792856503278017,0.03611447289586067,0.0,0.0,0.0,0.0,0.0,0.0,0.0,0.0,0.0
1606987781486637533,1467607,1606984179974908300,imu_link,0.0023638049606233835,0.0006269502337090671,0.1913796365261078,-0.9815130233764648,0.0,0.0,0.0,0.0,0.0,0.0,0.0,0.0,0.0,-22.066415786743164,-0.12235452234745026,-0.25211653113365173,0.0,0.0,0.0,0.0,0.0,0.0,0.0,0.0,0.0,0.0031673391349613667,-0.014071023091673851,0.03148782625794411,0.0,0.0,0.0,0.0,0.0,0.0,0.0,0.0,0.0
1606987781486653222,1467608,1606984179975018993,imu_link,0.0023638049606233835,0.0006269502337090671,0.1913796365261078,-0.9815130233764648,0.0,0.0,0.0,0.0,0.0,0.0,0.0,0.0,0.0,-22.066415786743164,-0.12235452234745026,-0.25211653113365173,0.0,0.0,0.0,0.0,0.0,0.0,0.0,0.0,0.0,0.0031673391349613667,-0.014071023091673851,0.03148782625794411,0.0,0.0,0.0,0.0,0.0,0.0,0.0,0.0,0.0
1606987781495666303,1467609,1606984179975089236,imu_link,0.0023641923908144236,0.0006284711416810751,0.1913772076368332,-0.981513500213623,0.0,0.0,0.0,0.0,0.0,0.0,0.0,0.0,0.0,-22.066129684448242,-0.12253347039222717,-0.252127081155777,0.0,0.0,0.0,0.0,0.0,0.0,0.0,0.0,0.0,0.009773650206625462,-0.012347624637186527,0.07624632120132446,0.0,0.0,0.0,0.0,0.0,0.0,0.0,0.0,0.0
1606987781495687870,1467610,1606984179975180016,imu_link,0.0023641923908144236,0.0006284711416810751,0.1913772076368332,-0.981513500213623,0.0,0.0,0.0,0.0,0.0,0.0,0.0,0.0,0.0,-22.066129684448242,-0.12253347039222717,-0.252127081155777,0.0,0.0,0.0,0.0,0.0,0.0,0.0,0.0,0.0,0.009773650206625462,-0.012347624637186527,0.07624632120132446,0.0,0.0,0.0,0.0,0.0,0.0,0.0,0.0,0.0
1606987781495693973,1467611,1606984179987093132,imu_link,0.0023619187995791435,0.0006295185885392129,0.19137480854988098,-0.981514036655426,0.0,0.0,0.0,0.0,0.0,0.0,0.0,0.0,0.0,-22.06584930419922,-0.12260080873966217,-0.25184866786003113,0.0,0.0,0.0,0.0,0.0,0.0,0.0,0.0,0.0,0.020410295575857162,-0.000930829846765846,0.06792332977056503,0.0,0.0,0.0,0.0,0.0,0.0,0.0,0.0,0.0
1606987781495700211,1467612,1606984179987183722,imu_link,0.0023619187995791435,0.0006295185885392129,0.19137480854988098,-0.981514036655426,0.0,0.0,0.0,0.0,0.0,0.0,0.0,0.0,0.0,-22.06584930419922,-0.12260080873966217,-0.25184866786003113,0.0,0.0,0.0,0.0,0.0,0.0,0.0,0.0,0.0,0.020410295575857162,-0.000930829846765846,0.06792332977056503,0.0,0.0,0.0,0.0,0.0,0.0,0.0,0.0,0.0
1606987781499461705,1467613,1606984179987282013,imu_link,0.0023638540878891945,0.000629447924438864,0.19137446582317352,-0.9815140962600708,0.0,0.0,0.0,0.0,0.0,0.0,0.0,0.0,0.0,-22.06580924987793,-0.12263521552085876,-0.2520679533481598,0.0,0.0,0.0,0.0,0.0,0.0,0.0,0.0,0.0,0.02619282342493534,0.003572192508727312,0.04501272365450859,0.0,0.0,0.0,0.0,0.0,0.0,0.0,0.0,0.0
1606987781499516469,1467614,1606984179987350785,imu_link,0.0023638540878891945,0.000629447924438864,0.19137446582317352,-0.9815140962600708,0.0,0.0,0.0,0.0,0.0,0.0,0.0,0.0,0.0,-22.06580924987793,-0.12263521552085876,-0.2520679533481598,0.0,0.0,0.0,0.0,0.0,0.0,0.0,0.0,0.0,0.02619282342493534,0.003572192508727312,0.04501272365450859,0.0,0.0,0.0,0.0,0.0,0.0,0.0,0.0,0.0
1606987781499550130,1467615,1606984179987423505,imu_link,0.0023634841199964285,0.0006261143716983497,0.19137151539325714,-0.9815146327018738,0.0,0.0,0.0,0.0,0.0,0.0,0.0,0.0,0.0,-22.065467834472656,-0.12225139886140823,-0.25209978222846985,0.0,0.0,0.0,0.0,0.0,0.0,0.0,0.0,0.0,0.02034704014658928,-0.000666510546579957,0.03602204844355583,0.0,0.0,0.0,0.0,0.0,0.0,0.0,0.0,0.0
1606987781499603458,1467616,1606984179987508654,imu_link,0.0023634841199964285,0.0006261143716983497,0.19137151539325714,-0.9815146327018738,0.0,0.0,0.0,0.0,0.0,0.0,0.0,0.0,0.0,-22.065467834472656,-0.12225139886140823,-0.25209978222846985,0.0,0.0,0.0,0.0,0.0,0.0,0.0,0.0,0.0,0.02034704014658928,-0.000666510546579957,0.03602204844355583,0.0,0.0,0.0,0.0,0.0,0.0,0.0,0.0,0.0
1606987781499620570,1467617,1606984179987584373,imu_link,0.0023649767972528934,0.0006270596059039235,0.19137148559093475,-0.9815146327018738,0.0,0.0,0.0,0.0,0.0,0.0,0.0,0.0,0.0,-22.065462112426758,-0.12239043414592743,-0.2522469460964203,0.0,0.0,0.0,0.0,0.0,0.0,0.0,0.0,0.0,0.019319694489240646,0.0030532758682966232,0.03629520162940025,0.0,0.0,0.0,0.0,0.0,0.0,0.0,0.0,0.0
1606987781552446030,1467618,1606984179987650218,imu_link,0.0023649767972528934,0.0006270596059039235,0.19137148559093475,-0.9815146327018738,0.0,0.0,0.0,0.0,0.0,0.0,0.0,0.0,0.0,-22.065462112426758,-0.12239043414592743,-0.2522469460964203,0.0,0.0,0.0,0.0,0.0,0.0,0.0,0.0,0.0,0.019319694489240646,0.0030532758682966232,0.03629520162940025,0.0,0.0,0.0,0.0,0.0,0.0,0.0,0.0,0.0
1606987781552461719,1467619,1606984179987717866,imu_link,0.0023669966030865908,0.0006253295578062534,0.19136962294578552,-0.9815149903297424,0.0,0.0,0.0,0.0,0.0,0.0,0.0,0.0,0.0,-22.065244674682617,-0.12223966419696808,-0.2525123059749603,0.0,0.0,0.0,0.0,0.0,0.0,0.0,0.0,0.0,0.00787567812949419,0.014144000597298145,0.019406305626034737,0.0,0.0,0.0,0.0,0.0,0.0,0.0,0.0,0.0
1606987781552467330,1467620,1606984179987784981,imu_link,0.0023669966030865908,0.0006253295578062534,0.19136962294578552,-0.9815149903297424,0.0,0.0,0.0,0.0,0.0,0.0,0.0,0.0,0.0,-22.065244674682617,-0.12223966419696808,-0.2525123059749603,0.0,0.0,0.0,0.0,0.0,0.0,0.0,0.0,0.0,0.00787567812949419,0.014144000597298145,0.019406305626034737,0.0,0.0,0.0,0.0,0.0,0.0,0.0,0.0,0.0
1606987781552473382,1467621,1606984180000553514,imu_link,0.0023672517854720354,0.0006271264865063131,0.19136865437030792,-0.9815151691436768,0.0,0.0,0.0,0.0,0.0,0.0,0.0,0.0,0.0,-22.06513214111328,-0.12244711816310883,-0.2525017261505127,0.0,0.0,0.0,0.0,0.0,0.0,0.0,0.0,0.0,-0.008210835978388786,0.010914137586951256,0.01784711889922619,0.0,0.0,0.0,0.0,0.0,0.0,0.0,0.0,0.0
1606987781588491327,1467622,1606984180000670396,imu_link,0.0023672517854720354,0.0006271264865063131,0.19136865437030792,-0.9815151691436768,0.0,0.0,0.0,0.0,0.0,0.0,0.0,0.0,0.0,-22.06513214111328,-0.12244711816310883,-0.2525017261505127,0.0,0.0,0.0,0.0,0.0,0.0,0.0,0.0,0.0,-0.008210835978388786,0.010914137586951256,0.01784711889922619,0.0,0.0,0.0,0.0,0.0,0.0,0.0,0.0,0.0
1606987781588527797,1467623,1606984180000741220,imu_link,0.0023674245458096266,0.0006277515785768628,0.1913662999868393,-0.9815157055854797,0.0,0.0,0.0,0.0,0.0,0.0,0.0,0.0,0.0,-22.064855575561523,-0.12252061814069748,-0.2525077164173126,0.0,0.0,0.0,0.0,0.0,0.0,0.0,0.0,0.0,-0.010163724422454834,-0.004660492762923241,0.036464422941207886,0.0,0.0,0.0,0.0,0.0,0.0,0.0,0.0,0.0
1606987781588548621,1467624,1606984180000810669,imu_link,0.0023674245458096266,0.0006277515785768628,0.1913662999868393,-0.9815157055854797,0.0,0.0,0.0,0.0,0.0,0.0,0.0,0.0,0.0,-22.064855575561523,-0.12252061814069748,-0.2525077164173126,0.0,0.0,0.0,0.0,0.0,0.0,0.0,0.0,0.0,-0.010163724422454834,-0.004660492762923241,0.036464422941207886,0.0,0.0,0.0,0.0,0.0,0.0,0.0,0.0,0.0
1606987781588556641,1467625,1606984180000882511,imu_link,0.00236703478731215,0.0006287935539148748,0.19136488437652588,-0.9815159440040588,0.0,0.0,0.0,0.0,0.0,0.0,0.0,0.0,0.0,-22.0646915435791,-0.12262888997793198,-0.25244125723838806,0.0,0.0,0.0,0.0,0.0,0.0,0.0,0.0,0.0,-0.008887621574103832,-0.01436886191368103,0.0337982103228569,0.0,0.0,0.0,0.0,0.0,0.0,0.0,0.0,0.0
1606987781588574830,1467626,1606984180000944980,imu_link,0.00236703478731215,0.0006287935539148748,0.19136488437652588,-0.9815159440040588,0.0,0.0,0.0,0.0,0.0,0.0,0.0,0.0,0.0,-22.0646915435791,-0.12262888997793198,-0.25244125723838806,0.0,0.0,0.0,0.0,0.0,0.0,0.0,0.0,0.0,-0.008887621574103832,-0.01436886191368103,0.0337982103228569,0.0,0.0,0.0,0.0,0.0,0.0,0.0,0.0,0.0
1606987781599374864,1467627,1606984180001025771,imu_link,0.002363841515034437,0.0006291570025496185,0.19136247038841248,-0.981516420841217,0.0,0.0,0.0,0.0,0.0,0.0,0.0,0.0,0.0,-22.064409255981445,-0.12259912490844727,-0.2520744204521179,0.0,0.0,0.0,0.0,0.0,0.0,0.0,0.0,0.0,-0.004504846408963203,-0.021224165335297585,0.04130813479423523,0.0,0.0,0.0,0.0,0.0,0.0,0.0,0.0,0.0
1606987781599396404,1467628,1606984180001092693,imu_link,0.002363841515034437,0.0006291570025496185,0.19136247038841248,-0.981516420841217,0.0,0.0,0.0,0.0,0.0,0.0,0.0,0.0,0.0,-22.064409255981445,-0.12259912490844727,-0.2520744204521179,0.0,0.0,0.0,0.0,0.0,0.0,0.0,0.0,0.0,-0.004504846408963203,-0.021224165335297585,0.04130813479423523,0.0,0.0,0.0,0.0,0.0,0.0,0.0,0.0,0.0
1606987781599409953,1467629,1606984180001157319,imu_link,0.002364169340580702,0.0006306038121692836,0.19136205315589905,-0.9815164804458618,0.0,0.0,0.0,0.0,0.0,0.0,0.0,0.0,0.0,-22.064361572265625,-0.12276893854141235,-0.2520796060562134,0.0,0.0,0.0,0.0,0.0,0.0,0.0,0.0,0.0,-0.005000246688723564,-0.018940923735499382,0.0461077056825161,0.0,0.0,0.0,0.0,0.0,0.0,0.0,0.0,0.0
1606987781599421025,1467630,1606984180001227510,imu_link,0.002364169340580702,0.0006306038121692836,0.19136205315589905,-0.9815164804458618,0.0,0.0,0.0,0.0,0.0,0.0,0.0,0.0,0.0,-22.064361572265625,-0.12276893854141235,-0.2520796060562134,0.0,0.0,0.0,0.0,0.0,0.0,0.0,0.0,0.0,-0.005000246688723564,-0.018940923735499382,0.0461077056825161,0.0,0.0,0.0,0.0,0.0,0.0,0.0,0.0,0.0
1606987781603974761,1467631,1606984180001299107,imu_link,0.0023607814218848944,0.0006330276955850422,0.19136063754558563,-0.9815167784690857,0.0,0.0,0.0,0.0,0.0,0.0,0.0,0.0,0.0,-22.064193725585938,-0.12296690046787262,-0.251645565032959,0.0,0.0,0.0,0.0,0.0,0.0,0.0,0.0,0.0,-0.019566690549254417,-0.0038160826079547405,0.05731886252760887,0.0,0.0,0.0,0.0,0.0,0.0,0.0,0.0,0.0
1606987781604011450,1467632,1606984180014457725,imu_link,0.0023607814218848944,0.0006330276955850422,0.19136063754558563,-0.9815167784690857,0.0,0.0,0.0,0.0,0.0,0.0,0.0,0.0,0.0,-22.064193725585938,-0.12296690046787262,-0.251645565032959,0.0,0.0,0.0,0.0,0.0,0.0,0.0,0.0,0.0,-0.019566690549254417,-0.0038160826079547405,0.05731886252760887,0.0,0.0,0.0,0.0,0.0,0.0,0.0,0.0,0.0
1606987781604030752,1467633,1606984180014540783,imu_link,0.002359218429774046,0.0006326223956421018,0.19136030972003937,-0.9815168380737305,0.0,0.0,0.0,0.0,0.0,0.0,0.0,0.0,0.0,-22.06415557861328,-0.12288695573806763,-0.2514786720275879,0.0,0.0,0.0,0.0,0.0,0.0,0.0,0.0,0.0,-0.008387946523725986,0.002694162540137768,0.055803265422582626,0.0,0.0,0.0,0.0,0.0,0.0,0.0,0.0,0.0
1606987781604046473,1467634,1606984180014612114,imu_link,0.002359218429774046,0.0006326223956421018,0.19136030972003937,-0.9815168380737305,0.0,0.0,0.0,0.0,0.0,0.0,0.0,0.0,0.0,-22.06415557861328,-0.12288695573806763,-0.2514786720275879,0.0,0.0,0.0,0.0,0.0,0.0,0.0,0.0,0.0,-0.008387946523725986,0.002694162540137768,0.055803265422582626,0.0,0.0,0.0,0.0,0.0,0.0,0.0,0.0,0.0
1606987781692487184,1467635,1606984180014665481,imu_link,0.002358164405450225,0.0006338109378702939,0.19136475026607513,-0.9815159440040588,0.0,0.0,0.0,0.0,0.0,0.0,0.0,0.0,0.0,-22.064678192138672,-0.1229986697435379,-0.2513335645198822,0.0,0.0,0.0,0.0,0.0,0.0,0.0,0.0,0.0,0.012172213755548,-0.0029608618933707476,0.03341140225529671,0.0,0.0,0.0,0.0,0.0,0.0,0.0,0.0,0.0
1606987781692509037,1467636,1606984180014715806,imu_link,0.002358164405450225,0.0006338109378702939,0.19136475026607513,-0.9815159440040588,0.0,0.0,0.0,0.0,0.0,0.0,0.0,0.0,0.0,-22.064678192138672,-0.1229986697435379,-0.2513335645198822,0.0,0.0,0.0,0.0,0.0,0.0,0.0,0.0,0.0,0.012172213755548,-0.0029608618933707476,0.03341140225529671,0.0,0.0,0.0,0.0,0.0,0.0,0.0,0.0,0.0
1606987781692535115,1467637,1606984180014765999,imu_link,0.0023582116700708866,0.0006353787030093372,0.19136351346969604,-0.9815162420272827,0.0,0.0,0.0,0.0,0.0,0.0,0.0,0.0,0.0,-22.064529418945312,-0.1231757178902626,-0.25130459666252136,0.0,0.0,0.0,0.0,0.0,0.0,0.0,0.0,0.0,0.0060269273817539215,-0.008313518948853016,0.03246840462088585,0.0,0.0,0.0,0.0,0.0,0.0,0.0,0.0,0.0
1606987781692550246,1467638,1606984180014828257,imu_link,0.0023582116700708866,0.0006353787030093372,0.19136351346969604,-0.9815162420272827,0.0,0.0,0.0,0.0,0.0,0.0,0.0,0.0,0.0,-22.064529418945312,-0.1231757178902626,-0.25130459666252136,0.0,0.0,0.0,0.0,0.0,0.0,0.0,0.0,0.0,0.0060269273817539215,-0.008313518948853016,0.03246840462088585,0.0,0.0,0.0,0.0,0.0,0.0,0.0,0.0,0.0
1606987781692562656,1467639,1606984180014879092,imu_link,0.0023567150346934795,0.0006347160669974983,0.19136807322502136,-0.9815153479576111,0.0,0.0,0.0,0.0,0.0,0.0,0.0,0.0,0.0,-22.065065383911133,-0.12306953966617584,-0.2511502504348755,0.0,0.0,0.0,0.0,0.0,0.0,0.0,0.0,0.0,0.008780241012573242,-0.009578241035342216,0.06363773345947266,0.0,0.0,0.0,0.0,0.0,0.0,0.0,0.0,0.0
1606987781714240522,1467640,1606984180014929134,imu_link,0.0023567150346934795,0.0006347160669974983,0.19136807322502136,-0.9815153479576111,0.0,0.0,0.0,0.0,0.0,0.0,0.0,0.0,0.0,-22.065065383911133,-0.12306953966617584,-0.2511502504348755,0.0,0.0,0.0,0.0,0.0,0.0,0.0,0.0,0.0,0.008780241012573242,-0.009578241035342216,0.06363773345947266,0.0,0.0,0.0,0.0,0.0,0.0,0.0,0.0,0.0
1606987781714262916,1467641,1606984180015016086,imu_link,0.0023557657841593027,0.0006343709537759423,0.19136689603328705,-0.9815155863761902,0.0,0.0,0.0,0.0,0.0,0.0,0.0,0.0,0.0,-22.064924240112305,-0.12300960719585419,-0.2510512173175812,0.0,0.0,0.0,0.0,0.0,0.0,0.0,0.0,0.0,0.014910113997757435,-0.0028129136189818382,0.0366801917552948,0.0,0.0,0.0,0.0,0.0,0.0,0.0,0.0,0.0
1606987781714288381,1467642,1606984180015069879,imu_link,0.0023557657841593027,0.0006343709537759423,0.19136689603328705,-0.9815155863761902,0.0,0.0,0.0,0.0,0.0,0.0,0.0,0.0,0.0,-22.064924240112305,-0.12300960719585419,-0.2510512173175812,0.0,0.0,0.0,0.0,0.0,0.0,0.0,0.0,0.0,0.014910113997757435,-0.0028129136189818382,0.0366801917552948,0.0,0.0,0.0,0.0,0.0,0.0,0.0,0.0,0.0
1606987781714335044,1467643,1606984180027848489,imu_link,0.0023553096689283848,0.0006324172718450427,0.19136501848697662,-0.9815158843994141,0.0,0.0,0.0,0.0,0.0,0.0,0.0,0.0,0.0,-22.06471061706543,-0.12277937680482864,-0.2510429918766022,0.0,0.0,0.0,0.0,0.0,0.0,0.0,0.0,0.0,0.004544579423964024,0.00910599809139967,0.015764065086841583,0.0,0.0,0.0,0.0,0.0,0.0,0.0,0.0,0.0
1606987781730476237,1467644,1606984180027961245,imu_link,0.0023553096689283848,0.0006324172718450427,0.19136501848697662,-0.9815158843994141,0.0,0.0,0.0,0.0,0.0,0.0,0.0,0.0,0.0,-22.06471061706543,-0.12277937680482864,-0.2510429918766022,0.0,0.0,0.0,0.0,0.0,0.0,0.0,0.0,0.0,0.004544579423964024,0.00910599809139967,0.015764065086841583,0.0,0.0,0.0,0.0,0.0,0.0,0.0,0.0,0.0
1606987781730521325,1467645,1606984180028072543,imu_link,0.0023547252640128136,0.0006344303255900741,0.19136545062065125,-0.9815158843994141,0.0,0.0,0.0,0.0,0.0,0.0,0.0,0.0,0.0,-22.064756393432617,-0.122993104159832,-0.2509330213069916,0.0,0.0,0.0,0.0,0.0,0.0,0.0,0.0,0.0,-0.0009183257352560759,0.015997910872101784,0.06322796642780304,0.0,0.0,0.0,0.0,0.0,0.0,0.0,0.0,0.0
1606987781730534148,1467646,1606984180028147589,imu_link,0.0023547252640128136,0.0006344303255900741,0.19136545062065125,-0.9815158843994141,0.0,0.0,0.0,0.0,0.0,0.0,0.0,0.0,0.0,-22.064756393432617,-0.122993104159832,-0.2509330213069916,0.0,0.0,0.0,0.0,0.0,0.0,0.0,0.0,0.0,-0.0009183257352560759,0.015997910872101784,0.06322796642780304,0.0,0.0,0.0,0.0,0.0,0.0,0.0,0.0,0.0
1606987781730543225,1467647,1606984180028214002,imu_link,0.002356511540710926,0.0006334566278383136,0.19136682152748108,-0.9815155863761902,0.0,0.0,0.0,0.0,0.0,0.0,0.0,0.0,0.0,-22.06492042541504,-0.1229231059551239,-0.25115516781806946,0.0,0.0,0.0,0.0,0.0,0.0,0.0,0.0,0.0,0.0022428599186241627,0.012283206917345524,0.07148485630750656,0.0,0.0,0.0,0.0,0.0,0.0,0.0,0.0,0.0
1606987781730559874,1467648,1606984180028288583,imu_link,0.002356511540710926,0.0006334566278383136,0.19136682152748108,-0.9815155863761902,0.0,0.0,0.0,0.0,0.0,0.0,0.0,0.0,0.0,-22.06492042541504,-0.1229231059551239,-0.25115516781806946,0.0,0.0,0.0,0.0,0.0,0.0,0.0,0.0,0.0,0.0022428599186241627,0.012283206917345524,0.07148485630750656,0.0,0.0,0.0,0.0,0.0,0.0,0.0,0.0,0.0
1606987781733948248,1467649,1606984180028357346,imu_link,0.0023565625306218863,0.0006318293744698167,0.19136475026607513,-0.9815160036087036,0.0,0.0,0.0,0.0,0.0,0.0,0.0,0.0,0.0,-22.064678192138672,-0.12274066358804703,-0.25119680166244507,0.0,0.0,0.0,0.0,0.0,0.0,0.0,0.0,0.0,0.0004760742885991931,0.004389681853353977,0.0565231554210186,0.0,0.0,0.0,0.0,0.0,0.0,0.0,0.0,0.0
1606987781733989478,1467650,1606984180028422216,imu_link,0.0023565625306218863,0.0006318293744698167,0.19136475026607513,-0.9815160036087036,0.0,0.0,0.0,0.0,0.0,0.0,0.0,0.0,0.0,-22.064678192138672,-0.12274066358804703,-0.25119680166244507,0.0,0.0,0.0,0.0,0.0,0.0,0.0,0.0,0.0,0.0004760742885991931,0.004389681853353977,0.0565231554210186,0.0,0.0,0.0,0.0,0.0,0.0,0.0,0.0,0.0
1606987781734005814,1467651,1606984180028487098,imu_link,0.0023561683483421803,0.000631071743555367,0.19136396050453186,-0.9815161824226379,0.0,0.0,0.0,0.0,0.0,0.0,0.0,0.0,0.0,-22.06458282470703,-0.12264660745859146,-0.25116920471191406,0.0,0.0,0.0,0.0,0.0,0.0,0.0,0.0,0.0,0.00468797842040658,-0.017347771674394608,0.060622695833444595,0.0,0.0,0.0,0.0,0.0,0.0,0.0,0.0,0.0
1606987781734033434,1467652,1606984180028553608,imu_link,0.0023561683483421803,0.000631071743555367,0.19136396050453186,-0.9815161824226379,0.0,0.0,0.0,0.0,0.0,0.0,0.0,0.0,0.0,-22.06458282470703,-0.12264660745859146,-0.25116920471191406,0.0,0.0,0.0,0.0,0.0,0.0,0.0,0.0,0.0,0.00468797842040658,-0.017347771674394608,0.060622695833444595,0.0,0.0,0.0,0.0,0.0,0.0,0.0,0.0,0.0
1606987781793751491,1467653,1606984180028627010,imu_link,0.0023549573961645365,0.0006281791138462722,0.19136233627796173,-0.9815164804458618,0.0,0.0,0.0,0.0,0.0,0.0,0.0,0.0,0.0,-22.064395904541016,-0.12229429185390472,-0.2510966360569,0.0,0.0,0.0,0.0,0.0,0.0,0.0,0.0,0.0,0.0031627470161765814,-0.020732233300805092,0.05056408420205116,0.0,0.0,0.0,0.0,0.0,0.0,0.0,0.0,0.0
1606987781793767339,1467654,1606984180040840221,imu_link,0.0023549573961645365,0.0006281791138462722,0.19136233627796173,-0.9815164804458618,0.0,0.0,0.0,0.0,0.0,0.0,0.0,0.0,0.0,-22.064395904541016,-0.12229429185390472,-0.2510966360569,0.0,0.0,0.0,0.0,0.0,0.0,0.0,0.0,0.0,0.0031627470161765814,-0.020732233300805092,0.05056408420205116,0.0,0.0,0.0,0.0,0.0,0.0,0.0,0.0,0.0
1606987781793773842,1467655,1606984180040955147,imu_link,0.0023509750608354807,0.0006297751679085195,0.19136306643486023,-0.9815163612365723,0.0,0.0,0.0,0.0,0.0,0.0,0.0,0.0,0.0,-22.06447982788086,-0.12238667160272598,-0.25061360001564026,0.0,0.0,0.0,0.0,0.0,0.0,0.0,0.0,0.0,-0.005195550620555878,-0.014299158938229084,0.05153818055987358,0.0,0.0,0.0,0.0,0.0,0.0,0.0,0.0,0.0
1606987781793784286,1467656,1606984180041077338,imu_link,0.0023509750608354807,0.0006297751679085195,0.19136306643486023,-0.9815163612365723,0.0,0.0,0.0,0.0,0.0,0.0,0.0,0.0,0.0,-22.06447982788086,-0.12238667160272598,-0.25061360001564026,0.0,0.0,0.0,0.0,0.0,0.0,0.0,0.0,0.0,-0.005195550620555878,-0.014299158938229084,0.05153818055987358,0.0,0.0,0.0,0.0,0.0,0.0,0.0,0.0,0.0
1606987781793795422,1467657,1606984180041158566,imu_link,0.002350039314478636,0.000629815214779228,0.1913623809814453,-0.9815164804458618,0.0,0.0,0.0,0.0,0.0,0.0,0.0,0.0,0.0,-22.064401626586914,-0.12237047404050827,-0.2505075931549072,0.0,0.0,0.0,0.0,0.0,0.0,0.0,0.0,0.0,-0.0006786101730540395,-0.004926564637571573,0.0460362546145916,0.0,0.0,0.0,0.0,0.0,0.0,0.0,0.0,0.0
1606987781800752660,1467658,1606984180041227886,imu_link,0.002350039314478636,0.000629815214779228,0.1913623809814453,-0.9815164804458618,0.0,0.0,0.0,0.0,0.0,0.0,0.0,0.0,0.0,-22.064401626586914,-0.12237047404050827,-0.2505075931549072,0.0,0.0,0.0,0.0,0.0,0.0,0.0,0.0,0.0,-0.0006786101730540395,-0.004926564637571573,0.0460362546145916,0.0,0.0,0.0,0.0,0.0,0.0,0.0,0.0,0.0
1606987781800779387,1467659,1606984180041315373,imu_link,0.002350839553400874,0.0006301344255916774,0.19136185944080353,-0.9815165996551514,0.0,0.0,0.0,0.0,0.0,0.0,0.0,0.0,0.0,-22.06433868408203,-0.12242379784584045,-0.25059062242507935,0.0,0.0,0.0,0.0,0.0,0.0,0.0,0.0,0.0,-0.00774118909612298,0.014383162371814251,0.048217691481113434,0.0,0.0,0.0,0.0,0.0,0.0,0.0,0.0,0.0
