%time,field.header.seq,field.header.stamp,field.header.frame_id,field.orientation.x,field.orientation.y,field.orientation.z,field.orientation.w,field.orientation_covariance0,field.orientation_covariance1,field.orientation_covariance2,field.orientation_covariance3,field.orientation_covariance4,field.orientation_covariance5,field.orientation_covariance6,field.orientation_covariance7,field.orientation_covariance8,field.angular_velocity.x,field.angular_velocity.y,field.angular_velocity.z,field.angular_velocity_covariance0,field.angular_velocity_covariance1,field.angular_velocity_covariance2,field.angular_velocity_covariance3,field.angular_velocity_covariance4,field.angular_velocity_covariance5,field.angular_velocity_covariance6,field.angular_velocity_covariance7,field.angular_velocity_covariance8,field.linear_acceleration.x,field.linear_acceleration.y,field.linear_acceleration.z,field.linear_acceleration_covariance0,field.linear_acceleration_covariance1,field.linear_acceleration_covariance2,field.linear_acceleration_covariance3,field.linear_acceleration_covariance4,field.linear_acceleration_covariance5,field.linear_acceleration_covariance6,field.linear_acceleration_covariance7,field.linear_acceleration_covariance8
1606987854311982524,1526506,1606984253607978285,imu_link,-0.0005817186902277172,-0.000972515088506043,0.2509678602218628,-0.9679948091506958,0.0,0.0,0.0,0.0,0.0,0.0,0.0,0.0,0.0,-29.069561004638672,0.12460491061210632,0.036558303982019424,0.0,0.0,0.0,0.0,0.0,0.0,0.0,0.0,0.0,-0.00807253085076809,0.008547934703528881,0.058777838945388794,0.0,0.0,0.0,0.0,0.0,0.0,0.0,0.0,0.0
1606987854312010722,1526507,1606984253608125566,imu_link,-0.0005787706468254328,-0.0009717377251945436,0.2509635090827942,-0.9679959416389465,0.0,0.0,0.0,0.0,0.0,0.0,0.0,0.0,0.0,-29.069047927856445,0.1244337409734726,0.03625420853495598,0.0,0.0,0.0,0.0,0.0,0.0,0.0,0.0,0.0,-0.00333968224003911,0.008018006570637226,0.051887720823287964,0.0,0.0,0.0,0.0,0.0,0.0,0.0,0.0,0.0
1606987854312024408,1526508,1606984253608270952,imu_link,-0.0005787706468254328,-0.0009717377251945436,0.2509635090827942,-0.9679959416389465,0.0,0.0,0.0,0.0,0.0,0.0,0.0,0.0,0.0,-29.069047927856445,0.1244337409734726,0.03625420853495598,0.0,0.0,0.0,0.0,0.0,0.0,0.0,0.0,0.0,-0.00333968224003911,0.008018006570637226,0.051887720823287964,0.0,0.0,0.0,0.0,0.0,0.0,0.0,0.0,0.0
1606987854312043951,1526509,1606984253608371239,imu_link,-0.0005787615082226694,-0.000970776891335845,0.25096312165260315,-0.9679960608482361,0.0,0.0,0.0,0.0,0.0,0.0,0.0,0.0,0.0,-29.069000244140625,0.12432688474655151,0.03628087416291237,0.0,0.0,0.0,0.0,0.0,0.0,0.0,0.0,0.0,-0.004181857220828533,-0.0018581909826025367,0.028620529919862747,0.0,0.0,0.0,0.0,0.0,0.0,0.0,0.0,0.0
1606987854317100258,1526510,1606984253608457529,imu_link,-0.0005787615082226694,-0.000970776891335845,0.25096312165260315,-0.9679960608482361,0.0,0.0,0.0,0.0,0.0,0.0,0.0,0.0,0.0,-29.069000244140625,0.12432688474655151,0.03628087416291237,0.0,0.0,0.0,0.0,0.0,0.0,0.0,0.0,0.0,-0.004181857220828533,-0.0018581909826025367,0.028620529919862747,0.0,0.0,0.0,0.0,0.0,0.0,0.0,0.0,0.0
1606987854317135005,1526511,1606984253608538261,imu_link,-0.0005789714050479233,-0.0009687817073427141,0.2509610652923584,-0.9679965972900391,0.0,0.0,0.0,0.0,0.0,0.0,0.0,0.0,0.0,-29.068758010864258,0.12411153316497803,0.036361802369356155,0.0,0.0,0.0,0.0,0.0,0.0,0.0,0.0,0.0,-0.008779697120189667,-0.0023967125453054905,0.0028750046622008085,0.0,0.0,0.0,0.0,0.0,0.0,0.0,0.0,0.0
1606987854317146374,1526512,1606984253608646085,imu_link,-0.0005789714050479233,-0.0009687817073427141,0.2509610652923584,-0.9679965972900391,0.0,0.0,0.0,0.0,0.0,0.0,0.0,0.0,0.0,-29.068758010864258,0.12411153316497803,0.036361802369356155,0.0,0.0,0.0,0.0,0.0,0.0,0.0,0.0,0.0,-0.008779697120189667,-0.0023967125453054905,0.0028750046622008085,0.0,0.0,0.0,0.0,0.0,0.0,0.0,0.0,0.0
1606987854317160915,1526513,1606984253608728185,imu_link,-0.000578573439270258,-0.0009685437544248998,0.25096046924591064,-0.9679967164993286,0.0,0.0,0.0,0.0,0.0,0.0,0.0,0.0,0.0,-29.06868553161621,0.12407367676496506,0.036324575543403625,0.0,0.0,0.0,0.0,0.0,0.0,0.0,0.0,0.0,-0.0047299619764089584,0.0029305312782526016,0.016214709728956223,0.0,0.0,0.0,0.0,0.0,0.0,0.0,0.0,0.0
1606987854381213192,1526514,1606984253608815342,imu_link,-0.000578573439270258,-0.0009685437544248998,0.25096046924591064,-0.9679967164993286,0.0,0.0,0.0,0.0,0.0,0.0,0.0,0.0,0.0,-29.06868553161621,0.12407367676496506,0.036324575543403625,0.0,0.0,0.0,0.0,0.0,0.0,0.0,0.0,0.0,-0.0047299619764089584,0.0029305312782526016,0.016214709728956223,0.0,0.0,0.0,0.0,0.0,0.0,0.0,0.0,0.0
1606987854381277526,1526515,1606984253608902419,imu_link,-0.0005768247647210956,-0.0009683871176093817,0.2509634494781494,-0.9679959416389465,0.0,0.0,0.0,0.0,0.0,0.0,0.0,0.0,0.0,-29.069040298461914,0.12400612235069275,0.03613472729921341,0.0,0.0,0.0,0.0,0.0,0.0,0.0,0.0,0.0,-0.0014394576428458095,0.007971538230776787,0.03920228034257889,0.0,0.0,0.0,0.0,0.0,0.0,0.0,0.0,0.0
1606987854381294464,1526516,1606984253608983772,imu_link,-0.0005768247647210956,-0.0009683871176093817,0.2509634494781494,-0.9679959416389465,0.0,0.0,0.0,0.0,0.0,0.0,0.0,0.0,0.0,-29.069040298461914,0.12400612235069275,0.03613472729921341,0.0,0.0,0.0,0.0,0.0,0.0,0.0,0.0,0.0,-0.0014394576428458095,0.007971538230776787,0.03920228034257889,0.0,0.0,0.0,0.0,0.0,0.0,0.0,0.0,0.0
1606987854381321913,1526517,1606984253621505917,imu_link,-0.0005759699852205813,-0.0009678184287622571,0.2509633004665375,-0.9679959416389465,0.0,0.0,0.0,0.0,0.0,0.0,0.0,0.0,0.0,-29.06902313232422,0.12391845136880875,0.036056291311979294,0.0,0.0,0.0,0.0,0.0,0.0,0.0,0.0,0.0,0.005177915561944246,0.014489772729575634,0.043065350502729416,0.0,0.0,0.0,0.0,0.0,0.0,0.0,0.0,0.0
1606987854381364495,1526518,1606984253621644122,imu_link,-0.0005759699852205813,-0.0009678184287622571,0.2509633004665375,-0.9679959416389465,0.0,0.0,0.0,0.0,0.0,0.0,0.0,0.0,0.0,-29.06902313232422,0.12391845136880875,0.036056291311979294,0.0,0.0,0.0,0.0,0.0,0.0,0.0,0.0,0.0,0.005177915561944246,0.014489772729575634,0.043065350502729416,0.0,0.0,0.0,0.0,0.0,0.0,0.0,0.0,0.0
1606987854385240450,1526519,1606984253621793638,imu_link,-0.0005724112852476537,-0.0009709890000522137,0.2509680390357971,-0.967994749546051,0.0,0.0,0.0,0.0,0.0,0.0,0.0,0.0,0.0,-29.069583892822266,0.12416797876358032,0.035569753497838974,0.0,0.0,0.0,0.0,0.0,0.0,0.0,0.0,0.0,0.0028999499045312405,0.016870930790901184,0.054343946278095245,0.0,0.0,0.0,0.0,0.0,0.0,0.0,0.0,0.0
1606987854385261156,1526520,1606984253621875798,imu_link,-0.0005724112852476537,-0.0009709890000522137,0.2509680390357971,-0.967994749546051,0.0,0.0,0.0,0.0,0.0,0.0,0.0,0.0,0.0,-29.069583892822266,0.12416797876358032,0.035569753497838974,0.0,0.0,0.0,0.0,0.0,0.0,0.0,0.0,0.0,0.0028999499045312405,0.016870930790901184,0.054343946278095245,0.0,0.0,0.0,0.0,0.0,0.0,0.0,0.0,0.0
1606987854385270968,1526521,1606984253621950421,imu_link,-0.0005727678653784096,-0.0009705945267342031,0.25096595287323,-0.967995285987854,0.0,0.0,0.0,0.0,0.0,0.0,0.0,0.0,0.0,-29.069337844848633,0.12413438409566879,0.03562091663479805,0.0,0.0,0.0,0.0,0.0,0.0,0.0,0.0,0.0,0.0034961600322276354,0.011253759264945984,0.07149581611156464,0.0,0.0,0.0,0.0,0.0,0.0,0.0,0.0,0.0
1606987854385279668,1526522,1606984253622037943,imu_link,-0.0005727678653784096,-0.0009705945267342031,0.25096595287323,-0.967995285987854,0.0,0.0,0.0,0.0,0.0,0.0,0.0,0.0,0.0,-29.069337844848633,0.12413438409566879,0.03562091663479805,0.0,0.0,0.0,0.0,0.0,0.0,0.0,0.0,0.0,0.0034961600322276354,0.011253759264945984,0.07149581611156464,0.0,0.0,0.0,0.0,0.0,0.0,0.0,0.0,0.0
1606987854392054462,1526523,1606984253622132662,imu_link,-0.0005690783145837486,-0.0009698282228782773,0.2509610056877136,-0.9679965972900391,0.0,0.0,0.0,0.0,0.0,0.0,0.0,0.0,0.0,-29.068750381469727,0.12394311279058456,0.03523432835936546,0.0,0.0,0.0,0.0,0.0,0.0,0.0,0.0,0.0,-0.00010633602505549788,0.014678527601063251,0.06019064038991928,0.0,0.0,0.0,0.0,0.0,0.0,0.0,0.0,0.0
1606987854392080859,1526524,1606984253622212567,imu_link,-0.0005690783145837486,-0.0009698282228782773,0.2509610056877136,-0.9679965972900391,0.0,0.0,0.0,0.0,0.0,0.0,0.0,0.0,0.0,-29.068750381469727,0.12394311279058456,0.03523432835936546,0.0,0.0,0.0,0.0,0.0,0.0,0.0,0.0,0.0,-0.00010633602505549788,0.014678527601063251,0.06019064038991928,0.0,0.0,0.0,0.0,0.0,0.0,0.0,0.0,0.0
1606987854392096210,1526525,1606984253622374121,imu_link,-0.0005702427006326616,-0.0009705206612125039,0.2509600520133972,-0.9679968357086182,0.0,0.0,0.0,0.0,0.0,0.0,0.0,0.0,0.0,-29.06863784790039,0.12405337393283844,0.03534369543194771,0.0,0.0,0.0,0.0,0.0,0.0,0.0,0.0,0.0,0.014305537566542625,0.004632629454135895,0.05270063877105713,0.0,0.0,0.0,0.0,0.0,0.0,0.0,0.0,0.0
1606987854392108426,1526526,1606984253622457234,imu_link,-0.0005702427006326616,-0.0009705206612125039,0.2509600520133972,-0.9679968357086182,0.0,0.0,0.0,0.0,0.0,0.0,0.0,0.0,0.0,-29.06863784790039,0.12405337393283844,0.03534369543194771,0.0,0.0,0.0,0.0,0.0,0.0,0.0,0.0,0.0,0.014305537566542625,0.004632629454135895,0.05270063877105713,0.0,0.0,0.0,0.0,0.0,0.0,0.0,0.0,0.0
1606987854392123096,1526527,1606984253622543548,imu_link,-0.0005702326889149845,-0.0009707363205961883,0.2509598433971405,-0.9679968357086182,0.0,0.0,0.0,0.0,0.0,0.0,0.0,0.0,0.0,-29.068614959716797,0.12407698482275009,0.03533640876412392,0.0,0.0,0.0,0.0,0.0,0.0,0.0,0.0,0.0,0.011275539174675941,0.0006562150083482265,0.039541516453027725,0.0,0.0,0.0,0.0,0.0,0.0,0.0,0.0,0.0
1606987854398186894,1526528,1606984253635327780,imu_link,-0.0005702326889149845,-0.0009707363205961883,0.2509598433971405,-0.9679968357086182,0.0,0.0,0.0,0.0,0.0,0.0,0.0,0.0,0.0,-29.068614959716797,0.12407698482275009,0.03533640876412392,0.0,0.0,0.0,0.0,0.0,0.0,0.0,0.0,0.0,0.011275539174675941,0.0006562150083482265,0.039541516453027725,0.0,0.0,0.0,0.0,0.0,0.0,0.0,0.0,0.0
1606987854398234693,1526529,1606984253635475757,imu_link,-0.000570598233025521,-0.0009713253239169717,0.25095951557159424,-0.9679969549179077,0.0,0.0,0.0,0.0,0.0,0.0,0.0,0.0,0.0,-29.06857681274414,0.12415282428264618,0.03536006063222885,0.0,0.0,0.0,0.0,0.0,0.0,0.0,0.0,0.0,-0.010055786930024624,-0.01067773625254631,0.023942114785313606,0.0,0.0,0.0,0.0,0.0,0.0,0.0,0.0,0.0
1606987854398248010,1526530,1606984253635564107,imu_link,-0.000570598233025521,-0.0009713253239169717,0.25095951557159424,-0.9679969549179077,0.0,0.0,0.0,0.0,0.0,0.0,0.0,0.0,0.0,-29.06857681274414,0.12415282428264618,0.03536006063222885,0.0,0.0,0.0,0.0,0.0,0.0,0.0,0.0,0.0,-0.010055786930024624,-0.01067773625254631,0.023942114785313606,0.0,0.0,0.0,0.0,0.0,0.0,0.0,0.0,0.0
1606987854398257506,1526531,1606984253635660054,imu_link,-0.0005712230922654271,-0.0009680447983555496,0.25095897912979126,-0.967997133731842,0.0,0.0,0.0,0.0,0.0,0.0,0.0,0.0,0.0,-29.068511962890625,0.12380688637495041,0.035523783415555954,0.0,0.0,0.0,0.0,0.0,0.0,0.0,0.0,0.0,-0.012435675598680973,-0.013338150456547737,0.03615913167595863,0.0,0.0,0.0,0.0,0.0,0.0,0.0,0.0,0.0
1606987854450257545,1526532,1606984253635750904,imu_link,-0.0005712230922654271,-0.0009680447983555496,0.25095897912979126,-0.967997133731842,0.0,0.0,0.0,0.0,0.0,0.0,0.0,0.0,0.0,-29.068511962890625,0.12380688637495041,0.035523783415555954,0.0,0.0,0.0,0.0,0.0,0.0,0.0,0.0,0.0,-0.012435675598680973,-0.013338150456547737,0.03615913167595863,0.0,0.0,0.0,0.0,0.0,0.0,0.0,0.0,0.0
1606987854450281902,1526533,1606984253635836698,imu_link,-0.0005705530638806522,-0.0009687980054877698,0.2509591579437256,-0.9679970741271973,0.0,0.0,0.0,0.0,0.0,0.0,0.0,0.0,0.0,-29.068532943725586,0.12387116998434067,0.035427771508693695,0.0,0.0,0.0,0.0,0.0,0.0,0.0,0.0,0.0,-0.00563030643388629,0.0011796954786404967,0.037621092051267624,0.0,0.0,0.0,0.0,0.0,0.0,0.0,0.0,0.0
1606987854450327491,1526534,1606984253635944257,imu_link,-0.0005705530638806522,-0.0009687980054877698,0.2509591579437256,-0.9679970741271973,0.0,0.0,0.0,0.0,0.0,0.0,0.0,0.0,0.0,-29.068532943725586,0.12387116998434067,0.035427771508693695,0.0,0.0,0.0,0.0,0.0,0.0,0.0,0.0,0.0,-0.00563030643388629,0.0011796954786404967,0.037621092051267624,0.0,0.0,0.0,0.0,0.0,0.0,0.0,0.0,0.0
1606987854450353335,1526535,1606984253636039362,imu_link,-0.0005690192920155823,-0.0009650435531511903,0.2509612441062927,-0.9679965376853943,0.0,0.0,0.0,0.0,0.0,0.0,0.0,0.0,0.0,-29.06877899169922,0.1234106793999672,0.03536534309387207,0.0,0.0,0.0,0.0,0.0,0.0,0.0,0.0,0.0,0.0037137882318347692,-0.015810798853635788,0.033288683742284775,0.0,0.0,0.0,0.0,0.0,0.0,0.0,0.0,0.0
1606987854450359865,1526536,1606984253636177998,imu_link,-0.0005690192920155823,-0.0009650435531511903,0.2509612441062927,-0.9679965376853943,0.0,0.0,0.0,0.0,0.0,0.0,0.0,0.0,0.0,-29.06877899169922,0.1234106793999672,0.03536534309387207,0.0,0.0,0.0,0.0,0.0,0.0,0.0,0.0,0.0,0.0037137882318347692,-0.015810798853635788,0.033288683742284775,0.0,0.0,0.0,0.0,0.0,0.0,0.0,0.0,0.0
1606987854460238528,1526537,1606984253636264327,imu_link,-0.0005683669587597251,-0.0009627107647247612,0.25096049904823303,-0.9679967761039734,0.0,0.0,0.0,0.0,0.0,0.0,0.0,0.0,0.0,-29.068689346313477,0.12313313782215118,0.03536016866564751,0.0,0.0,0.0,0.0,0.0,0.0,0.0,0.0,0.0,-0.0008942060521803796,-0.01726994290947914,0.03339696303009987,0.0,0.0,0.0,0.0,0.0,0.0,0.0,0.0,0.0
1606987854460267006,1526538,1606984253636341997,imu_link,-0.0005683669587597251,-0.0009627107647247612,0.25096049904823303,-0.9679967761039734,0.0,0.0,0.0,0.0,0.0,0.0,0.0,0.0,0.0,-29.068689346313477,0.12313313782215118,0.03536016866564751,0.0,0.0,0.0,0.0,0.0,0.0,0.0,0.0,0.0,-0.0008942060521803796,-0.01726994290947914,0.03339696303009987,0.0,0.0,0.0,0.0,0.0,0.0,0.0,0.0,0.0
1606987854460280218,1526539,1606984253648776063,imu_link,-0.0005704612121917307,-0.000960600096732378,0.2509547472000122,-0.9679981470108032,0.0,0.0,0.0,0.0,0.0,0.0,0.0,0.0,0.0,-29.068012237548828,0.12295901775360107,0.03565390035510063,0.0,0.0,0.0,0.0,0.0,0.0,0.0,0.0,0.0,0.0022199030499905348,-0.012831817381083965,0.04673050716519356,0.0,0.0,0.0,0.0,0.0,0.0,0.0,0.0,0.0
1606987854460306145,1526540,1606984253648966705,imu_link,-0.0005704612121917307,-0.000960600096732378,0.2509547472000122,-0.9679981470108032,0.0,0.0,0.0,0.0,0.0,0.0,0.0,0.0,0.0,-29.068012237548828,0.12295901775360107,0.03565390035510063,0.0,0.0,0.0,0.0,0.0,0.0,0.0,0.0,0.0,0.0022199030499905348,-0.012831817381083965,0.04673050716519356,0.0,0.0,0.0,0.0,0.0,0.0,0.0,0.0,0.0
1606987854494291540,1526541,1606984253649093247,imu_link,-0.0005706989322789013,-0.0009603303042240441,0.2509542405605316,-0.9679982662200928,0.0,0.0,0.0,0.0,0.0,0.0,0.0,0.0,0.0,-29.067951202392578,0.12293589860200882,0.035688091069459915,0.0,0.0,0.0,0.0,0.0,0.0,0.0,0.0,0.0,0.0066593666560947895,-0.011279802769422531,0.057617660611867905,0.0,0.0,0.0,0.0,0.0,0.0,0.0,0.0,0.0
1606987854494346109,1526542,1606984253649185556,imu_link,-0.0005706989322789013,-0.0009603303042240441,0.2509542405605316,-0.9679982662200928,0.0,0.0,0.0,0.0,0.0,0.0,0.0,0.0,0.0,-29.067951202392578,0.12293589860200882,0.035688091069459915,0.0,0.0,0.0,0.0,0.0,0.0,0.0,0.0,0.0,0.0066593666560947895,-0.011279802769422531,0.057617660611867905,0.0,0.0,0.0,0.0,0.0,0.0,0.0,0.0,0.0
1606987854494358965,1526543,1606984253649277248,imu_link,-0.0005736310849897563,-0.0009609174448996782,0.2509481608867645,-0.9679999351501465,0.0,0.0,0.0,0.0,0.0,0.0,0.0,0.0,0.0,-29.067230224609375,0.1230851411819458,0.03599722683429718,0.0,0.0,0.0,0.0,0.0,0.0,0.0,0.0,0.0,0.006667866371572018,-0.004761856980621815,0.054683979600667953,0.0,0.0,0.0,0.0,0.0,0.0,0.0,0.0,0.0
1606987854494376719,1526544,1606984253649380703,imu_link,-0.0005736310849897563,-0.0009609174448996782,0.2509481608867645,-0.9679999351501465,0.0,0.0,0.0,0.0,0.0,0.0,0.0,0.0,0.0,-29.067230224609375,0.1230851411819458,0.03599722683429718,0.0,0.0,0.0,0.0,0.0,0.0,0.0,0.0,0.0,0.006667866371572018,-0.004761856980621815,0.054683979600667953,0.0,0.0,0.0,0.0,0.0,0.0,0.0,0.0,0.0
1606987854494393593,1526545,1606984253649464973,imu_link,-0.0005731376586481929,-0.0009585813386365771,0.25094640254974365,-0.9680004119873047,0.0,0.0,0.0,0.0,0.0,0.0,0.0,0.0,0.0,-29.0670223236084,0.12281175702810287,0.03600990027189255,0.0,0.0,0.0,0.0,0.0,0.0,0.0,0.0,0.0,0.0015496041160076857,-0.00538310781121254,0.07332919538021088,0.0,0.0,0.0,0.0,0.0,0.0,0.0,0.0,0.0
1606987854504954019,1526546,1606984253649546551,imu_link,-0.0005731376586481929,-0.0009585813386365771,0.25094640254974365,-0.9680004119873047,0.0,0.0,0.0,0.0,0.0,0.0,0.0,0.0,0.0,-29.0670223236084,0.12281175702810287,0.03600990027189255,0.0,0.0,0.0,0.0,0.0,0.0,0.0,0.0,0.0,0.0015496041160076857,-0.00538310781121254,0.07332919538021088,0.0,0.0,0.0,0.0,0.0,0.0,0.0,0.0,0.0
1606987854504988052,1526547,1606984253649628847,imu_link,-0.0005759583436883986,-0.0009603245998732746,0.2509446144104004,-0.9680008292198181,0.0,0.0,0.0,0.0,0.0,0.0,0.0,0.0,0.0,-29.066810607910156,0.12308616191148758,0.03627288341522217,0.0,0.0,0.0,0.0,0.0,0.0,0.0,0.0,0.0,-0.007490938063710928,-0.013002446852624416,0.07443138211965561,0.0,0.0,0.0,0.0,0.0,0.0,0.0,0.0,0.0
1606987854505059669,1526548,1606984253649709028,imu_link,-0.0005759583436883986,-0.0009603245998732746,0.2509446144104004,-0.9680008292198181,0.0,0.0,0.0,0.0,0.0,0.0,0.0,0.0,0.0,-29.066810607910156,0.12308616191148758,0.03627288341522217,0.0,0.0,0.0,0.0,0.0,0.0,0.0,0.0,0.0,-0.007490938063710928,-0.013002446852624416,0.07443138211965561,0.0,0.0,0.0,0.0,0.0,0.0,0.0,0.0,0.0
1606987854505094040,1526549,1606984253649790992,imu_link,-0.0005755573511123657,-0.0009607021929696202,0.2509443461894989,-0.9680008888244629,0.0,0.0,0.0,0.0,0.0,0.0,0.0,0.0,0.0,-29.06678009033203,0.12311650067567825,0.0362175777554512,0.0,0.0,0.0,0.0,0.0,0.0,0.0,0.0,0.0,-0.013044429942965508,-0.018963702023029327,0.053778957575559616,0.0,0.0,0.0,0.0,0.0,0.0,0.0,0.0,0.0
1606987854540707149,1526550,1606984253661636607,imu_link,-0.0005755573511123657,-0.0009607021929696202,0.2509443461894989,-0.9680008888244629,0.0,0.0,0.0,0.0,0.0,0.0,0.0,0.0,0.0,-29.06678009033203,0.12311650067567825,0.0362175777554512,0.0,0.0,0.0,0.0,0.0,0.0,0.0,0.0,0.0,-0.013044429942965508,-0.018963702023029327,0.053778957575559616,0.0,0.0,0.0,0.0,0.0,0.0,0.0,0.0,0.0
1606987854540748968,1526551,1606984253661727296,imu_link,-0.0005778503837063909,-0.0009547318913973868,0.2509413957595825,-0.968001663684845,0.0,0.0,0.0,0.0,0.0,0.0,0.0,0.0,0.0,-29.066429138183594,0.1225200742483139,0.03664398938417435,0.0,0.0,0.0,0.0,0.0,0.0,0.0,0.0,0.0,-0.010463383980095387,0.001281415345147252,0.04234389215707779,0.0,0.0,0.0,0.0,0.0,0.0,0.0,0.0,0.0
1606987854540757008,1526552,1606984253661835550,imu_link,-0.0005778503837063909,-0.0009547318913973868,0.2509413957595825,-0.968001663684845,0.0,0.0,0.0,0.0,0.0,0.0,0.0,0.0,0.0,-29.066429138183594,0.1225200742483139,0.03664398938417435,0.0,0.0,0.0,0.0,0.0,0.0,0.0,0.0,0.0,-0.010463383980095387,0.001281415345147252,0.04234389215707779,0.0,0.0,0.0,0.0,0.0,0.0,0.0,0.0,0.0
1606987854540767596,1526553,1606984253661890090,imu_link,-0.0005785144167020917,-0.0009536342695355415,0.2509390115737915,-0.9680023193359375,0.0,0.0,0.0,0.0,0.0,0.0,0.0,0.0,0.0,-29.06614875793457,0.12241733819246292,0.03674950450658798,0.0,0.0,0.0,0.0,0.0,0.0,0.0,0.0,0.0,-0.006360829807817936,0.01508883386850357,0.037546828389167786,0.0,0.0,0.0,0.0,0.0,0.0,0.0,0.0,0.0
1606987854540795998,1526554,1606984253661984835,imu_link,-0.0005785144167020917,-0.0009536342695355415,0.2509390115737915,-0.9680023193359375,0.0,0.0,0.0,0.0,0.0,0.0,0.0,0.0,0.0,-29.06614875793457,0.12241733819246292,0.03674950450658798,0.0,0.0,0.0,0.0,0.0,0.0,0.0,0.0,0.0,-0.006360829807817936,0.01508883386850357,0.037546828389167786,0.0,0.0,0.0,0.0,0.0,0.0,0.0,0.0,0.0
1606987854544521706,1526555,1606984253662048921,imu_link,-0.0005732719437219203,-0.0009527418296784163,0.2509368360042572,-0.9680028557777405,0.0,0.0,0.0,0.0,0.0,0.0,0.0,0.0,0.0,-29.065889358520508,0.12216750532388687,0.03619392588734627,0.0,0.0,0.0,0.0,0.0,0.0,0.0,0.0,0.0,0.0001048714475473389,0.007992730475962162,0.04769999161362648,0.0,0.0,0.0,0.0,0.0,0.0,0.0,0.0,0.0
1606987854544548656,1526556,1606984253662098873,imu_link,-0.0005732719437219203,-0.0009527418296784163,0.2509368360042572,-0.9680028557777405,0.0,0.0,0.0,0.0,0.0,0.0,0.0,0.0,0.0,-29.065889358520508,0.12216750532388687,0.03619392588734627,0.0,0.0,0.0,0.0,0.0,0.0,0.0,0.0,0.0,0.0001048714475473389,0.007992730475962162,0.04769999161362648,0.0,0.0,0.0,0.0,0.0,0.0,0.0,0.0,0.0
1606987854544563369,1526557,1606984253662151051,imu_link,-0.0005732859717682004,-0.0009532870026305318,0.25093647837638855,-0.96800297498703,0.0,0.0,0.0,0.0,0.0,0.0,0.0,0.0,0.0,-29.065847396850586,0.12222837656736374,0.03617984801530838,0.0,0.0,0.0,0.0,0.0,0.0,0.0,0.0,0.0,0.008115698583424091,-0.0035236391704529524,0.0433412604033947,0.0,0.0,0.0,0.0,0.0,0.0,0.0,0.0,0.0
1606987854544578655,1526558,1606984253662199337,imu_link,-0.0005732859717682004,-0.0009532870026305318,0.25093647837638855,-0.96800297498703,0.0,0.0,0.0,0.0,0.0,0.0,0.0,0.0,0.0,-29.065847396850586,0.12222837656736374,0.03617984801530838,0.0,0.0,0.0,0.0,0.0,0.0,0.0,0.0,0.0,0.008115698583424091,-0.0035236391704529524,0.0433412604033947,0.0,0.0,0.0,0.0,0.0,0.0,0.0,0.0,0.0
1606987854552229863,1526559,1606984253662247394,imu_link,-0.0005755540332756937,-0.0009549137903377414,0.2509336471557617,-0.9680036902427673,0.0,0.0,0.0,0.0,0.0,0.0,0.0,0.0,0.0,-29.065513610839844,0.12247393280267715,0.03638501092791557,0.0,0.0,0.0,0.0,0.0,0.0,0.0,0.0,0.0,0.005277235992252827,0.006461584474891424,0.050915397703647614,0.0,0.0,0.0,0.0,0.0,0.0,0.0,0.0,0.0
1606987854552255204,1526560,1606984253675472188,imu_link,-0.0005755540332756937,-0.0009549137903377414,0.2509336471557617,-0.9680036902427673,0.0,0.0,0.0,0.0,0.0,0.0,0.0,0.0,0.0,-29.065513610839844,0.12247393280267715,0.03638501092791557,0.0,0.0,0.0,0.0,0.0,0.0,0.0,0.0,0.0,0.005277235992252827,0.006461584474891424,0.050915397703647614,0.0,0.0,0.0,0.0,0.0,0.0,0.0,0.0,0.0
1606987854552264147,1526561,1606984253675581325,imu_link,-0.0005741117638535798,-0.0009533446282148361,0.25093182921409607,-0.9680041670799255,0.0,0.0,0.0,0.0,0.0,0.0,0.0,0.0,0.0,-29.06529426574707,0.12225833535194397,0.0362703800201416,0.0,0.0,0.0,0.0,0.0,0.0,0.0,0.0,0.0,0.012799584306776524,0.025393296033143997,0.04295339807868004,0.0,0.0,0.0,0.0,0.0,0.0,0.0,0.0,0.0
1606987854552278458,1526562,1606984253675688646,imu_link,-0.0005741117638535798,-0.0009533446282148361,0.25093182921409607,-0.9680041670799255,0.0,0.0,0.0,0.0,0.0,0.0,0.0,0.0,0.0,-29.06529426574707,0.12225833535194397,0.0362703800201416,0.0,0.0,0.0,0.0,0.0,0.0,0.0,0.0,0.0,0.012799584306776524,0.025393296033143997,0.04295339807868004,0.0,0.0,0.0,0.0,0.0,0.0,0.0,0.0,0.0
1606987854552302638,1526563,1606984253675764450,imu_link,-0.0005688884994015098,-0.000957288546487689,0.2509344518184662,-0.968003511428833,0.0,0.0,0.0,0.0,0.0,0.0,0.0,0.0,0.0,-29.06560516357422,0.12254572659730911,0.03557725250720978,0.0,0.0,0.0,0.0,0.0,0.0,0.0,0.0,0.0,0.007863620296120644,0.010553810745477676,0.020623989403247833,0.0,0.0,0.0,0.0,0.0,0.0,0.0,0.0,0.0
1606987854558279178,1526564,1606984253675832035,imu_link,-0.0005688884994015098,-0.000957288546487689,0.2509344518184662,-0.968003511428833,0.0,0.0,0.0,0.0,0.0,0.0,0.0,0.0,0.0,-29.06560516357422,0.12254572659730911,0.03557725250720978,0.0,0.0,0.0,0.0,0.0,0.0,0.0,0.0,0.0,0.007863620296120644,0.010553810745477676,0.020623989403247833,0.0,0.0,0.0,0.0,0.0,0.0,0.0,0.0,0.0
1606987854558329157,1526565,1606984253675894599,imu_link,-0.0005705424700863659,-0.0009563117637299001,0.2509346306324005,-0.9680034518241882,0.0,0.0,0.0,0.0,0.0,0.0,0.0,0.0,0.0,-29.065629959106445,0.12248493731021881,0.03578878566622734,0.0,0.0,0.0,0.0,0.0,0.0,0.0,0.0,0.0,-0.009485350921750069,0.007908103056252003,0.00983103271573782,0.0,0.0,0.0,0.0,0.0,0.0,0.0,0.0,0.0
1606987854558346154,1526566,1606984253675978145,imu_link,-0.0005705424700863659,-0.0009563117637299001,0.2509346306324005,-0.9680034518241882,0.0,0.0,0.0,0.0,0.0,0.0,0.0,0.0,0.0,-29.065629959106445,0.12248493731021881,0.03578878566622734,0.0,0.0,0.0,0.0,0.0,0.0,0.0,0.0,0.0,-0.009485350921750069,0.007908103056252003,0.00983103271573782,0.0,0.0,0.0,0.0,0.0,0.0,0.0,0.0,0.0
1606987854558355625,1526567,1606984253676045752,imu_link,-0.0005694124265573919,-0.0009541622130200267,0.25093549489974976,-0.9680031538009644,0.0,0.0,0.0,0.0,0.0,0.0,0.0,0.0,0.0,-29.06573486328125,0.12221401929855347,0.03572513163089752,0.0,0.0,0.0,0.0,0.0,0.0,0.0,0.0,0.0,-0.013108035549521446,0.025350594893097878,0.004474753048270941,0.0,0.0,0.0,0.0,0.0,0.0,0.0,0.0,0.0
1606987854596758365,1526568,1606984253676112022,imu_link,-0.0005694124265573919,-0.0009541622130200267,0.25093549489974976,-0.9680031538009644,0.0,0.0,0.0,0.0,0.0,0.0,0.0,0.0,0.0,-29.06573486328125,0.12221401929855347,0.03572513163089752,0.0,0.0,0.0,0.0,0.0,0.0,0.0,0.0,0.0,-0.013108035549521446,0.025350594893097878,0.004474753048270941,0.0,0.0,0.0,0.0,0.0,0.0,0.0,0.0,0.0
1606987854596782676,1526569,1606984253676169963,imu_link,-0.000569077325053513,-0.0009529488743282855,0.25093549489974976,-0.9680031538009644,0.0,0.0,0.0,0.0,0.0,0.0,0.0,0.0,0.0,-29.06573486328125,0.12206979840993881,0.035722848027944565,0.0,0.0,0.0,0.0,0.0,0.0,0.0,0.0,0.0,0.005156149156391621,0.010563033632934093,0.01923910342156887,0.0,0.0,0.0,0.0,0.0,0.0,0.0,0.0,0.0
1606987854596857253,1526570,1606984253676232093,imu_link,-0.000569077325053513,-0.0009529488743282855,0.25093549489974976,-0.9680031538009644,0.0,0.0,0.0,0.0,0.0,0.0,0.0,0.0,0.0,-29.06573486328125,0.12206979840993881,0.035722848027944565,0.0,0.0,0.0,0.0,0.0,0.0,0.0,0.0,0.0,0.005156149156391621,0.010563033632934093,0.01923910342156887,0.0,0.0,0.0,0.0,0.0,0.0,0.0,0.0,0.0
1606987854596866527,1526571,1606984253688867461,imu_link,-0.0005674744606949389,-0.0009521657484583557,0.25093770027160645,-0.9680026173591614,0.0,0.0,0.0,0.0,0.0,0.0,0.0,0.0,0.0,-29.065994262695312,0.12193691730499268,0.03556729108095169,0.0,0.0,0.0,0.0,0.0,0.0,0.0,0.0,0.0,0.023696692660450935,-0.007582460064440966,0.02399146929383278,0.0,0.0,0.0,0.0,0.0,0.0,0.0,0.0,0.0
1606987854596881098,1526572,1606984253688976874,imu_link,-0.0005674744606949389,-0.0009521657484583557,0.25093770027160645,-0.9680026173591614,0.0,0.0,0.0,0.0,0.0,0.0,0.0,0.0,0.0,-29.065994262695312,0.12193691730499268,0.03556729108095169,0.0,0.0,0.0,0.0,0.0,0.0,0.0,0.0,0.0,0.023696692660450935,-0.007582460064440966,0.02399146929383278,0.0,0.0,0.0,0.0,0.0,0.0,0.0,0.0,0.0
1606987854601707649,1526573,1606984253689109529,imu_link,-0.0005666709039360285,-0.0009528717491775751,0.25093552470207214,-0.9680032134056091,0.0,0.0,0.0,0.0,0.0,0.0,0.0,0.0,0.0,-29.06573486328125,0.12199205160140991,0.03545813262462616,0.0,0.0,0.0,0.0,0.0,0.0,0.0,0.0,0.0,0.003765292000025511,-0.004157043062150478,0.018497612327337265,0.0,0.0,0.0,0.0,0.0,0.0,0.0,0.0,0.0
1606987854601724845,1526574,1606984253689190232,imu_link,-0.0005666709039360285,-0.0009528717491775751,0.25093552470207214,-0.9680032134056091,0.0,0.0,0.0,0.0,0.0,0.0,0.0,0.0,0.0,-29.06573486328125,0.12199205160140991,0.03545813262462616,0.0,0.0,0.0,0.0,0.0,0.0,0.0,0.0,0.0,0.003765292000025511,-0.004157043062150478,0.018497612327337265,0.0,0.0,0.0,0.0,0.0,0.0,0.0,0.0,0.0
1606987854601735994,1526575,1606984253689298759,imu_link,-0.00056597706861794,-0.00095476204296574,0.2509381175041199,-0.9680024981498718,0.0,0.0,0.0,0.0,0.0,0.0,0.0,0.0,0.0,-29.0660457611084,0.12218187004327774,0.035326484590768814,0.0,0.0,0.0,0.0,0.0,0.0,0.0,0.0,0.0,0.002060038736090064,-0.016270898282527924,0.022141631692647934,0.0,0.0,0.0,0.0,0.0,0.0,0.0,0.0,0.0
1606987854601745670,1526576,1606984253689370461,imu_link,-0.00056597706861794,-0.00095476204296574,0.2509381175041199,-0.9680024981498718,0.0,0.0,0.0,0.0,0.0,0.0,0.0,0.0,0.0,-29.0660457611084,0.12218187004327774,0.035326484590768814,0.0,0.0,0.0,0.0,0.0,0.0,0.0,0.0,0.0,0.002060038736090064,-0.016270898282527924,0.022141631692647934,0.0,0.0,0.0,0.0,0.0,0.0,0.0,0.0,0.0
1606987854610656111,1526577,1606984253689457218,imu_link,-0.000564068672247231,-0.0009540555183775723,0.2509367763996124,-0.9680028557777405,0.0,0.0,0.0,0.0,0.0,0.0,0.0,0.0,0.0,-29.065881729125977,0.12204857915639877,0.035135284066200256,0.0,0.0,0.0,0.0,0.0,0.0,0.0,0.0,0.0,0.016368713229894638,-0.02284843660891056,0.04778421297669411,0.0,0.0,0.0,0.0,0.0,0.0,0.0,0.0,0.0
1606987854610687110,1526578,1606984253689524666,imu_link,-0.000564068672247231,-0.0009540555183775723,0.2509367763996124,-0.9680028557777405,0.0,0.0,0.0,0.0,0.0,0.0,0.0,0.0,0.0,-29.065881729125977,0.12204857915639877,0.035135284066200256,0.0,0.0,0.0,0.0,0.0,0.0,0.0,0.0,0.0,0.016368713229894638,-0.02284843660891056,0.04778421297669411,0.0,0.0,0.0,0.0,0.0,0.0,0.0,0.0,0.0
1606987854610717596,1526579,1606984253689607389,imu_link,-0.0005693219718523324,-0.0009562016348354518,0.25094106793403625,-0.9680017232894897,0.0,0.0,0.0,0.0,0.0,0.0,0.0,0.0,0.0,-29.066390991210938,0.12243785709142685,0.03565575182437897,0.0,0.0,0.0,0.0,0.0,0.0,0.0,0.0,0.0,0.010008355602622032,0.004585746210068464,0.048600729554891586,0.0,0.0,0.0,0.0,0.0,0.0,0.0,0.0,0.0
1606987854610741749,1526580,1606984253689690391,imu_link,-0.0005693219718523324,-0.0009562016348354518,0.25094106793403625,-0.9680017232894897,0.0,0.0,0.0,0.0,0.0,0.0,0.0,0.0,0.0,-29.066390991210938,0.12243785709142685,0.03565575182437897,0.0,0.0,0.0,0.0,0.0,0.0,0.0,0.0,0.0,0.010008355602622032,0.004585746210068464,0.048600729554891586,0.0,0.0,0.0,0.0,0.0,0.0,0.0,0.0,0.0
1606987854615747795,1526581,1606984253689767663,imu_link,-0.0005677401786670089,-0.0009562242194078863,0.2509382665157318,-0.9680024981498718,0.0,0.0,0.0,0.0,0.0,0.0,0.0,0.0,0.0,-29.066059112548828,0.12239478528499603,0.035479992628097534,0.0,0.0,0.0,0.0,0.0,0.0,0.0,0.0,0.0,-0.0069001647643744946,0.018689895048737526,0.03426027297973633,0.0,0.0,0.0,0.0,0.0,0.0,0.0,0.0,0.0
1606987854615778869,1526582,1606984253702853943,imu_link,-0.0005677401786670089,-0.0009562242194078863,0.2509382665157318,-0.9680024981498718,0.0,0.0,0.0,0.0,0.0,0.0,0.0,0.0,0.0,-29.066059112548828,0.12239478528499603,0.035479992628097534,0.0,0.0,0.0,0.0,0.0,0.0,0.0,0.0,0.0,-0.0069001647643744946,0.018689895048737526,0.03426027297973633,0.0,0.0,0.0,0.0,0.0,0.0,0.0,0.0,0.0
1606987854615822134,1526583,1606984253703028182,imu_link,-0.0005635878769680858,-0.0009560316684655845,0.2509389817714691,-0.9680023193359375,0.0,0.0,0.0,0.0,0.0,0.0,0.0,0.0,0.0,-29.066144943237305,0.12225404381752014,0.03502484783530235,0.0,0.0,0.0,0.0,0.0,0.0,0.0,0.0,0.0,-0.008825704455375671,0.011937323957681656,0.03017490543425083,0.0,0.0,0.0,0.0,0.0,0.0,0.0,0.0,0.0
1606987854615869223,1526584,1606984253703152898,imu_link,-0.0005635878769680858,-0.0009560316684655845,0.2509389817714691,-0.9680023193359375,0.0,0.0,0.0,0.0,0.0,0.0,0.0,0.0,0.0,-29.066144943237305,0.12225404381752014,0.03502484783530235,0.0,0.0,0.0,0.0,0.0,0.0,0.0,0.0,0.0,-0.008825704455375671,0.011937323957681656,0.03017490543425083,0.0,0.0,0.0,0.0,0.0,0.0,0.0,0.0,0.0
1606987854615892426,1526585,1606984253703239293,imu_link,-0.0005613305256702006,-0.0009575273143127561,0.25093740224838257,-0.9680026769638062,0.0,0.0,0.0,0.0,0.0,0.0,0.0,0.0,0.0,-29.06595802307129,0.12235497683286667,0.03473163768649101,0.0,0.0,0.0,0.0,0.0,0.0,0.0,0.0,0.0,0.011548550799489021,0.0022444038186222315,0.0334029383957386,0.0,0.0,0.0,0.0,0.0,0.0,0.0,0.0,0.0
1606987854692468810,1526586,1606984253703314432,imu_link,-0.0005613305256702006,-0.0009575273143127561,0.25093740224838257,-0.9680026769638062,0.0,0.0,0.0,0.0,0.0,0.0,0.0,0.0,0.0,-29.06595802307129,0.12235497683286667,0.03473163768649101,0.0,0.0,0.0,0.0,0.0,0.0,0.0,0.0,0.0,0.011548550799489021,0.0022444038186222315,0.0334029383957386,0.0,0.0,0.0,0.0,0.0,0.0,0.0,0.0,0.0
1606987854692521581,1526587,1606984253703412659,imu_link,-0.0005624063778668642,-0.0009571118862368166,0.25094252824783325,-0.9680013656616211,0.0,0.0,0.0,0.0,0.0,0.0,0.0,0.0,0.0,-29.066564559936523,0.12234002351760864,0.03486227989196777,0.0,0.0,0.0,0.0,0.0,0.0,0.0,0.0,0.0,0.014929133467376232,-0.0002816258347593248,0.02855842560529709,0.0,0.0,0.0,0.0,0.0,0.0,0.0,0.0,0.0
1606987854692538569,1526588,1606984253703490964,imu_link,-0.0005624063778668642,-0.0009571118862368166,0.25094252824783325,-0.9680013656616211,0.0,0.0,0.0,0.0,0.0,0.0,0.0,0.0,0.0,-29.066564559936523,0.12234002351760864,0.03486227989196777,0.0,0.0,0.0,0.0,0.0,0.0,0.0,0.0,0.0,0.014929133467376232,-0.0002816258347593248,0.02855842560529709,0.0,0.0,0.0,0.0,0.0,0.0,0.0,0.0,0.0
1606987854692564935,1526589,1606984253703567799,imu_link,-0.0005633084801957011,-0.0009550242102704942,0.25094184279441833,-0.9680015444755554,0.0,0.0,0.0,0.0,0.0,0.0,0.0,0.0,0.0,-29.066486358642578,0.12213435769081116,0.03502246364951134,0.0,0.0,0.0,0.0,0.0,0.0,0.0,0.0,0.0,0.00035900570219382644,0.013901100493967533,0.013587882742285728,0.0,0.0,0.0,0.0,0.0,0.0,0.0,0.0,0.0
1606987854695631148,1526590,1606984253703643401,imu_link,-0.0005633084801957011,-0.0009550242102704942,0.25094184279441833,-0.9680015444755554,0.0,0.0,0.0,0.0,0.0,0.0,0.0,0.0,0.0,-29.066486358642578,0.12213435769081116,0.03502246364951134,0.0,0.0,0.0,0.0,0.0,0.0,0.0,0.0,0.0,0.00035900570219382644,0.013901100493967533,0.013587882742285728,0.0,0.0,0.0,0.0,0.0,0.0,0.0,0.0,0.0
1606987854695645538,1526591,1606984253703718067,imu_link,-0.0005591902881860733,-0.0009552917326800525,0.25095057487487793,-0.967999279499054,0.0,0.0,0.0,0.0,0.0,0.0,0.0,0.0,0.0,-29.06751823425293,0.12204591929912567,0.034556858241558075,0.0,0.0,0.0,0.0,0.0,0.0,0.0,0.0,0.0,-0.006926404777914286,0.016116201877593994,0.031172199174761772,0.0,0.0,0.0,0.0,0.0,0.0,0.0,0.0,0.0
1606987854695660877,1526592,1606984253703792582,imu_link,-0.0005591902881860733,-0.0009552917326800525,0.25095057487487793,-0.967999279499054,0.0,0.0,0.0,0.0,0.0,0.0,0.0,0.0,0.0,-29.06751823425293,0.12204591929912567,0.034556858241558075,0.0,0.0,0.0,0.0,0.0,0.0,0.0,0.0,0.0,-0.006926404777914286,0.016116201877593994,0.031172199174761772,0.0,0.0,0.0,0.0,0.0,0.0,0.0,0.0,0.0
1606987854695672157,1526593,1606984253715619077,imu_link,-0.0005594106623902917,-0.0009554895805194974,0.25095227360725403,-0.9679988622665405,0.0,0.0,0.0,0.0,0.0,0.0,0.0,0.0,0.0,-29.067718505859375,0.12207426875829697,0.03457540273666382,0.0,0.0,0.0,0.0,0.0,0.0,0.0,0.0,0.0,-0.004479844123125076,-0.0034568863920867443,0.0404227115213871,0.0,0.0,0.0,0.0,0.0,0.0,0.0,0.0,0.0
1606987854695681254,1526594,1606984253715725029,imu_link,-0.0005594106623902917,-0.0009554895805194974,0.25095227360725403,-0.9679988622665405,0.0,0.0,0.0,0.0,0.0,0.0,0.0,0.0,0.0,-29.067718505859375,0.12207426875829697,0.03457540273666382,0.0,0.0,0.0,0.0,0.0,0.0,0.0,0.0,0.0,-0.004479844123125076,-0.0034568863920867443,0.0404227115213871,0.0,0.0,0.0,0.0,0.0,0.0,0.0,0.0,0.0
1606987854711296893,1526595,1606984253715797952,imu_link,-0.0005583156016655266,-0.0009547175723128021,0.25096505880355835,-0.9679955244064331,0.0,0.0,0.0,0.0,0.0,0.0,0.0,0.0,0.0,-29.069232940673828,0.12195760011672974,0.03447452187538147,0.0,0.0,0.0,0.0,0.0,0.0,0.0,0.0,0.0,-0.005746338050812483,-0.008603997528553009,0.033641520887613297,0.0,0.0,0.0,0.0,0.0,0.0,0.0,0.0,0.0
1606987854711334130,1526596,1606984253715874441,imu_link,-0.0005583156016655266,-0.0009547175723128021,0.25096505880355835,-0.9679955244064331,0.0,0.0,0.0,0.0,0.0,0.0,0.0,0.0,0.0,-29.069232940673828,0.12195760011672974,0.03447452187538147,0.0,0.0,0.0,0.0,0.0,0.0,0.0,0.0,0.0,-0.005746338050812483,-0.008603997528553009,0.033641520887613297,0.0,0.0,0.0,0.0,0.0,0.0,0.0,0.0,0.0
1606987854711347933,1526597,1606984253715947859,imu_link,-0.0005576246767304838,-0.0009540408500470221,0.25096386671066284,-0.9679958820343018,0.0,0.0,0.0,0.0,0.0,0.0,0.0,0.0,0.0,-29.069091796875,0.12186262756586075,0.034417491406202316,0.0,0.0,0.0,0.0,0.0,0.0,0.0,0.0,0.0,0.006169291213154793,-0.008685674518346786,0.05172097310423851,0.0,0.0,0.0,0.0,0.0,0.0,0.0,0.0,0.0
1606987854711364241,1526598,1606984253716035690,imu_link,-0.0005576246767304838,-0.0009540408500470221,0.25096386671066284,-0.9679958820343018,0.0,0.0,0.0,0.0,0.0,0.0,0.0,0.0,0.0,-29.069091796875,0.12186262756586075,0.034417491406202316,0.0,0.0,0.0,0.0,0.0,0.0,0.0,0.0,0.0,0.006169291213154793,-0.008685674518346786,0.05172097310423851,0.0,0.0,0.0,0.0,0.0,0.0,0.0,0.0,0.0
1606987854714452682,1526599,1606984253716114174,imu_link,-0.0005596638657152653,-0.0009549479000270367,0.2509744167327881,-0.9679931402206421,0.0,0.0,0.0,0.0,0.0,0.0,0.0,0.0,0.0,-29.07033920288086,0.12202225625514984,0.03461627662181854,0.0,0.0,0.0,0.0,0.0,0.0,0.0,0.0,0.0,0.008794337511062622,-0.02285674586892128,0.04204104468226433,0.0,0.0,0.0,0.0,0.0,0.0,0.0,0.0,0.0
1606987854714476477,1526600,1606984253716186742,imu_link,-0.0005596638657152653,-0.0009549479000270367,0.2509744167327881,-0.9679931402206421,0.0,0.0,0.0,0.0,0.0,0.0,0.0,0.0,0.0,-29.07033920288086,0.12202225625514984,0.03461627662181854,0.0,0.0,0.0,0.0,0.0,0.0,0.0,0.0,0.0,0.008794337511062622,-0.02285674586892128,0.04204104468226433,0.0,0.0,0.0,0.0,0.0,0.0,0.0,0.0,0.0
1606987854714498923,1526601,1606984253716257706,imu_link,-0.0005594399408437312,-0.0009559186291880906,0.25097551941871643,-0.9679928421974182,0.0,0.0,0.0,0.0,0.0,0.0,0.0,0.0,0.0,-29.07046890258789,0.12212353199720383,0.034563373774290085,0.0,0.0,0.0,0.0,0.0,0.0,0.0,0.0,0.0,-0.0003956858708988875,-0.021450109779834747,0.031182067468762398,0.0,0.0,0.0,0.0,0.0,0.0,0.0,0.0,0.0
1606987854714508934,1526602,1606984253716334790,imu_link,-0.0005594399408437312,-0.0009559186291880906,0.25097551941871643,-0.9679928421974182,0.0,0.0,0.0,0.0,0.0,0.0,0.0,0.0,0.0,-29.07046890258789,0.12212353199720383,0.034563373774290085,0.0,0.0,0.0,0.0,0.0,0.0,0.0,0.0,0.0,-0.0003956858708988875,-0.021450109779834747,0.031182067468762398,0.0,0.0,0.0,0.0,0.0,0.0,0.0,0.0,0.0
1606987854714529957,1526603,1606984253729008921,imu_link,-0.0005636606947518885,-0.0009563512867316604,0.25097718834877014,-0.9679924249649048,0.0,0.0,0.0,0.0,0.0,0.0,0.0,0.0,0.0,-29.070667266845703,0.12229297310113907,0.03501890227198601,0.0,0.0,0.0,0.0,0.0,0.0,0.0,0.0,0.0,0.005935496650636196,8.95569974090904e-05,0.01753547228872776,0.0,0.0,0.0,0.0,0.0,0.0,0.0,0.0,0.0
1606987854768863710,1526604,1606984253729132978,imu_link,-0.0005636606947518885,-0.0009563512867316604,0.25097718834877014,-0.9679924249649048,0.0,0.0,0.0,0.0,0.0,0.0,0.0,0.0,0.0,-29.070667266845703,0.12229297310113907,0.03501890227198601,0.0,0.0,0.0,0.0,0.0,0.0,0.0,0.0,0.0,0.005935496650636196,8.95569974090904e-05,0.01753547228872776,0.0,0.0,0.0,0.0,0.0,0.0,0.0,0.0,0.0
1606987854768915662,1526605,1606984253729224671,imu_link,-0.0005654572159983218,-0.0009568764362484217,0.25097590684890747,-0.9679927229881287,0.0,0.0,0.0,0.0,0.0,0.0,0.0,0.0,0.0,-29.07051658630371,0.12240283936262131,0.0352032408118248,0.0,0.0,0.0,0.0,0.0,0.0,0.0,0.0,0.0,-0.0016914793523028493,0.012052913196384907,0.02889683097600937,0.0,0.0,0.0,0.0,0.0,0.0,0.0,0.0,0.0
1606987854768938422,1526606,1606984253729319756,imu_link,-0.0005654572159983218,-0.0009568764362484217,0.25097590684890747,-0.9679927229881287,0.0,0.0,0.0,0.0,0.0,0.0,0.0,0.0,0.0,-29.07051658630371,0.12240283936262131,0.0352032408118248,0.0,0.0,0.0,0.0,0.0,0.0,0.0,0.0,0.0,-0.0016914793523028493,0.012052913196384907,0.02889683097600937,0.0,0.0,0.0,0.0,0.0,0.0,0.0,0.0,0.0
1606987854768964369,1526607,1606984253729409594,imu_link,-0.0005629596998915076,-0.0009580650948919356,0.25097712874412537,-0.9679924249649048,0.0,0.0,0.0,0.0,0.0,0.0,0.0,0.0,0.0,-29.070659637451172,0.1224629133939743,0.03489186614751816,0.0,0.0,0.0,0.0,0.0,0.0,0.0,0.0,0.0,-0.012495062313973904,0.002750155283138156,0.06801263988018036,0.0,0.0,0.0,0.0,0.0,0.0,0.0,0.0,0.0
1606987854778822837,1526608,1606984253729496269,imu_link,-0.0005629596998915076,-0.0009580650948919356,0.25097712874412537,-0.9679924249649048,0.0,0.0,0.0,0.0,0.0,0.0,0.0,0.0,0.0,-29.070659637451172,0.1224629133939743,0.03489186614751816,0.0,0.0,0.0,0.0,0.0,0.0,0.0,0.0,0.0,-0.012495062313973904,0.002750155283138156,0.06801263988018036,0.0,0.0,0.0,0.0,0.0,0.0,0.0,0.0,0.0
1606987854778856996,1526609,1606984253729600490,imu_link,-0.0005621252348646522,-0.0009581288904882967,0.250978946685791,-0.9679919481277466,0.0,0.0,0.0,0.0,0.0,0.0,0.0,0.0,0.0,-29.07087516784668,0.12244606018066406,0.034797243773937225,0.0,0.0,0.0,0.0,0.0,0.0,0.0,0.0,0.0,-0.005747214891016483,-0.006841224618256092,0.06757894158363342,0.0,0.0,0.0,0.0,0.0,0.0,0.0,0.0,0.0
1606987854778912019,1526610,1606984253729688269,imu_link,-0.0005621252348646522,-0.0009581288904882967,0.250978946685791,-0.9679919481277466,0.0,0.0,0.0,0.0,0.0,0.0,0.0,0.0,0.0,-29.07087516784668,0.12244606018066406,0.034797243773937225,0.0,0.0,0.0,0.0,0.0,0.0,0.0,0.0,0.0,-0.005747214891016483,-0.006841224618256092,0.06757894158363342,0.0,0.0,0.0,0.0,0.0,0.0,0.0,0.0,0.0
1606987854778922603,1526611,1606984253729776017,imu_link,-0.0005614820402115583,-0.0009575612493790686,0.25097835063934326,-0.9679921269416809,0.0,0.0,0.0,0.0,0.0,0.0,0.0,0.0,0.0,-29.070802688598633,0.1223645806312561,0.03474229574203491,0.0,0.0,0.0,0.0,0.0,0.0,0.0,0.0,0.0,0.011463373899459839,-0.020859481766819954,0.047465384006500244,0.0,0.0,0.0,0.0,0.0,0.0,0.0,0.0,0.0
1606987854778937440,1526612,1606984253729861835,imu_link,-0.0005614820402115583,-0.0009575612493790686,0.25097835063934326,-0.9679921269416809,0.0,0.0,0.0,0.0,0.0,0.0,0.0,0.0,0.0,-29.070802688598633,0.1223645806312561,0.03474229574203491,0.0,0.0,0.0,0.0,0.0,0.0,0.0,0.0,0.0,0.011463373899459839,-0.020859481766819954,0.047465384006500244,0.0,0.0,0.0,0.0,0.0,0.0,0.0,0.0,0.0
1606987854799180149,1526613,1606984253729951788,imu_link,-0.0005601985030807555,-0.0009568858076818287,0.25097566843032837,-0.9679927229881287,0.0,0.0,0.0,0.0,0.0,0.0,0.0,0.0,0.0,-29.07048988342285,0.12225262820720673,0.034619685262441635,0.0,0.0,0.0,0.0,0.0,0.0,0.0,0.0,0.0,0.006546115968376398,-0.026097921654582024,0.036997102200984955,0.0,0.0,0.0,0.0,0.0,0.0,0.0,0.0,0.0
1606987854799207704,1526614,1606984253742828732,imu_link,-0.0005601985030807555,-0.0009568858076818287,0.25097566843032837,-0.9679927229881287,0.0,0.0,0.0,0.0,0.0,0.0,0.0,0.0,0.0,-29.07048988342285,0.12225262820720673,0.034619685262441635,0.0,0.0,0.0,0.0,0.0,0.0,0.0,0.0,0.0,0.006546115968376398,-0.026097921654582024,0.036997102200984955,0.0,0.0,0.0,0.0,0.0,0.0,0.0,0.0,0.0
1606987854799217061,1526615,1606984253742936188,imu_link,-0.0005637480062432587,-0.0009589978726580739,0.2509756088256836,-0.9679927229881287,0.0,0.0,0.0,0.0,0.0,0.0,0.0,0.0,0.0,-29.07048225402832,0.12258899211883545,0.03495267778635025,0.0,0.0,0.0,0.0,0.0,0.0,0.0,0.0,0.0,0.00014251211541704834,-0.00559541629627347,0.027417151257395744,0.0,0.0,0.0,0.0,0.0,0.0,0.0,0.0,0.0
1606987854799231093,1526616,1606984253743038457,imu_link,-0.0005637480062432587,-0.0009589978726580739,0.2509756088256836,-0.9679927229881287,0.0,0.0,0.0,0.0,0.0,0.0,0.0,0.0,0.0,-29.07048225402832,0.12258899211883545,0.03495267778635025,0.0,0.0,0.0,0.0,0.0,0.0,0.0,0.0,0.0,0.00014251211541704834,-0.00559541629627347,0.027417151257395744,0.0,0.0,0.0,0.0,0.0,0.0,0.0,0.0,0.0
1606987854805900851,1526617,1606984253743114537,imu_link,-0.0005652621039189398,-0.000958240416366607,0.2509765625,-0.9679924845695496,0.0,0.0,0.0,0.0,0.0,0.0,0.0,0.0,0.0,-29.070594787597656,0.12254854291677475,0.035142287611961365,0.0,0.0,0.0,0.0,0.0,0.0,0.0,0.0,0.0,0.0009490317897871137,0.006015216466039419,0.03862987086176872,0.0,0.0,0.0,0.0,0.0,0.0,0.0,0.0,0.0
1606987854805935551,1526618,1606984253743188508,imu_link,-0.0005652621039189398,-0.000958240416366607,0.2509765625,-0.9679924845695496,0.0,0.0,0.0,0.0,0.0,0.0,0.0,0.0,0.0,-29.070594787597656,0.12254854291677475,0.035142287611961365,0.0,0.0,0.0,0.0,0.0,0.0,0.0,0.0,0.0,0.0009490317897871137,0.006015216466039419,0.03862987086176872,0.0,0.0,0.0,0.0,0.0,0.0,0.0,0.0,0.0
1606987854805950219,1526619,1606984253743258695,imu_link,-0.0005645906203426421,-0.0009578429744578898,0.2509841024875641,-0.9679906368255615,0.0,0.0,0.0,0.0,0.0,0.0,0.0,0.0,0.0,-29.07148551940918,0.12248542904853821,0.03507827967405319,0.0,0.0,0.0,0.0,0.0,0.0,0.0,0.0,0.0,-0.009042209014296532,0.006377196870744228,0.049243707209825516,0.0,0.0,0.0,0.0,0.0,0.0,0.0,0.0,0.0
1606987854805962662,1526620,1606984253743343555,imu_link,-0.0005645906203426421,-0.0009578429744578898,0.2509841024875641,-0.9679906368255615,0.0,0.0,0.0,0.0,0.0,0.0,0.0,0.0,0.0,-29.07148551940918,0.12248542904853821,0.03507827967405319,0.0,0.0,0.0,0.0,0.0,0.0,0.0,0.0,0.0,-0.009042209014296532,0.006377196870744228,0.049243707209825516,0.0,0.0,0.0,0.0,0.0,0.0,0.0,0.0,0.0
1606987854805998315,1526621,1606984253743415402,imu_link,-0.0005638822331093252,-0.0009585213847458363,0.2509823441505432,-0.9679911136627197,0.0,0.0,0.0,0.0,0.0,0.0,0.0,0.0,0.0,-29.071277618408203,0.12254025787115097,0.0349804125726223,0.0,0.0,0.0,0.0,0.0,0.0,0.0,0.0,0.0,-0.01964045874774456,0.004563720431178808,0.033542752265930176,0.0,0.0,0.0,0.0,0.0,0.0,0.0,0.0,0.0
1606987854891896257,1526622,1606984253743489653,imu_link,-0.0005638822331093252,-0.0009585213847458363,0.2509823441505432,-0.9679911136627197,0.0,0.0,0.0,0.0,0.0,0.0,0.0,0.0,0.0,-29.071277618408203,0.12254025787115097,0.0349804125726223,0.0,0.0,0.0,0.0,0.0,0.0,0.0,0.0,0.0,-0.01964045874774456,0.004563720431178808,0.033542752265930176,0.0,0.0,0.0,0.0,0.0,0.0,0.0,0.0,0.0
1606987854891938665,1526623,1606984253743559062,imu_link,-0.0005616738926619291,-0.0009567986126057804,0.2509914040565491,-0.9679886698722839,0.0,0.0,0.0,0.0,0.0,0.0,0.0,0.0,0.0,-29.072349548339844,0.12228595465421677,0.03478385880589485,0.0,0.0,0.0,0.0,0.0,0.0,0.0,0.0,0.0,-0.019085779786109924,0.0012178352335467935,0.029926860705018044,0.0,0.0,0.0,0.0,0.0,0.0,0.0,0.0,0.0
1606987854891968061,1526624,1606984253743627476,imu_link,-0.0005616738926619291,-0.0009567986126057804,0.2509914040565491,-0.9679886698722839,0.0,0.0,0.0,0.0,0.0,0.0,0.0,0.0,0.0,-29.072349548339844,0.12228595465421677,0.03478385880589485,0.0,0.0,0.0,0.0,0.0,0.0,0.0,0.0,0.0,-0.019085779786109924,0.0012178352335467935,0.029926860705018044,0.0,0.0,0.0,0.0,0.0,0.0,0.0,0.0,0.0
1606987854891982027,1526625,1606984253756363592,imu_link,-0.0005615294794552028,-0.0009562585619278252,0.2509903609752655,-0.9679889678955078,0.0,0.0,0.0,0.0,0.0,0.0,0.0,0.0,0.0,-29.072227478027344,0.12222186475992203,0.0347835049033165,0.0,0.0,0.0,0.0,0.0,0.0,0.0,0.0,0.0,-0.012689045630395412,-0.0008010524907149374,0.04076407849788666,0.0,0.0,0.0,0.0,0.0,0.0,0.0,0.0,0.0
1606987854895762385,1526626,1606984253756485846,imu_link,-0.0005615294794552028,-0.0009562585619278252,0.2509903609752655,-0.9679889678955078,0.0,0.0,0.0,0.0,0.0,0.0,0.0,0.0,0.0,-29.072227478027344,0.12222186475992203,0.0347835049033165,0.0,0.0,0.0,0.0,0.0,0.0,0.0,0.0,0.0,-0.012689045630395412,-0.0008010524907149374,0.04076407849788666,0.0,0.0,0.0,0.0,0.0,0.0,0.0,0.0,0.0
1606987854895789367,1526627,1606984253756597633,imu_link,-0.0005610217340290546,-0.0009551302646286786,0.2509850263595581,-0.9679903388023376,0.0,0.0,0.0,0.0,0.0,0.0,0.0,0.0,0.0,-29.071596145629883,0.12208191305398941,0.034760307520627975,0.0,0.0,0.0,0.0,0.0,0.0,0.0,0.0,0.0,-0.018085476011037827,0.004475177265703678,0.06700508296489716,0.0,0.0,0.0,0.0,0.0,0.0,0.0,0.0,0.0
1606987854895806509,1526628,1606984253756672503,imu_link,-0.0005610217340290546,-0.0009551302646286786,0.2509850263595581,-0.9679903388023376,0.0,0.0,0.0,0.0,0.0,0.0,0.0,0.0,0.0,-29.071596145629883,0.12208191305398941,0.034760307520627975,0.0,0.0,0.0,0.0,0.0,0.0,0.0,0.0,0.0,-0.018085476011037827,0.004475177265703678,0.06700508296489716,0.0,0.0,0.0,0.0,0.0,0.0,0.0,0.0,0.0
1606987854895822278,1526629,1606984253756738315,imu_link,-0.0005600758595392108,-0.0009536335128359497,0.2509835958480835,-0.9679907560348511,0.0,0.0,0.0,0.0,0.0,0.0,0.0,0.0,0.0,-29.07142448425293,0.12188863754272461,0.034698616713285446,0.0,0.0,0.0,0.0,0.0,0.0,0.0,0.0,0.0,-0.0028130654245615005,0.006897124461829662,0.08008533716201782,0.0,0.0,0.0,0.0,0.0,0.0,0.0,0.0,0.0
1606987854895830868,1526630,1606984253756796842,imu_link,-0.0005600758595392108,-0.0009536335128359497,0.2509835958480835,-0.9679907560348511,0.0,0.0,0.0,0.0,0.0,0.0,0.0,0.0,0.0,-29.07142448425293,0.12188863754272461,0.034698616713285446,0.0,0.0,0.0,0.0,0.0,0.0,0.0,0.0,0.0,-0.0028130654245615005,0.006897124461829662,0.08008533716201782,0.0,0.0,0.0,0.0,0.0,0.0,0.0,0.0,0.0
1606987854902184696,1526631,1606984253756879513,imu_link,-0.0005582643789239228,-0.0009531871764920652,0.2509809136390686,-0.9679914712905884,0.0,0.0,0.0,0.0,0.0,0.0,0.0,0.0,0.0,-29.071107864379883,0.1217869371175766,0.03451085463166237,0.0,0.0,0.0,0.0,0.0,0.0,0.0,0.0,0.0,0.009802435524761677,1.3323475286597386e-05,0.07152846455574036,0.0,0.0,0.0,0.0,0.0,0.0,0.0,0.0,0.0
1606987854902216286,1526632,1606984253756945959,imu_link,-0.0005582643789239228,-0.0009531871764920652,0.2509809136390686,-0.9679914712905884,0.0,0.0,0.0,0.0,0.0,0.0,0.0,0.0,0.0,-29.071107864379883,0.1217869371175766,0.03451085463166237,0.0,0.0,0.0,0.0,0.0,0.0,0.0,0.0,0.0,0.009802435524761677,1.3323475286597386e-05,0.07152846455574036,0.0,0.0,0.0,0.0,0.0,0.0,0.0,0.0,0.0
1606987854902234709,1526633,1606984253757010866,imu_link,-0.0005574870738200843,-0.0009556679870001972,0.25097909569740295,-0.9679919481277466,0.0,0.0,0.0,0.0,0.0,0.0,0.0,0.0,0.0,-29.070892333984375,0.12203969061374664,0.03435350954532623,0.0,0.0,0.0,0.0,0.0,0.0,0.0,0.0,0.0,0.006894675549119711,-0.0051443567499518394,0.047425996512174606,0.0,0.0,0.0,0.0,0.0,0.0,0.0,0.0,0.0
1606987854902261847,1526634,1606984253757078141,imu_link,-0.0005574870738200843,-0.0009556679870001972,0.25097909569740295,-0.9679919481277466,0.0,0.0,0.0,0.0,0.0,0.0,0.0,0.0,0.0,-29.070892333984375,0.12203969061374664,0.03435350954532623,0.0,0.0,0.0,0.0,0.0,0.0,0.0,0.0,0.0,0.006894675549119711,-0.0051443567499518394,0.047425996512174606,0.0,0.0,0.0,0.0,0.0,0.0,0.0,0.0,0.0
1606987854907953483,1526635,1606984253757148215,imu_link,-0.0005582073354162276,-0.0009569620597176254,0.2509775757789612,-0.9679923057556152,0.0,0.0,0.0,0.0,0.0,0.0,0.0,0.0,0.0,-29.070711135864258,0.12220389395952225,0.03439638018608093,0.0,0.0,0.0,0.0,0.0,0.0,0.0,0.0,0.0,0.005697770044207573,-0.017824111506342888,0.03206638991832733,0.0,0.0,0.0,0.0,0.0,0.0,0.0,0.0,0.0
1606987854907985523,1526636,1606984253770240260,imu_link,-0.0005582073354162276,-0.0009569620597176254,0.2509775757789612,-0.9679923057556152,0.0,0.0,0.0,0.0,0.0,0.0,0.0,0.0,0.0,-29.070711135864258,0.12220389395952225,0.03439638018608093,0.0,0.0,0.0,0.0,0.0,0.0,0.0,0.0,0.0,0.005697770044207573,-0.017824111506342888,0.03206638991832733,0.0,0.0,0.0,0.0,0.0,0.0,0.0,0.0,0.0
1606987854908005543,1526637,1606984253770363108,imu_link,-0.000555892416741699,-0.0009560855105519295,0.2509782612323761,-0.9679921269416809,0.0,0.0,0.0,0.0,0.0,0.0,0.0,0.0,0.0,-29.070796966552734,0.12204012274742126,0.03416472673416138,0.0,0.0,0.0,0.0,0.0,0.0,0.0,0.0,0.0,-0.0047509814612567425,-0.0150953009724617,0.03619091212749481,0.0,0.0,0.0,0.0,0.0,0.0,0.0,0.0,0.0
1606987854908075770,1526638,1606984253770498506,imu_link,-0.000555892416741699,-0.0009560855105519295,0.2509782612323761,-0.9679921269416809,0.0,0.0,0.0,0.0,0.0,0.0,0.0,0.0,0.0,-29.070796966552734,0.12204012274742126,0.03416472673416138,0.0,0.0,0.0,0.0,0.0,0.0,0.0,0.0,0.0,-0.0047509814612567425,-0.0150953009724617,0.03619091212749481,0.0,0.0,0.0,0.0,0.0,0.0,0.0,0.0,0.0
1606987854908100001,1526639,1606984253770589259,imu_link,-0.0005574732786044478,-0.0009552735136821866,0.2509779632091522,-0.9679921865463257,0.0,0.0,0.0,0.0,0.0,0.0,0.0,0.0,0.0,-29.070758819580078,0.12199549376964569,0.03436347469687462,0.0,0.0,0.0,0.0,0.0,0.0,0.0,0.0,0.0,-0.005083943251520395,-0.005631213076412678,0.05336983501911163,0.0,0.0,0.0,0.0,0.0,0.0,0.0,0.0,0.0
1606987854960394417,1526640,1606984253770663029,imu_link,-0.0005574732786044478,-0.0009552735136821866,0.2509779632091522,-0.9679921865463257,0.0,0.0,0.0,0.0,0.0,0.0,0.0,0.0,0.0,-29.070758819580078,0.12199549376964569,0.03436347469687462,0.0,0.0,0.0,0.0,0.0,0.0,0.0,0.0,0.0,-0.005083943251520395,-0.005631213076412678,0.05336983501911163,0.0,0.0,0.0,0.0,0.0,0.0,0.0,0.0,0.0
1606987854960415840,1526641,1606984253770756589,imu_link,-0.0005576544790528715,-0.000955197203438729,0.2509758472442627,-0.9679927229881287,0.0,0.0,0.0,0.0,0.0,0.0,0.0,0.0,0.0,-29.07050895690918,0.12199216336011887,0.03438602760434151,0.0,0.0,0.0,0.0,0.0,0.0,0.0,0.0,0.0,-0.0026913622859865427,-0.0051155430264770985,0.055650096386671066,0.0,0.0,0.0,0.0,0.0,0.0,0.0,0.0,0.0
1606987854960424960,1526642,1606984253770830742,imu_link,-0.0005576544790528715,-0.000955197203438729,0.2509758472442627,-0.9679927229881287,0.0,0.0,0.0,0.0,0.0,0.0,0.0,0.0,0.0,-29.07050895690918,0.12199216336011887,0.03438602760434151,0.0,0.0,0.0,0.0,0.0,0.0,0.0,0.0,0.0,-0.0026913622859865427,-0.0051155430264770985,0.055650096386671066,0.0,0.0,0.0,0.0,0.0,0.0,0.0,0.0,0.0
1606987854960486517,1526643,1606984253770896106,imu_link,-0.0005583110614679754,-0.0009554062271490693,0.2509799003601074,-0.9679917097091675,0.0,0.0,0.0,0.0,0.0,0.0,0.0,0.0,0.0,-29.070987701416016,0.12203438580036163,0.03445234149694443,0.0,0.0,0.0,0.0,0.0,0.0,0.0,0.0,0.0,0.0010583194671198726,0.006206898484379053,0.052424993366003036,0.0,0.0,0.0,0.0,0.0,0.0,0.0,0.0,0.0
1606987854970344647,1526644,1606984253771012039,imu_link,-0.0005583110614679754,-0.0009554062271490693,0.2509799003601074,-0.9679917097091675,0.0,0.0,0.0,0.0,0.0,0.0,0.0,0.0,0.0,-29.070987701416016,0.12203438580036163,0.03445234149694443,0.0,0.0,0.0,0.0,0.0,0.0,0.0,0.0,0.0,0.0010583194671198726,0.006206898484379053,0.052424993366003036,0.0,0.0,0.0,0.0,0.0,0.0,0.0,0.0,0.0
1606987854970372533,1526645,1606984253771097933,imu_link,-0.000557858613319695,-0.0009554508724249899,0.2509799301624298,-0.9679916501045227,0.0,0.0,0.0,0.0,0.0,0.0,0.0,0.0,0.0,-29.07099151611328,0.12202632427215576,0.03440086543560028,0.0,0.0,0.0,0.0,0.0,0.0,0.0,0.0,0.0,0.01544982474297285,0.011016245931386948,0.04263274744153023,0.0,0.0,0.0,0.0,0.0,0.0,0.0,0.0,0.0
1606987854970390610,1526646,1606984253771180980,imu_link,-0.000557858613319695,-0.0009554508724249899,0.2509799301624298,-0.9679916501045227,0.0,0.0,0.0,0.0,0.0,0.0,0.0,0.0,0.0,-29.07099151611328,0.12202632427215576,0.03440086543560028,0.0,0.0,0.0,0.0,0.0,0.0,0.0,0.0,0.0,0.01544982474297285,0.011016245931386948,0.04263274744153023,0.0,0.0,0.0,0.0,0.0,0.0,0.0,0.0,0.0
1606987854970410940,1526647,1606984253783200808,imu_link,-0.0005571031360886991,-0.0009573368006385863,0.25098589062690735,-0.9679901003837585,0.0,0.0,0.0,0.0,0.0,0.0,0.0,0.0,0.0,-29.071697235107422,0.12221399694681168,0.034262076020240784,0.0,0.0,0.0,0.0,0.0,0.0,0.0,0.0,0.0,0.009366757236421108,0.00610779132694006,0.042270876467227936,0.0,0.0,0.0,0.0,0.0,0.0,0.0,0.0,0.0
1606987854970424785,1526648,1606984253783348520,imu_link,-0.0005571031360886991,-0.0009573368006385863,0.25098589062690735,-0.9679901003837585,0.0,0.0,0.0,0.0,0.0,0.0,0.0,0.0,0.0,-29.071697235107422,0.12221399694681168,0.034262076020240784,0.0,0.0,0.0,0.0,0.0,0.0,0.0,0.0,0.0,0.009366757236421108,0.00610779132694006,0.042270876467227936,0.0,0.0,0.0,0.0,0.0,0.0,0.0,0.0,0.0
1606987854998064160,1526649,1606984253783496682,imu_link,-0.0005568720516748726,-0.0009574810974299908,0.2509869933128357,-0.9679898023605347,0.0,0.0,0.0,0.0,0.0,0.0,0.0,0.0,0.0,-29.07183074951172,0.1222233846783638,0.03423215076327324,0.0,0.0,0.0,0.0,0.0,0.0,0.0,0.0,0.0,-0.001722087268717587,-0.010693094693124294,0.030455516651272774,0.0,0.0,0.0,0.0,0.0,0.0,0.0,0.0,0.0
1606987854998092487,1526650,1606984253783595200,imu_link,-0.0005568720516748726,-0.0009574810974299908,0.2509869933128357,-0.9679898023605347,0.0,0.0,0.0,0.0,0.0,0.0,0.0,0.0,0.0,-29.07183074951172,0.1222233846783638,0.03423215076327324,0.0,0.0,0.0,0.0,0.0,0.0,0.0,0.0,0.0,-0.001722087268717587,-0.010693094693124294,0.030455516651272774,0.0,0.0,0.0,0.0,0.0,0.0,0.0,0.0,0.0
1606987854998105267,1526651,1606984253783691353,imu_link,-0.0005574576207436621,-0.000957847514655441,0.2509889602661133,-0.9679893255233765,0.0,0.0,0.0,0.0,0.0,0.0,0.0,0.0,0.0,-29.072063446044922,0.12228094786405563,0.03428631275892258,0.0,0.0,0.0,0.0,0.0,0.0,0.0,0.0,0.0,0.0027274847961962223,-0.02229723148047924,0.02107062190771103,0.0,0.0,0.0,0.0,0.0,0.0,0.0,0.0,0.0
1606987854998127961,1526652,1606984253783796456,imu_link,-0.0005574576207436621,-0.000957847514655441,0.2509889602661133,-0.9679893255233765,0.0,0.0,0.0,0.0,0.0,0.0,0.0,0.0,0.0,-29.072063446044922,0.12228094786405563,0.03428631275892258,0.0,0.0,0.0,0.0,0.0,0.0,0.0,0.0,0.0,0.0027274847961962223,-0.02229723148047924,0.02107062190771103,0.0,0.0,0.0,0.0,0.0,0.0,0.0,0.0,0.0
1606987855030993083,1526653,1606984253783878070,imu_link,-0.0005561833968386054,-0.0009560347534716129,0.25098657608032227,-0.9679899215698242,0.0,0.0,0.0,0.0,0.0,0.0,0.0,0.0,0.0,-29.071779251098633,0.12204314768314362,0.03419741615653038,0.0,0.0,0.0,0.0,0.0,0.0,0.0,0.0,0.0,-0.005474635865539312,-0.0061432006768882275,0.03751727193593979,0.0,0.0,0.0,0.0,0.0,0.0,0.0,0.0,0.0
1606987855031033806,1526654,1606984253783955680,imu_link,-0.0005561833968386054,-0.0009560347534716129,0.25098657608032227,-0.9679899215698242,0.0,0.0,0.0,0.0,0.0,0.0,0.0,0.0,0.0,-29.071779251098633,0.12204314768314362,0.03419741615653038,0.0,0.0,0.0,0.0,0.0,0.0,0.0,0.0,0.0,-0.005474635865539312,-0.0061432006768882275,0.03751727193593979,0.0,0.0,0.0,0.0,0.0,0.0,0.0,0.0,0.0
1606987855031051510,1526655,1606984253784039965,imu_link,-0.0005559459095820785,-0.0009536573197692633,0.25098907947540283,-0.9679893255233765,0.0,0.0,0.0,0.0,0.0,0.0,0.0,0.0,0.0,-29.072072982788086,0.12177269160747528,0.03423913195729256,0.0,0.0,0.0,0.0,0.0,0.0,0.0,0.0,0.0,-0.009843519888818264,-0.007736722473055124,0.04546073079109192,0.0,0.0,0.0,0.0,0.0,0.0,0.0,0.0,0.0
1606987855031122992,1526656,1606984253784130118,imu_link,-0.0005559459095820785,-0.0009536573197692633,0.25098907947540283,-0.9679893255233765,0.0,0.0,0.0,0.0,0.0,0.0,0.0,0.0,0.0,-29.072072982788086,0.12177269160747528,0.03423913195729256,0.0,0.0,0.0,0.0,0.0,0.0,0.0,0.0,0.0,-0.009843519888818264,-0.007736722473055124,0.04546073079109192,0.0,0.0,0.0,0.0,0.0,0.0,0.0,0.0,0.0
1606987855106441960,1526657,1606984253796582968,imu_link,-0.0005553985829465091,-0.0009553182171657681,0.2509877383708954,-0.9679896831512451,0.0,0.0,0.0,0.0,0.0,0.0,0.0,0.0,0.0,-29.071916580200195,0.12194113433361053,0.03413081914186478,0.0,0.0,0.0,0.0,0.0,0.0,0.0,0.0,0.0,-0.003084767609834671,-0.011901816353201866,0.05203694477677345,0.0,0.0,0.0,0.0,0.0,0.0,0.0,0.0,0.0
1606987855106470601,1526658,1606984253796723583,imu_link,-0.0005553985829465091,-0.0009553182171657681,0.2509877383708954,-0.9679896831512451,0.0,0.0,0.0,0.0,0.0,0.0,0.0,0.0,0.0,-29.071916580200195,0.12194113433361053,0.03413081914186478,0.0,0.0,0.0,0.0,0.0,0.0,0.0,0.0,0.0,-0.003084767609834671,-0.011901816353201866,0.05203694477677345,0.0,0.0,0.0,0.0,0.0,0.0,0.0,0.0,0.0
1606987855106485338,1526659,1606984253796859924,imu_link,-0.0005567633779719472,-0.0009547107620164752,0.2509865462779999,-0.967989981174469,0.0,0.0,0.0,0.0,0.0,0.0,0.0,0.0,0.0,-29.07177734375,0.12191296368837357,0.0342998243868351,0.0,0.0,0.0,0.0,0.0,0.0,0.0,0.0,0.0,0.006197087932378054,-0.0008379926439374685,0.032100141048431396,0.0,0.0,0.0,0.0,0.0,0.0,0.0,0.0,0.0
1606987855106495134,1526660,1606984253796959419,imu_link,-0.0005567633779719472,-0.0009547107620164752,0.2509865462779999,-0.967989981174469,0.0,0.0,0.0,0.0,0.0,0.0,0.0,0.0,0.0,-29.07177734375,0.12191296368837357,0.0342998243868351,0.0,0.0,0.0,0.0,0.0,0.0,0.0,0.0,0.0,0.006197087932378054,-0.0008379926439374685,0.032100141048431396,0.0,0.0,0.0,0.0,0.0,0.0,0.0,0.0,0.0
1606987855106527996,1526661,1606984253797045719,imu_link,-0.0005564411985687912,-0.0009540513274259865,0.2509840726852417,-0.9679906368255615,0.0,0.0,0.0,0.0,0.0,0.0,0.0,0.0,0.0,-29.071483612060547,0.12183046340942383,0.03428336977958679,0.0,0.0,0.0,0.0,0.0,0.0,0.0,0.0,0.0,0.016455484554171562,-0.01582447998225689,0.03343649581074715,0.0,0.0,0.0,0.0,0.0,0.0,0.0,0.0,0.0
1606987855112477842,1526662,1606984253797131001,imu_link,-0.0005564411985687912,-0.0009540513274259865,0.2509840726852417,-0.9679906368255615,0.0,0.0,0.0,0.0,0.0,0.0,0.0,0.0,0.0,-29.071483612060547,0.12183046340942383,0.03428336977958679,0.0,0.0,0.0,0.0,0.0,0.0,0.0,0.0,0.0,0.016455484554171562,-0.01582447998225689,0.03343649581074715,0.0,0.0,0.0,0.0,0.0,0.0,0.0,0.0,0.0
1606987855112533770,1526663,1606984253797234270,imu_link,-0.0005595594993792474,-0.0009535144781693816,0.2509813904762268,-0.967991292476654,0.0,0.0,0.0,0.0,0.0,0.0,0.0,0.0,0.0,-29.071168899536133,0.12186050415039062,0.03464503958821297,0.0,0.0,0.0,0.0,0.0,0.0,0.0,0.0,0.0,0.01618688739836216,-0.014644215814769268,0.055715110152959824,0.0,0.0,0.0,0.0,0.0,0.0,0.0,0.0,0.0
1606987855112560095,1526664,1606984253797317162,imu_link,-0.0005595594993792474,-0.0009535144781693816,0.2509813904762268,-0.967991292476654,0.0,0.0,0.0,0.0,0.0,0.0,0.0,0.0,0.0,-29.071168899536133,0.12186050415039062,0.03464503958821297,0.0,0.0,0.0,0.0,0.0,0.0,0.0,0.0,0.0,0.01618688739836216,-0.014644215814769268,0.055715110152959824,0.0,0.0,0.0,0.0,0.0,0.0,0.0,0.0,0.0
1606987855112568091,1526665,1606984253797398826,imu_link,-0.0005590334767475724,-0.0009554176940582693,0.25097915530204773,-0.9679918885231018,0.0,0.0,0.0,0.0,0.0,0.0,0.0,0.0,0.0,-29.07090187072754,0.12205640971660614,0.03453223779797554,0.0,0.0,0.0,0.0,0.0,0.0,0.0,0.0,0.0,-0.0011164068710058928,-0.007331106811761856,0.049988050013780594,0.0,0.0,0.0,0.0,0.0,0.0,0.0,0.0,0.0
1606987855112595184,1526666,1606984253797479478,imu_link,-0.0005590334767475724,-0.0009554176940582693,0.25097915530204773,-0.9679918885231018,0.0,0.0,0.0,0.0,0.0,0.0,0.0,0.0,0.0,-29.07090187072754,0.12205640971660614,0.03453223779797554,0.0,0.0,0.0,0.0,0.0,0.0,0.0,0.0,0.0,-0.0011164068710058928,-0.007331106811761856,0.049988050013780594,0.0,0.0,0.0,0.0,0.0,0.0,0.0,0.0,0.0
1606987855112630885,1526667,1606984253797570774,imu_link,-0.0005609876825474203,-0.0009571078117005527,0.2509863078594208,-0.9679900407791138,0.0,0.0,0.0,0.0,0.0,0.0,0.0,0.0,0.0,-29.071744918823242,0.12230034917593002,0.03469949588179588,0.0,0.0,0.0,0.0,0.0,0.0,0.0,0.0,0.0,-0.013370629400014877,0.00012783742567989975,0.03920373693108559,0.0,0.0,0.0,0.0,0.0,0.0,0.0,0.0,0.0
1606987855112677661,1526668,1606984253810283631,imu_link,-0.0005609876825474203,-0.0009571078117005527,0.2509863078594208,-0.9679900407791138,0.0,0.0,0.0,0.0,0.0,0.0,0.0,0.0,0.0,-29.071744918823242,0.12230034917593002,0.03469949588179588,0.0,0.0,0.0,0.0,0.0,0.0,0.0,0.0,0.0,-0.013370629400014877,0.00012783742567989975,0.03920373693108559,0.0,0.0,0.0,0.0,0.0,0.0,0.0,0.0,0.0
1606987855112710084,1526669,1606984253810411762,imu_link,-0.0005617845454253256,-0.0009562995401211083,0.25098493695259094,-0.9679903984069824,0.0,0.0,0.0,0.0,0.0,0.0,0.0,0.0,0.0,-29.071584701538086,0.1222335547208786,0.03481130301952362,0.0,0.0,0.0,0.0,0.0,0.0,0.0,0.0,0.0,-0.00044451127178035676,0.004526003263890743,0.029092978686094284,0.0,0.0,0.0,0.0,0.0,0.0,0.0,0.0,0.0
1606987855112726636,1526670,1606984253810502011,imu_link,-0.0005617845454253256,-0.0009562995401211083,0.25098493695259094,-0.9679903984069824,0.0,0.0,0.0,0.0,0.0,0.0,0.0,0.0,0.0,-29.071584701538086,0.1222335547208786,0.03481130301952362,0.0,0.0,0.0,0.0,0.0,0.0,0.0,0.0,0.0,-0.00044451127178035676,0.004526003263890743,0.029092978686094284,0.0,0.0,0.0,0.0,0.0,0.0,0.0,0.0,0.0
1606987855125890762,1526671,1606984253810629050,imu_link,-0.0005624906625598669,-0.0009549794485792518,0.25099119544029236,-0.9679887890815735,0.0,0.0,0.0,0.0,0.0,0.0,0.0,0.0,0.0,-29.07232666015625,0.12210766226053238,0.03492680564522743,0.0,0.0,0.0,0.0,0.0,0.0,0.0,0.0,0.0,0.009969391860067844,-0.0023313607089221478,0.01632005162537098,0.0,0.0,0.0,0.0,0.0,0.0,0.0,0.0,0.0
1606987855125908533,1526672,1606984253810719605,imu_link,-0.0005624906625598669,-0.0009549794485792518,0.25099119544029236,-0.9679887890815735,0.0,0.0,0.0,0.0,0.0,0.0,0.0,0.0,0.0,-29.07232666015625,0.12210766226053238,0.03492680564522743,0.0,0.0,0.0,0.0,0.0,0.0,0.0,0.0,0.0,0.009969391860067844,-0.0023313607089221478,0.01632005162537098,0.0,0.0,0.0,0.0,0.0,0.0,0.0,0.0,0.0
1606987855125929106,1526673,1606984253810810069,imu_link,-0.0005631149979308248,-0.0009549865499138832,0.2509889602661133,-0.9679893851280212,0.0,0.0,0.0,0.0,0.0,0.0,0.0,0.0,0.0,-29.072059631347656,0.12212632596492767,0.034996140748262405,0.0,0.0,0.0,0.0,0.0,0.0,0.0,0.0,0.0,0.022450940683484077,0.004922351334244013,0.033601872622966766,0.0,0.0,0.0,0.0,0.0,0.0,0.0,0.0,0.0
1606987855125942111,1526674,1606984253810913794,imu_link,-0.0005631149979308248,-0.0009549865499138832,0.2509889602661133,-0.9679893851280212,0.0,0.0,0.0,0.0,0.0,0.0,0.0,0.0,0.0,-29.072059631347656,0.12212632596492767,0.034996140748262405,0.0,0.0,0.0,0.0,0.0,0.0,0.0,0.0,0.0,0.022450940683484077,0.004922351334244013,0.033601872622966766,0.0,0.0,0.0,0.0,0.0,0.0,0.0,0.0,0.0
1606987855174568840,1526675,1606984253811028730,imu_link,-0.0005635129637084901,-0.0009562054183334112,0.2509891092777252,-0.9679893255233765,0.0,0.0,0.0,0.0,0.0,0.0,0.0,0.0,0.0,-29.072080612182617,0.12227297574281693,0.03500520810484886,0.0,0.0,0.0,0.0,0.0,0.0,0.0,0.0,0.0,0.01841895841062069,0.0023357425816357136,0.057025790214538574,0.0,0.0,0.0,0.0,0.0,0.0,0.0,0.0,0.0
1606987855174596451,1526676,1606984253811118543,imu_link,-0.0005635129637084901,-0.0009562054183334112,0.2509891092777252,-0.9679893255233765,0.0,0.0,0.0,0.0,0.0,0.0,0.0,0.0,0.0,-29.072080612182617,0.12227297574281693,0.03500520810484886,0.0,0.0,0.0,0.0,0.0,0.0,0.0,0.0,0.0,0.01841895841062069,0.0023357425816357136,0.057025790214538574,0.0,0.0,0.0,0.0,0.0,0.0,0.0,0.0,0.0
1606987855174608630,1526677,1606984253811210616,imu_link,-0.0005635711713694036,-0.0009546257788315415,0.2509893774986267,-0.9679892659187317,0.0,0.0,0.0,0.0,0.0,0.0,0.0,0.0,0.0,-29.072111129760742,0.12209944427013397,0.03505706414580345,0.0,0.0,0.0,0.0,0.0,0.0,0.0,0.0,0.0,0.003374956315383315,-0.0015724109252914786,0.05683775246143341,0.0,0.0,0.0,0.0,0.0,0.0,0.0,0.0,0.0
1606987855174634149,1526678,1606984253811296545,imu_link,-0.0005635711713694036,-0.0009546257788315415,0.2509893774986267,-0.9679892659187317,0.0,0.0,0.0,0.0,0.0,0.0,0.0,0.0,0.0,-29.072111129760742,0.12209944427013397,0.03505706414580345,0.0,0.0,0.0,0.0,0.0,0.0,0.0,0.0,0.0,0.003374956315383315,-0.0015724109252914786,0.05683775246143341,0.0,0.0,0.0,0.0,0.0,0.0,0.0,0.0,0.0
1606987855174658835,1526679,1606984253823797426,imu_link,-0.0005636082496494055,-0.0009553948184475303,0.2509865462779999,-0.967989981174469,0.0,0.0,0.0,0.0,0.0,0.0,0.0,0.0,0.0,-29.07177734375,0.12218571454286575,0.03503941372036934,0.0,0.0,0.0,0.0,0.0,0.0,0.0,0.0,0.0,-0.014217105694115162,0.018194731324911118,0.06262465566396713,0.0,0.0,0.0,0.0,0.0,0.0,0.0,0.0,0.0
1606987855214190984,1526680,1606984253823917919,imu_link,-0.0005636082496494055,-0.0009553948184475303,0.2509865462779999,-0.967989981174469,0.0,0.0,0.0,0.0,0.0,0.0,0.0,0.0,0.0,-29.07177734375,0.12218571454286575,0.03503941372036934,0.0,0.0,0.0,0.0,0.0,0.0,0.0,0.0,0.0,-0.014217105694115162,0.018194731324911118,0.06262465566396713,0.0,0.0,0.0,0.0,0.0,0.0,0.0,0.0,0.0
1606987855214216363,1526681,1606984253824007837,imu_link,-0.0005650953389704227,-0.0009552679839543998,0.2509859502315521,-0.9679901003837585,0.0,0.0,0.0,0.0,0.0,0.0,0.0,0.0,0.0,-29.071704864501953,0.12221438437700272,0.0352080874145031,0.0,0.0,0.0,0.0,0.0,0.0,0.0,0.0,0.0,-0.02066153660416603,0.012930492870509624,0.05715332180261612,0.0,0.0,0.0,0.0,0.0,0.0,0.0,0.0,0.0
1606987855214240636,1526682,1606984253824101194,imu_link,-0.0005650953389704227,-0.0009552679839543998,0.2509859502315521,-0.9679901003837585,0.0,0.0,0.0,0.0,0.0,0.0,0.0,0.0,0.0,-29.071704864501953,0.12221438437700272,0.0352080874145031,0.0,0.0,0.0,0.0,0.0,0.0,0.0,0.0,0.0,-0.02066153660416603,0.012930492870509624,0.05715332180261612,0.0,0.0,0.0,0.0,0.0,0.0,0.0,0.0,0.0
1606987855214276868,1526683,1606984253824183634,imu_link,-0.0005618532886728644,-0.000952873146161437,0.25098717212677,-0.9679897427558899,0.0,0.0,0.0,0.0,0.0,0.0,0.0,0.0,0.0,-29.07185173034668,0.12185554206371307,0.0349171943962574,0.0,0.0,0.0,0.0,0.0,0.0,0.0,0.0,0.0,0.0030072680674493313,-0.00250876578502357,0.052109185606241226,0.0,0.0,0.0,0.0,0.0,0.0,0.0,0.0,0.0
1606987855219101329,1526684,1606984253824288016,imu_link,-0.0005618532886728644,-0.000952873146161437,0.25098717212677,-0.9679897427558899,0.0,0.0,0.0,0.0,0.0,0.0,0.0,0.0,0.0,-29.07185173034668,0.12185554206371307,0.0349171943962574,0.0,0.0,0.0,0.0,0.0,0.0,0.0,0.0,0.0,0.0030072680674493313,-0.00250876578502357,0.052109185606241226,0.0,0.0,0.0,0.0,0.0,0.0,0.0,0.0,0.0
1606987855219151520,1526685,1606984253824373804,imu_link,-0.0005625325138680637,-0.0009531524847261608,0.25098916888237,-0.9679893255233765,0.0,0.0,0.0,0.0,0.0,0.0,0.0,0.0,0.0,-29.072084426879883,0.12190614640712738,0.034984245896339417,0.0,0.0,0.0,0.0,0.0,0.0,0.0,0.0,0.0,-0.0020071817561984062,0.004632883705198765,0.04182402417063713,0.0,0.0,0.0,0.0,0.0,0.0,0.0,0.0,0.0
1606987855219179928,1526686,1606984253824454717,imu_link,-0.0005625325138680637,-0.0009531524847261608,0.25098916888237,-0.9679893255233765,0.0,0.0,0.0,0.0,0.0,0.0,0.0,0.0,0.0,-29.072084426879883,0.12190614640712738,0.034984245896339417,0.0,0.0,0.0,0.0,0.0,0.0,0.0,0.0,0.0,-0.0020071817561984062,0.004632883705198765,0.04182402417063713,0.0,0.0,0.0,0.0,0.0,0.0,0.0,0.0,0.0
1606987855219198262,1526687,1606984253824540701,imu_link,-0.0005611791857518256,-0.0009533768170513213,0.2509886920452118,-0.9679893851280212,0.0,0.0,0.0,0.0,0.0,0.0,0.0,0.0,0.0,-29.07202911376953,0.12189207971096039,0.03482774272561073,0.0,0.0,0.0,0.0,0.0,0.0,0.0,0.0,0.0,-0.014242765493690968,-0.002682441147044301,0.049555838108062744,0.0,0.0,0.0,0.0,0.0,0.0,0.0,0.0,0.0
1606987855219215620,1526688,1606984253824621007,imu_link,-0.0005611791857518256,-0.0009533768170513213,0.2509886920452118,-0.9679893851280212,0.0,0.0,0.0,0.0,0.0,0.0,0.0,0.0,0.0,-29.07202911376953,0.12189207971096039,0.03482774272561073,0.0,0.0,0.0,0.0,0.0,0.0,0.0,0.0,0.0,-0.014242765493690968,-0.002682441147044301,0.049555838108062744,0.0,0.0,0.0,0.0,0.0,0.0,0.0,0.0,0.0
1606987855223019879,1526689,1606984253824705968,imu_link,-0.0005598121788352728,-0.0009539874736219645,0.2509874701499939,-0.9679897427558899,0.0,0.0,0.0,0.0,0.0,0.0,0.0,0.0,0.0,-29.07188606262207,0.12192045897245407,0.03465870022773743,0.0,0.0,0.0,0.0,0.0,0.0,0.0,0.0,0.0,-0.01627819985151291,-0.005257889628410339,0.07529755681753159,0.0,0.0,0.0,0.0,0.0,0.0,0.0,0.0,0.0
1606987855223045758,1526690,1606984253836766891,imu_link,-0.0005598121788352728,-0.0009539874736219645,0.2509874701499939,-0.9679897427558899,0.0,0.0,0.0,0.0,0.0,0.0,0.0,0.0,0.0,-29.07188606262207,0.12192045897245407,0.03465870022773743,0.0,0.0,0.0,0.0,0.0,0.0,0.0,0.0,0.0,-0.01627819985151291,-0.005257889628410339,0.07529755681753159,0.0,0.0,0.0,0.0,0.0,0.0,0.0,0.0,0.0
1606987855223054398,1526691,1606984253836910278,imu_link,-0.0005597759154625237,-0.0009532889234833419,0.2509833872318268,-0.9679908156394958,0.0,0.0,0.0,0.0,0.0,0.0,0.0,0.0,0.0,-29.071401596069336,0.12184177339076996,0.03467528522014618,0.0,0.0,0.0,0.0,0.0,0.0,0.0,0.0,0.0,-0.006210437044501305,0.00046532368287444115,0.06725982576608658,0.0,0.0,0.0,0.0,0.0,0.0,0.0,0.0,0.0
1606987855223071327,1526692,1606984253837109649,imu_link,-0.0005597759154625237,-0.0009532889234833419,0.2509833872318268,-0.9679908156394958,0.0,0.0,0.0,0.0,0.0,0.0,0.0,0.0,0.0,-29.071401596069336,0.12184177339076996,0.03467528522014618,0.0,0.0,0.0,0.0,0.0,0.0,0.0,0.0,0.0,-0.006210437044501305,0.00046532368287444115,0.06725982576608658,0.0,0.0,0.0,0.0,0.0,0.0,0.0,0.0,0.0
1606987855290117459,1526693,1606984253837199447,imu_link,-0.0005603329045698047,-0.000953919196035713,0.25098222494125366,-0.9679911136627197,0.0,0.0,0.0,0.0,0.0,0.0,0.0,0.0,0.0,-29.071264266967773,0.1219276711344719,0.034719083458185196,0.0,0.0,0.0,0.0,0.0,0.0,0.0,0.0,0.0,0.013327186927199364,-0.008792701177299023,0.05139394849538803,0.0,0.0,0.0,0.0,0.0,0.0,0.0,0.0,0.0
1606987855290172556,1526694,1606984253837361923,imu_link,-0.0005603329045698047,-0.000953919196035713,0.25098222494125366,-0.9679911136627197,0.0,0.0,0.0,0.0,0.0,0.0,0.0,0.0,0.0,-29.071264266967773,0.1219276711344719,0.034719083458185196,0.0,0.0,0.0,0.0,0.0,0.0,0.0,0.0,0.0,0.013327186927199364,-0.008792701177299023,0.05139394849538803,0.0,0.0,0.0,0.0,0.0,0.0,0.0,0.0,0.0
1606987855290193346,1526695,1606984253837470244,imu_link,-0.0005630050436593592,-0.0009535844437777996,0.2509782910346985,-0.9679921269416809,0.0,0.0,0.0,0.0,0.0,0.0,0.0,0.0,0.0,-29.070798873901367,0.12196724116802216,0.035025615245103836,0.0,0.0,0.0,0.0,0.0,0.0,0.0,0.0,0.0,0.007496930193156004,-0.019031789153814316,0.03944209963083267,0.0,0.0,0.0,0.0,0.0,0.0,0.0,0.0,0.0
1606987855290204774,1526696,1606984253837554719,imu_link,-0.0005630050436593592,-0.0009535844437777996,0.2509782910346985,-0.9679921269416809,0.0,0.0,0.0,0.0,0.0,0.0,0.0,0.0,0.0,-29.070798873901367,0.12196724116802216,0.035025615245103836,0.0,0.0,0.0,0.0,0.0,0.0,0.0,0.0,0.0,0.007496930193156004,-0.019031789153814316,0.03944209963083267,0.0,0.0,0.0,0.0,0.0,0.0,0.0,0.0,0.0
1606987855290232108,1526697,1606984253837636448,imu_link,-0.0005630476516671479,-0.000951435707975179,0.25097689032554626,-0.9679924845695496,0.0,0.0,0.0,0.0,0.0,0.0,0.0,0.0,0.0,-29.070632934570312,0.12173008173704147,0.0350923165678978,0.0,0.0,0.0,0.0,0.0,0.0,0.0,0.0,0.0,0.002992436056956649,0.0001835408911574632,0.03834404796361923,0.0,0.0,0.0,0.0,0.0,0.0,0.0,0.0,0.0
1606987855293835094,1526698,1606984253837715326,imu_link,-0.0005630476516671479,-0.000951435707975179,0.25097689032554626,-0.9679924845695496,0.0,0.0,0.0,0.0,0.0,0.0,0.0,0.0,0.0,-29.070632934570312,0.12173008173704147,0.0350923165678978,0.0,0.0,0.0,0.0,0.0,0.0,0.0,0.0,0.0,0.002992436056956649,0.0001835408911574632,0.03834404796361923,0.0,0.0,0.0,0.0,0.0,0.0,0.0,0.0,0.0
1606987855293861060,1526699,1606984253837792980,imu_link,-0.0005622691824100912,-0.0009513322147540748,0.25098028779029846,-0.9679916501045227,0.0,0.0,0.0,0.0,0.0,0.0,0.0,0.0,0.0,-29.07103157043457,0.1216963455080986,0.035008516162633896,0.0,0.0,0.0,0.0,0.0,0.0,0.0,0.0,0.0,-0.009177257306873798,0.009036154486238956,0.021952467039227486,0.0,0.0,0.0,0.0,0.0,0.0,0.0,0.0,0.0
1606987855293870388,1526700,1606984253850519213,imu_link,-0.0005622691824100912,-0.0009513322147540748,0.25098028779029846,-0.9679916501045227,0.0,0.0,0.0,0.0,0.0,0.0,0.0,0.0,0.0,-29.07103157043457,0.1216963455080986,0.035008516162633896,0.0,0.0,0.0,0.0,0.0,0.0,0.0,0.0,0.0,-0.009177257306873798,0.009036154486238956,0.021952467039227486,0.0,0.0,0.0,0.0,0.0,0.0,0.0,0.0,0.0
1606987855293885879,1526701,1606984253850661196,imu_link,-0.0005614594556391239,-0.0009531882824376225,0.2509786784648895,-0.9679920077323914,0.0,0.0,0.0,0.0,0.0,0.0,0.0,0.0,0.0,-29.07084846496582,0.12187886238098145,0.03486551716923714,0.0,0.0,0.0,0.0,0.0,0.0,0.0,0.0,0.0,-0.006551950238645077,0.019382227212190628,0.028406230732798576,0.0,0.0,0.0,0.0,0.0,0.0,0.0,0.0,0.0
1606987855302565175,1526702,1606984253850760206,imu_link,-0.0005614594556391239,-0.0009531882824376225,0.2509786784648895,-0.9679920077323914,0.0,0.0,0.0,0.0,0.0,0.0,0.0,0.0,0.0,-29.07084846496582,0.12187886238098145,0.03486551716923714,0.0,0.0,0.0,0.0,0.0,0.0,0.0,0.0,0.0,-0.006551950238645077,0.019382227212190628,0.028406230732798576,0.0,0.0,0.0,0.0,0.0,0.0,0.0,0.0,0.0
1606987855302607970,1526703,1606984253850852419,imu_link,-0.0005579495336860418,-0.0009533496340736747,0.250977486371994,-0.9679923057556152,0.0,0.0,0.0,0.0,0.0,0.0,0.0,0.0,0.0,-29.070703506469727,0.12179576605558395,0.03447169065475464,0.0,0.0,0.0,0.0,0.0,0.0,0.0,0.0,0.0,0.01638655923306942,0.03243342041969299,0.041426822543144226,0.0,0.0,0.0,0.0,0.0,0.0,0.0,0.0,0.0
1606987855302641971,1526704,1606984253850980676,imu_link,-0.0005579495336860418,-0.0009533496340736747,0.250977486371994,-0.9679923057556152,0.0,0.0,0.0,0.0,0.0,0.0,0.0,0.0,0.0,-29.070703506469727,0.12179576605558395,0.03447169065475464,0.0,0.0,0.0,0.0,0.0,0.0,0.0,0.0,0.0,0.01638655923306942,0.03243342041969299,0.041426822543144226,0.0,0.0,0.0,0.0,0.0,0.0,0.0,0.0,0.0
1606987855302652421,1526705,1606984253851090501,imu_link,-0.0005591903463937342,-0.0009525839705020189,0.2509757876396179,-0.9679927825927734,0.0,0.0,0.0,0.0,0.0,0.0,0.0,0.0,0.0,-29.07050323486328,0.1217464730143547,0.03463156148791313,0.0,0.0,0.0,0.0,0.0,0.0,0.0,0.0,0.0,0.006001890636980534,0.011526074260473251,0.024516232311725616,0.0,0.0,0.0,0.0,0.0,0.0,0.0,0.0,0.0
1606987855302683616,1526706,1606984253851183116,imu_link,-0.0005591903463937342,-0.0009525839705020189,0.2509757876396179,-0.9679927825927734,0.0,0.0,0.0,0.0,0.0,0.0,0.0,0.0,0.0,-29.07050323486328,0.1217464730143547,0.03463156148791313,0.0,0.0,0.0,0.0,0.0,0.0,0.0,0.0,0.0,0.006001890636980534,0.011526074260473251,0.024516232311725616,0.0,0.0,0.0,0.0,0.0,0.0,0.0,0.0,0.0
1606987855305986984,1526707,1606984253851254981,imu_link,-0.0005568325286731124,-0.0009537166333757341,0.2509775161743164,-0.9679923057556152,0.0,0.0,0.0,0.0,0.0,0.0,0.0,0.0,0.0,-29.070707321166992,0.12180435657501221,0.034337226301431656,0.0,0.0,0.0,0.0,0.0,0.0,0.0,0.0,0.0,-0.006844568531960249,0.003088179975748062,0.026261204853653908,0.0,0.0,0.0,0.0,0.0,0.0,0.0,0.0,0.0
1606987855306008826,1526708,1606984253851342333,imu_link,-0.0005568325286731124,-0.0009537166333757341,0.2509775161743164,-0.9679923057556152,0.0,0.0,0.0,0.0,0.0,0.0,0.0,0.0,0.0,-29.070707321166992,0.12180435657501221,0.034337226301431656,0.0,0.0,0.0,0.0,0.0,0.0,0.0,0.0,0.0,-0.006844568531960249,0.003088179975748062,0.026261204853653908,0.0,0.0,0.0,0.0,0.0,0.0,0.0,0.0,0.0
1606987855306023884,1526709,1606984253851412687,imu_link,-0.0005563595332205296,-0.0009525044006295502,0.25097590684890747,-0.9679927229881287,0.0,0.0,0.0,0.0,0.0,0.0,0.0,0.0,0.0,-29.07051658630371,0.12165623903274536,0.03431983292102814,0.0,0.0,0.0,0.0,0.0,0.0,0.0,0.0,0.0,0.0055330791510641575,0.014745847322046757,0.04498879611492157,0.0,0.0,0.0,0.0,0.0,0.0,0.0,0.0,0.0
1606987855306044171,1526710,1606984253851521142,imu_link,-0.0005563595332205296,-0.0009525044006295502,0.25097590684890747,-0.9679927229881287,0.0,0.0,0.0,0.0,0.0,0.0,0.0,0.0,0.0,-29.07051658630371,0.12165623903274536,0.03431983292102814,0.0,0.0,0.0,0.0,0.0,0.0,0.0,0.0,0.0,0.0055330791510641575,0.014745847322046757,0.04498879611492157,0.0,0.0,0.0,0.0,0.0,0.0,0.0,0.0,0.0
1606987855385160601,1526711,1606984253864019198,imu_link,-0.0005545908934436738,-0.000953555223532021,0.25097909569740295,-0.9679918885231018,0.0,0.0,0.0,0.0,0.0,0.0,0.0,0.0,0.0,-29.07089614868164,0.12172205001115799,0.034093018621206284,0.0,0.0,0.0,0.0,0.0,0.0,0.0,0.0,0.0,0.010944537818431854,0.006136082578450441,0.03724350780248642,0.0,0.0,0.0,0.0,0.0,0.0,0.0,0.0,0.0
1606987855385210671,1526712,1606984253864145971,imu_link,-0.0005545908934436738,-0.000953555223532021,0.25097909569740295,-0.9679918885231018,0.0,0.0,0.0,0.0,0.0,0.0,0.0,0.0,0.0,-29.07089614868164,0.12172205001115799,0.034093018621206284,0.0,0.0,0.0,0.0,0.0,0.0,0.0,0.0,0.0,0.010944537818431854,0.006136082578450441,0.03724350780248642,0.0,0.0,0.0,0.0,0.0,0.0,0.0,0.0,0.0
1606987855385269084,1526713,1606984253864237290,imu_link,-0.0005545943859033287,-0.0009557571029290557,0.2509777545928955,-0.9679922461509705,0.0,0.0,0.0,0.0,0.0,0.0,0.0,0.0,0.0,-29.07073402404785,0.12196633219718933,0.0340302512049675,0.0,0.0,0.0,0.0,0.0,0.0,0.0,0.0,0.0,0.0040922146290540695,-0.0008128109038807452,0.028390612453222275,0.0,0.0,0.0,0.0,0.0,0.0,0.0,0.0,0.0
1606987855385284667,1526714,1606984253864315823,imu_link,-0.0005545943859033287,-0.0009557571029290557,0.2509777545928955,-0.9679922461509705,0.0,0.0,0.0,0.0,0.0,0.0,0.0,0.0,0.0,-29.07073402404785,0.12196633219718933,0.0340302512049675,0.0,0.0,0.0,0.0,0.0,0.0,0.0,0.0,0.0,0.0040922146290540695,-0.0008128109038807452,0.028390612453222275,0.0,0.0,0.0,0.0,0.0,0.0,0.0,0.0,0.0
1606987855385309339,1526715,1606984253864404583,imu_link,-0.0005569418426603079,-0.0009556099539622664,0.2509729564189911,-0.9679934978485107,0.0,0.0,0.0,0.0,0.0,0.0,0.0,0.0,0.0,-29.070167541503906,0.12201736122369766,0.03429547697305679,0.0,0.0,0.0,0.0,0.0,0.0,0.0,0.0,0.0,-0.00015212182188406587,-0.0036624043714255095,0.03641801327466965,0.0,0.0,0.0,0.0,0.0,0.0,0.0,0.0,0.0
1606987855396332240,1526716,1606984253864481027,imu_link,-0.0005569418426603079,-0.0009556099539622664,0.2509729564189911,-0.9679934978485107,0.0,0.0,0.0,0.0,0.0,0.0,0.0,0.0,0.0,-29.070167541503906,0.12201736122369766,0.03429547697305679,0.0,0.0,0.0,0.0,0.0,0.0,0.0,0.0,0.0,-0.00015212182188406587,-0.0036624043714255095,0.03641801327466965,0.0,0.0,0.0,0.0,0.0,0.0,0.0,0.0,0.0
1606987855396364883,1526717,1606984253864576350,imu_link,-0.0005570761277340353,-0.0009558486635796726,0.2509725093841553,-0.9679936170578003,0.0,0.0,0.0,0.0,0.0,0.0,0.0,0.0,0.0,-29.070114135742188,0.12204768508672714,0.034303560853004456,0.0,0.0,0.0,0.0,0.0,0.0,0.0,0.0,0.0,0.015565358102321625,0.0011106198653578758,0.03966252878308296,0.0,0.0,0.0,0.0,0.0,0.0,0.0,0.0,0.0
1606987855396384663,1526718,1606984253864690900,imu_link,-0.0005570761277340353,-0.0009558486635796726,0.2509725093841553,-0.9679936170578003,0.0,0.0,0.0,0.0,0.0,0.0,0.0,0.0,0.0,-29.070114135742188,0.12204768508672714,0.034303560853004456,0.0,0.0,0.0,0.0,0.0,0.0,0.0,0.0,0.0,0.015565358102321625,0.0011106198653578758,0.03966252878308296,0.0,0.0,0.0,0.0,0.0,0.0,0.0,0.0,0.0
1606987855396409716,1526719,1606984253864826534,imu_link,-0.000556294631678611,-0.0009587066015228629,0.25096791982650757,-0.9679948091506958,0.0,0.0,0.0,0.0,0.0,0.0,0.0,0.0,0.0,-29.069570541381836,0.1223420649766922,0.03413526341319084,0.0,0.0,0.0,0.0,0.0,0.0,0.0,0.0,0.0,0.025309691205620766,0.015270543284714222,0.03516218438744545,0.0,0.0,0.0,0.0,0.0,0.0,0.0,0.0,0.0
1606987855405955487,1526720,1606984253864915209,imu_link,-0.000556294631678611,-0.0009587066015228629,0.25096791982650757,-0.9679948091506958,0.0,0.0,0.0,0.0,0.0,0.0,0.0,0.0,0.0,-29.069570541381836,0.1223420649766922,0.03413526341319084,0.0,0.0,0.0,0.0,0.0,0.0,0.0,0.0,0.0,0.025309691205620766,0.015270543284714222,0.03516218438744545,0.0,0.0,0.0,0.0,0.0,0.0,0.0,0.0,0.0
1606987855406005545,1526721,1606984253864993250,imu_link,-0.0005578086711466312,-0.0009592614369466901,0.2509682774543762,-0.9679946899414062,0.0,0.0,0.0,0.0,0.0,0.0,0.0,0.0,0.0,-29.069610595703125,0.12244715541601181,0.03428720682859421,0.0,0.0,0.0,0.0,0.0,0.0,0.0,0.0,0.0,0.017181333154439926,0.01179738249629736,0.0493604950606823,0.0,0.0,0.0,0.0,0.0,0.0,0.0,0.0,0.0
1606987855406039667,1526722,1606984253877947575,imu_link,-0.0005578086711466312,-0.0009592614369466901,0.2509682774543762,-0.9679946899414062,0.0,0.0,0.0,0.0,0.0,0.0,0.0,0.0,0.0,-29.069610595703125,0.12244715541601181,0.03428720682859421,0.0,0.0,0.0,0.0,0.0,0.0,0.0,0.0,0.0,0.017181333154439926,0.01179738249629736,0.0493604950606823,0.0,0.0,0.0,0.0,0.0,0.0,0.0,0.0,0.0
1606987855406055890,1526723,1606984253878089985,imu_link,-0.0005575494142249227,-0.0009610191336832941,0.2509690225124359,-0.9679945111274719,0.0,0.0,0.0,0.0,0.0,0.0,0.0,0.0,0.0,-29.069700241088867,0.12263470888137817,0.034207798540592194,0.0,0.0,0.0,0.0,0.0,0.0,0.0,0.0,0.0,0.0049572475254535675,0.015902044251561165,0.058974578976631165,0.0,0.0,0.0,0.0,0.0,0.0,0.0,0.0,0.0
1606987855409334489,1526724,1606984253878229272,imu_link,-0.0005575494142249227,-0.0009610191336832941,0.2509690225124359,-0.9679945111274719,0.0,0.0,0.0,0.0,0.0,0.0,0.0,0.0,0.0,-29.069700241088867,0.12263470888137817,0.034207798540592194,0.0,0.0,0.0,0.0,0.0,0.0,0.0,0.0,0.0,0.0049572475254535675,0.015902044251561165,0.058974578976631165,0.0,0.0,0.0,0.0,0.0,0.0,0.0,0.0,0.0
1606987855409363942,1526725,1606984253878342083,imu_link,-0.0005557177937589586,-0.0009605950326658785,0.2509658634662628,-0.967995285987854,0.0,0.0,0.0,0.0,0.0,0.0,0.0,0.0,0.0,-29.06932830810547,0.1225348711013794,0.034017231315374374,0.0,0.0,0.0,0.0,0.0,0.0,0.0,0.0,0.0,0.003588543739169836,0.017992127686738968,0.044283825904130936,0.0,0.0,0.0,0.0,0.0,0.0,0.0,0.0,0.0
1606987855409427303,1526726,1606984253878433355,imu_link,-0.0005557177937589586,-0.0009605950326658785,0.2509658634662628,-0.967995285987854,0.0,0.0,0.0,0.0,0.0,0.0,0.0,0.0,0.0,-29.06932830810547,0.1225348711013794,0.034017231315374374,0.0,0.0,0.0,0.0,0.0,0.0,0.0,0.0,0.0,0.003588543739169836,0.017992127686738968,0.044283825904130936,0.0,0.0,0.0,0.0,0.0,0.0,0.0,0.0,0.0
1606987855409489144,1526727,1606984253878524155,imu_link,-0.0005546887987293303,-0.0009632197325117886,0.25096720457077026,-0.9679949879646301,0.0,0.0,0.0,0.0,0.0,0.0,0.0,0.0,0.0,-29.069488525390625,0.12279646843671799,0.033827438950538635,0.0,0.0,0.0,0.0,0.0,0.0,0.0,0.0,0.0,0.002410563174635172,0.006819696631282568,0.04575759917497635,0.0,0.0,0.0,0.0,0.0,0.0,0.0,0.0,0.0
1606987855409512143,1526728,1606984253878627679,imu_link,-0.0005546887987293303,-0.0009632197325117886,0.25096720457077026,-0.9679949879646301,0.0,0.0,0.0,0.0,0.0,0.0,0.0,0.0,0.0,-29.069488525390625,0.12279646843671799,0.033827438950538635,0.0,0.0,0.0,0.0,0.0,0.0,0.0,0.0,0.0,0.002410563174635172,0.006819696631282568,0.04575759917497635,0.0,0.0,0.0,0.0,0.0,0.0,0.0,0.0,0.0
1606987855463506153,1526729,1606984253878705464,imu_link,-0.0005545974127016962,-0.0009624456288293004,0.25096747279167175,-0.9679949283599854,0.0,0.0,0.0,0.0,0.0,0.0,0.0,0.0,0.0,-29.069515228271484,0.12270798534154892,0.03383953496813774,0.0,0.0,0.0,0.0,0.0,0.0,0.0,0.0,0.0,-0.007266288157552481,0.0051437923684716225,0.03112085349857807,0.0,0.0,0.0,0.0,0.0,0.0,0.0,0.0,0.0
1606987855463538672,1526730,1606984253878793789,imu_link,-0.0005545974127016962,-0.0009624456288293004,0.25096747279167175,-0.9679949283599854,0.0,0.0,0.0,0.0,0.0,0.0,0.0,0.0,0.0,-29.069515228271484,0.12270798534154892,0.03383953496813774,0.0,0.0,0.0,0.0,0.0,0.0,0.0,0.0,0.0,-0.007266288157552481,0.0051437923684716225,0.03112085349857807,0.0,0.0,0.0,0.0,0.0,0.0,0.0,0.0,0.0
1606987855463560166,1526731,1606984253878872155,imu_link,-0.0005518682301044464,-0.0009628819534555078,0.2509646713733673,-0.9679956436157227,0.0,0.0,0.0,0.0,0.0,0.0,0.0,0.0,0.0,-29.069185256958008,0.12267779558897018,0.03352460265159607,0.0,0.0,0.0,0.0,0.0,0.0,0.0,0.0,0.0,-0.013610084541141987,0.011880770325660706,0.030098184943199158,0.0,0.0,0.0,0.0,0.0,0.0,0.0,0.0,0.0
1606987855463585542,1526732,1606984253879019817,imu_link,-0.0005518682301044464,-0.0009628819534555078,0.2509646713733673,-0.9679956436157227,0.0,0.0,0.0,0.0,0.0,0.0,0.0,0.0,0.0,-29.069185256958008,0.12267779558897018,0.03352460265159607,0.0,0.0,0.0,0.0,0.0,0.0,0.0,0.0,0.0,-0.013610084541141987,0.011880770325660706,0.030098184943199158,0.0,0.0,0.0,0.0,0.0,0.0,0.0,0.0,0.0
1606987855466944103,1526733,1606984253891332206,imu_link,-0.0005536219105124474,-0.0009631119901314378,0.250963419675827,-0.9679960012435913,0.0,0.0,0.0,0.0,0.0,0.0,0.0,0.0,0.0,-29.06903839111328,0.12275370210409164,0.03371267020702362,0.0,0.0,0.0,0.0,0.0,0.0,0.0,0.0,0.0,-0.018639003857970238,-0.005131138954311609,0.05017130821943283,0.0,0.0,0.0,0.0,0.0,0.0,0.0,0.0,0.0
1606987855466967739,1526734,1606984253891462413,imu_link,-0.0005536219105124474,-0.0009631119901314378,0.250963419675827,-0.9679960012435913,0.0,0.0,0.0,0.0,0.0,0.0,0.0,0.0,0.0,-29.06903839111328,0.12275370210409164,0.03371267020702362,0.0,0.0,0.0,0.0,0.0,0.0,0.0,0.0,0.0,-0.018639003857970238,-0.005131138954311609,0.05017130821943283,0.0,0.0,0.0,0.0,0.0,0.0,0.0,0.0,0.0
1606987855467004761,1526735,1606984253891654778,imu_link,-0.0005543628940358758,-0.0009601985802873969,0.25095996260643005,-0.9679968953132629,0.0,0.0,0.0,0.0,0.0,0.0,0.0,0.0,0.0,-29.068628311157227,0.12245171517133713,0.03387908637523651,0.0,0.0,0.0,0.0,0.0,0.0,0.0,0.0,0.0,-0.005754487123340368,-0.014699948951601982,0.04893336445093155,0.0,0.0,0.0,0.0,0.0,0.0,0.0,0.0,0.0
1606987855467033521,1526736,1606984253891745302,imu_link,-0.0005543628940358758,-0.0009601985802873969,0.25095996260643005,-0.9679968953132629,0.0,0.0,0.0,0.0,0.0,0.0,0.0,0.0,0.0,-29.068628311157227,0.12245171517133713,0.03387908637523651,0.0,0.0,0.0,0.0,0.0,0.0,0.0,0.0,0.0,-0.005754487123340368,-0.014699948951601982,0.04893336445093155,0.0,0.0,0.0,0.0,0.0,0.0,0.0,0.0,0.0
1606987855467060330,1526737,1606984253891910846,imu_link,-0.0005534188239835203,-0.0009600150515325367,0.250957727432251,-0.9679973721504211,0.0,0.0,0.0,0.0,0.0,0.0,0.0,0.0,0.0,-29.0683650970459,0.12240413576364517,0.03377992659807205,0.0,0.0,0.0,0.0,0.0,0.0,0.0,0.0,0.0,0.0022534336894750595,-0.003751597600057721,0.05291414260864258,0.0,0.0,0.0,0.0,0.0,0.0,0.0,0.0,0.0
1606987855473561349,1526738,1606984253892022805,imu_link,-0.0005534188239835203,-0.0009600150515325367,0.250957727432251,-0.9679973721504211,0.0,0.0,0.0,0.0,0.0,0.0,0.0,0.0,0.0,-29.0683650970459,0.12240413576364517,0.03377992659807205,0.0,0.0,0.0,0.0,0.0,0.0,0.0,0.0,0.0,0.0022534336894750595,-0.003751597600057721,0.05291414260864258,0.0,0.0,0.0,0.0,0.0,0.0,0.0,0.0,0.0
1606987855473591499,1526739,1606984253892120110,imu_link,-0.0005554255330935121,-0.000958878081291914,0.2509535551071167,-0.9679985642433167,0.0,0.0,0.0,0.0,0.0,0.0,0.0,0.0,0.0,-29.067869186401367,0.12233559042215347,0.03403574973344803,0.0,0.0,0.0,0.0,0.0,0.0,0.0,0.0,0.0,-0.0013132516760379076,-0.0024949440266937017,0.048691507428884506,0.0,0.0,0.0,0.0,0.0,0.0,0.0,0.0,0.0
1606987855473610668,1526740,1606984253892213090,imu_link,-0.0005554255330935121,-0.000958878081291914,0.2509535551071167,-0.9679985642433167,0.0,0.0,0.0,0.0,0.0,0.0,0.0,0.0,0.0,-29.067869186401367,0.12233559042215347,0.03403574973344803,0.0,0.0,0.0,0.0,0.0,0.0,0.0,0.0,0.0,-0.0013132516760379076,-0.0024949440266937017,0.048691507428884506,0.0,0.0,0.0,0.0,0.0,0.0,0.0,0.0,0.0
1606987855473621628,1526741,1606984253892300242,imu_link,-0.0005550748319365084,-0.0009587923414073884,0.25095388293266296,-0.9679984450340271,0.0,0.0,0.0,0.0,0.0,0.0,0.0,0.0,0.0,-29.067907333374023,0.12231599539518356,0.03399926796555519,0.0,0.0,0.0,0.0,0.0,0.0,0.0,0.0,0.0,0.01460374053567648,0.0077598378993570805,0.04082009568810463,0.0,0.0,0.0,0.0,0.0,0.0,0.0,0.0,0.0
1606987855482953244,1526742,1606984253892384777,imu_link,-0.0005550748319365084,-0.0009587923414073884,0.25095388293266296,-0.9679984450340271,0.0,0.0,0.0,0.0,0.0,0.0,0.0,0.0,0.0,-29.067907333374023,0.12231599539518356,0.03399926796555519,0.0,0.0,0.0,0.0,0.0,0.0,0.0,0.0,0.0,0.01460374053567648,0.0077598378993570805,0.04082009568810463,0.0,0.0,0.0,0.0,0.0,0.0,0.0,0.0,0.0
1606987855482982313,1526743,1606984253892477737,imu_link,-0.0005527919856831431,-0.0009610567358322442,0.2509514391422272,-0.9679990410804749,0.0,0.0,0.0,0.0,0.0,0.0,0.0,0.0,0.0,-29.0676212310791,0.122501440346241,0.0336812362074852,0.0,0.0,0.0,0.0,0.0,0.0,0.0,0.0,0.0,0.026137808337807655,-0.004748061299324036,0.044200554490089417,0.0,0.0,0.0,0.0,0.0,0.0,0.0,0.0,0.0
1606987855482999735,1526744,1606984253904303115,imu_link,-0.0005527919856831431,-0.0009610567358322442,0.2509514391422272,-0.9679990410804749,0.0,0.0,0.0,0.0,0.0,0.0,0.0,0.0,0.0,-29.0676212310791,0.122501440346241,0.0336812362074852,0.0,0.0,0.0,0.0,0.0,0.0,0.0,0.0,0.0,0.026137808337807655,-0.004748061299324036,0.044200554490089417,0.0,0.0,0.0,0.0,0.0,0.0,0.0,0.0,0.0
1606987855483010418,1526745,1606984253904468032,imu_link,-0.0005526271415874362,-0.0009597550961188972,0.25095134973526,-0.9679991006851196,0.0,0.0,0.0,0.0,0.0,0.0,0.0,0.0,0.0,-29.067609786987305,0.12235230952501297,0.03370038792490959,0.0,0.0,0.0,0.0,0.0,0.0,0.0,0.0,0.0,0.003641123417764902,-0.016427457332611084,0.06363816559314728,0.0,0.0,0.0,0.0,0.0,0.0,0.0,0.0,0.0
1606987855483033224,1526746,1606984253904579374,imu_link,-0.0005526271415874362,-0.0009597550961188972,0.25095134973526,-0.9679991006851196,0.0,0.0,0.0,0.0,0.0,0.0,0.0,0.0,0.0,-29.067609786987305,0.12235230952501297,0.03370038792490959,0.0,0.0,0.0,0.0,0.0,0.0,0.0,0.0,0.0,0.003641123417764902,-0.016427457332611084,0.06363816559314728,0.0,0.0,0.0,0.0,0.0,0.0,0.0,0.0,0.0
1606987855564279934,1526747,1606984253904672224,imu_link,-0.0005523885483853519,-0.0009605990489944816,0.2509499192237854,-0.9679994583129883,0.0,0.0,0.0,0.0,0.0,0.0,0.0,0.0,0.0,-29.067441940307617,0.12243901938199997,0.03364983946084976,0.0,0.0,0.0,0.0,0.0,0.0,0.0,0.0,0.0,-0.0062417928129434586,-0.026455160230398178,0.08135272562503815,0.0,0.0,0.0,0.0,0.0,0.0,0.0,0.0,0.0
1606987855564297448,1526748,1606984253904759421,imu_link,-0.0005523885483853519,-0.0009605990489944816,0.2509499192237854,-0.9679994583129883,0.0,0.0,0.0,0.0,0.0,0.0,0.0,0.0,0.0,-29.067441940307617,0.12243901938199997,0.03364983946084976,0.0,0.0,0.0,0.0,0.0,0.0,0.0,0.0,0.0,-0.0062417928129434586,-0.026455160230398178,0.08135272562503815,0.0,0.0,0.0,0.0,0.0,0.0,0.0,0.0,0.0
1606987855564393049,1526749,1606984253904866514,imu_link,-0.0005511573399417102,-0.0009609665721654892,0.25094839930534363,-0.9679998159408569,0.0,0.0,0.0,0.0,0.0,0.0,0.0,0.0,0.0,-29.067262649536133,0.12244432419538498,0.033502887934446335,0.0,0.0,0.0,0.0,0.0,0.0,0.0,0.0,0.0,-0.0035541534889489412,-0.020396413281559944,0.06345625221729279,0.0,0.0,0.0,0.0,0.0,0.0,0.0,0.0,0.0
1606987855564423926,1526750,1606984253904955515,imu_link,-0.0005511573399417102,-0.0009609665721654892,0.25094839930534363,-0.9679998159408569,0.0,0.0,0.0,0.0,0.0,0.0,0.0,0.0,0.0,-29.067262649536133,0.12244432419538498,0.033502887934446335,0.0,0.0,0.0,0.0,0.0,0.0,0.0,0.0,0.0,-0.0035541534889489412,-0.020396413281559944,0.06345625221729279,0.0,0.0,0.0,0.0,0.0,0.0,0.0,0.0,0.0
1606987855567395755,1526751,1606984253905045924,imu_link,-0.0005543964798562229,-0.0009589066612534225,0.25094500184059143,-0.9680007100105286,0.0,0.0,0.0,0.0,0.0,0.0,0.0,0.0,0.0,-29.066858291625977,0.12230885773897171,0.03392185643315315,0.0,0.0,0.0,0.0,0.0,0.0,0.0,0.0,0.0,0.00614283699542284,-0.0001412370038451627,0.03642743080854416,0.0,0.0,0.0,0.0,0.0,0.0,0.0,0.0,0.0
1606987855567417663,1526752,1606984253905129392,imu_link,-0.0005543964798562229,-0.0009589066612534225,0.25094500184059143,-0.9680007100105286,0.0,0.0,0.0,0.0,0.0,0.0,0.0,0.0,0.0,-29.066858291625977,0.12230885773897171,0.03392185643315315,0.0,0.0,0.0,0.0,0.0,0.0,0.0,0.0,0.0,0.00614283699542284,-0.0001412370038451627,0.03642743080854416,0.0,0.0,0.0,0.0,0.0,0.0,0.0,0.0,0.0
1606987855567440375,1526753,1606984253905222317,imu_link,-0.0005545709864236414,-0.0009579582838341594,0.2509458065032959,-0.9680005311965942,0.0,0.0,0.0,0.0,0.0,0.0,0.0,0.0,0.0,-29.066953659057617,0.12220871448516846,0.03396838158369064,0.0,0.0,0.0,0.0,0.0,0.0,0.0,0.0,0.0,-0.00045205323840491474,-0.003949944395571947,0.017696848139166832,0.0,0.0,0.0,0.0,0.0,0.0,0.0,0.0,0.0
1606987855567450619,1526754,1606984253917966446,imu_link,-0.0005545709864236414,-0.0009579582838341594,0.2509458065032959,-0.9680005311965942,0.0,0.0,0.0,0.0,0.0,0.0,0.0,0.0,0.0,-29.066953659057617,0.12220871448516846,0.03396838158369064,0.0,0.0,0.0,0.0,0.0,0.0,0.0,0.0,0.0,-0.00045205323840491474,-0.003949944395571947,0.017696848139166832,0.0,0.0,0.0,0.0,0.0,0.0,0.0,0.0,0.0
1606987855567461617,1526755,1606984253918083151,imu_link,-0.0005539116682484746,-0.0009561906917952001,0.25095030665397644,-0.9679993987083435,0.0,0.0,0.0,0.0,0.0,0.0,0.0,0.0,0.0,-29.06748390197754,0.12199383974075317,0.03394550830125809,0.0,0.0,0.0,0.0,0.0,0.0,0.0,0.0,0.0,-0.020336739718914032,-0.005895734298974276,0.026537256315350533,0.0,0.0,0.0,0.0,0.0,0.0,0.0,0.0,0.0
1606987855581406482,1526756,1606984253918166985,imu_link,-0.0005539116682484746,-0.0009561906917952001,0.25095030665397644,-0.9679993987083435,0.0,0.0,0.0,0.0,0.0,0.0,0.0,0.0,0.0,-29.06748390197754,0.12199383974075317,0.03394550830125809,0.0,0.0,0.0,0.0,0.0,0.0,0.0,0.0,0.0,-0.020336739718914032,-0.005895734298974276,0.026537256315350533,0.0,0.0,0.0,0.0,0.0,0.0,0.0,0.0,0.0
1606987855581473626,1526757,1606984253918271372,imu_link,-0.0005528746405616403,-0.0009577727178111672,0.25094935297966003,-0.9679996371269226,0.0,0.0,0.0,0.0,0.0,0.0,0.0,0.0,0.0,-29.067371368408203,0.12213946133852005,0.03378510847687721,0.0,0.0,0.0,0.0,0.0,0.0,0.0,0.0,0.0,-0.019989825785160065,-0.0005631315289065242,0.05548268184065819,0.0,0.0,0.0,0.0,0.0,0.0,0.0,0.0,0.0
1606987855581486161,1526758,1606984253918363981,imu_link,-0.0005528746405616403,-0.0009577727178111672,0.25094935297966003,-0.9679996371269226,0.0,0.0,0.0,0.0,0.0,0.0,0.0,0.0,0.0,-29.067371368408203,0.12213946133852005,0.03378510847687721,0.0,0.0,0.0,0.0,0.0,0.0,0.0,0.0,0.0,-0.019989825785160065,-0.0005631315289065242,0.05548268184065819,0.0,0.0,0.0,0.0,0.0,0.0,0.0,0.0,0.0
1606987855581503939,1526759,1606984253918454641,imu_link,-0.0005524627631530166,-0.0009527526563033462,0.2509543001651764,-0.9679982662200928,0.0,0.0,0.0,0.0,0.0,0.0,0.0,0.0,0.0,-29.067962646484375,0.12157094478607178,0.03388315439224243,0.0,0.0,0.0,0.0,0.0,0.0,0.0,0.0,0.0,-0.006332518998533487,0.012525977566838264,0.05965355783700943,0.0,0.0,0.0,0.0,0.0,0.0,0.0,0.0,0.0
1606987855588383523,1526760,1606984253918558226,imu_link,-0.0005524627631530166,-0.0009527526563033462,0.2509543001651764,-0.9679982662200928,0.0,0.0,0.0,0.0,0.0,0.0,0.0,0.0,0.0,-29.067962646484375,0.12157094478607178,0.03388315439224243,0.0,0.0,0.0,0.0,0.0,0.0,0.0,0.0,0.0,-0.006332518998533487,0.012525977566838264,0.05965355783700943,0.0,0.0,0.0,0.0,0.0,0.0,0.0,0.0,0.0
1606987855588425828,1526761,1606984253918642516,imu_link,-0.0005532995564863086,-0.0009512558463029563,0.2509547472000122,-0.9679982662200928,0.0,0.0,0.0,0.0,0.0,0.0,0.0,0.0,0.0,-29.068010330200195,0.12142900377511978,0.03401896357536316,0.0,0.0,0.0,0.0,0.0,0.0,0.0,0.0,0.0,0.0028712546918541193,0.0021014842204749584,0.050860606133937836,0.0,0.0,0.0,0.0,0.0,0.0,0.0,0.0,0.0
1606987855588446213,1526762,1606984253918722310,imu_link,-0.0005532995564863086,-0.0009512558463029563,0.2509547472000122,-0.9679982662200928,0.0,0.0,0.0,0.0,0.0,0.0,0.0,0.0,0.0,-29.068010330200195,0.12142900377511978,0.03401896357536316,0.0,0.0,0.0,0.0,0.0,0.0,0.0,0.0,0.0,0.0028712546918541193,0.0021014842204749584,0.050860606133937836,0.0,0.0,0.0,0.0,0.0,0.0,0.0,0.0,0.0
1606987855588464522,1526763,1606984253918819044,imu_link,-0.0005520013510249555,-0.0009523672633804381,0.25095170736312866,-0.9679989814758301,0.0,0.0,0.0,0.0,0.0,0.0,0.0,0.0,0.0,-29.06765365600586,0.12151483446359634,0.033843379467725754,0.0,0.0,0.0,0.0,0.0,0.0,0.0,0.0,0.0,-0.005087671335786581,-0.008349534124135971,0.04238029941916466,0.0,0.0,0.0,0.0,0.0,0.0,0.0,0.0,0.0
1606987855588489159,1526764,1606984253918897471,imu_link,-0.0005520013510249555,-0.0009523672633804381,0.25095170736312866,-0.9679989814758301,0.0,0.0,0.0,0.0,0.0,0.0,0.0,0.0,0.0,-29.06765365600586,0.12151483446359634,0.033843379467725754,0.0,0.0,0.0,0.0,0.0,0.0,0.0,0.0,0.0,-0.005087671335786581,-0.008349534124135971,0.04238029941916466,0.0,0.0,0.0,0.0,0.0,0.0,0.0,0.0,0.0
1606987855659670725,1526765,1606984253931401609,imu_link,-0.0005514372605830431,-0.0009530280949547887,0.25095129013061523,-0.9679991006851196,0.0,0.0,0.0,0.0,0.0,0.0,0.0,0.0,0.0,-29.067604064941406,0.12157190591096878,0.03376185894012451,0.0,0.0,0.0,0.0,0.0,0.0,0.0,0.0,0.0,-0.006244340445846319,0.010230330750346184,0.0474948026239872,0.0,0.0,0.0,0.0,0.0,0.0,0.0,0.0,0.0
1606987855659708754,1526766,1606984253931523561,imu_link,-0.0005514372605830431,-0.0009530280949547887,0.25095129013061523,-0.9679991006851196,0.0,0.0,0.0,0.0,0.0,0.0,0.0,0.0,0.0,-29.067604064941406,0.12157190591096878,0.03376185894012451,0.0,0.0,0.0,0.0,0.0,0.0,0.0,0.0,0.0,-0.006244340445846319,0.010230330750346184,0.0474948026239872,0.0,0.0,0.0,0.0,0.0,0.0,0.0,0.0,0.0
1606987855659723250,1526767,1606984253931611605,imu_link,-0.0005483097047545016,-0.0009526362409815192,0.2509513795375824,-0.9679991006851196,0.0,0.0,0.0,0.0,0.0,0.0,0.0,0.0,0.0,-29.06761360168457,0.12143850326538086,0.0334261916577816,0.0,0.0,0.0,0.0,0.0,0.0,0.0,0.0,0.0,-0.012675303965806961,0.007168368902057409,0.05163343623280525,0.0,0.0,0.0,0.0,0.0,0.0,0.0,0.0,0.0
1606987855659730359,1526768,1606984253931708855,imu_link,-0.0005483097047545016,-0.0009526362409815192,0.2509513795375824,-0.9679991006851196,0.0,0.0,0.0,0.0,0.0,0.0,0.0,0.0,0.0,-29.06761360168457,0.12143850326538086,0.0334261916577816,0.0,0.0,0.0,0.0,0.0,0.0,0.0,0.0,0.0,-0.012675303965806961,0.007168368902057409,0.05163343623280525,0.0,0.0,0.0,0.0,0.0,0.0,0.0,0.0,0.0
1606987855692094113,1526769,1606984253931790098,imu_link,-0.0005489171599037945,-0.000954774091951549,0.2509511113166809,-0.9679991602897644,0.0,0.0,0.0,0.0,0.0,0.0,0.0,0.0,0.0,-29.067583084106445,0.12169309705495834,0.03343213349580765,0.0,0.0,0.0,0.0,0.0,0.0,0.0,0.0,0.0,-0.01282103918492794,-0.001913948100991547,0.058078546077013016,0.0,0.0,0.0,0.0,0.0,0.0,0.0,0.0,0.0
1606987855692123884,1526770,1606984253931881495,imu_link,-0.0005489171599037945,-0.000954774091951549,0.2509511113166809,-0.9679991602897644,0.0,0.0,0.0,0.0,0.0,0.0,0.0,0.0,0.0,-29.067583084106445,0.12169309705495834,0.03343213349580765,0.0,0.0,0.0,0.0,0.0,0.0,0.0,0.0,0.0,-0.01282103918492794,-0.001913948100991547,0.058078546077013016,0.0,0.0,0.0,0.0,0.0,0.0,0.0,0.0,0.0
1606987855692142164,1526771,1606984253931979572,imu_link,-0.0005485903238877654,-0.0009526670910418034,0.25095438957214355,-0.9679983258247375,0.0,0.0,0.0,0.0,0.0,0.0,0.0,0.0,0.0,-29.067968368530273,0.12145009636878967,0.03345605731010437,0.0,0.0,0.0,0.0,0.0,0.0,0.0,0.0,0.0,0.0036128475330770016,0.0046752821654081345,0.06869826465845108,0.0,0.0,0.0,0.0,0.0,0.0,0.0,0.0,0.0
1606987855692161644,1526772,1606984253932062483,imu_link,-0.0005485903238877654,-0.0009526670910418034,0.25095438957214355,-0.9679983258247375,0.0,0.0,0.0,0.0,0.0,0.0,0.0,0.0,0.0,-29.067968368530273,0.12145009636878967,0.03345605731010437,0.0,0.0,0.0,0.0,0.0,0.0,0.0,0.0,0.0,0.0036128475330770016,0.0046752821654081345,0.06869826465845108,0.0,0.0,0.0,0.0,0.0,0.0,0.0,0.0,0.0
1606987855692186158,1526773,1606984253932141015,imu_link,-0.0005485903238877654,-0.0009526670910418034,0.25095438957214355,-0.9679983258247375,0.0,0.0,0.0,0.0,0.0,0.0,0.0,0.0,0.0,-29.067968368530273,0.12145009636878967,0.03345605731010437,0.0,0.0,0.0,0.0,0.0,0.0,0.0,0.0,0.0,0.023132435977458954,0.0007253216463141143,0.057579156011343,0.0,0.0,0.0,0.0,0.0,0.0,0.0,0.0,0.0
1606987855702272182,1526774,1606984253932239268,imu_link,-0.0005485903238877654,-0.0009526670910418034,0.25095438957214355,-0.9679983258247375,0.0,0.0,0.0,0.0,0.0,0.0,0.0,0.0,0.0,-29.067968368530273,0.12145009636878967,0.03345605731010437,0.0,0.0,0.0,0.0,0.0,0.0,0.0,0.0,0.0,0.023132435977458954,0.0007253216463141143,0.057579156011343,0.0,0.0,0.0,0.0,0.0,0.0,0.0,0.0,0.0
1606987855702320003,1526775,1606984253932320370,imu_link,-0.0005510856863111258,-0.0009559557074680924,0.2509564459323883,-0.9679977893829346,0.0,0.0,0.0,0.0,0.0,0.0,0.0,0.0,0.0,-29.068214416503906,0.1218867227435112,0.03363802656531334,0.0,0.0,0.0,0.0,0.0,0.0,0.0,0.0,0.0,0.018155895173549652,0.0014628310455009341,0.046568602323532104,0.0,0.0,0.0,0.0,0.0,0.0,0.0,0.0,0.0
1606987855702339044,1526776,1606984253945309331,imu_link,-0.0005510856863111258,-0.0009559557074680924,0.2509564459323883,-0.9679977893829346,0.0,0.0,0.0,0.0,0.0,0.0,0.0,0.0,0.0,-29.068214416503906,0.1218867227435112,0.03363802656531334,0.0,0.0,0.0,0.0,0.0,0.0,0.0,0.0,0.0,0.018155895173549652,0.0014628310455009341,0.046568602323532104,0.0,0.0,0.0,0.0,0.0,0.0,0.0,0.0,0.0
1606987855702375102,1526777,1606984253945437733,imu_link,-0.0005503955762833357,-0.0009551425464451313,0.2509555220603943,-0.9679980278015137,0.0,0.0,0.0,0.0,0.0,0.0,0.0,0.0,0.0,-29.068105697631836,0.12177663296461105,0.033584970980882645,0.0,0.0,0.0,0.0,0.0,0.0,0.0,0.0,0.0,-0.004547541961073875,0.011621086858212948,0.04520973190665245,0.0,0.0,0.0,0.0,0.0,0.0,0.0,0.0,0.0
1606987855709265066,1526778,1606984253945525250,imu_link,-0.0005503955762833357,-0.0009551425464451313,0.2509555220603943,-0.9679980278015137,0.0,0.0,0.0,0.0,0.0,0.0,0.0,0.0,0.0,-29.068105697631836,0.12177663296461105,0.033584970980882645,0.0,0.0,0.0,0.0,0.0,0.0,0.0,0.0,0.0,-0.004547541961073875,0.011621086858212948,0.04520973190665245,0.0,0.0,0.0,0.0,0.0,0.0,0.0,0.0,0.0
1606987855709295346,1526779,1606984253945606849,imu_link,-0.000548895972315222,-0.0009562076884321868,0.250951886177063,-0.9679989814758301,0.0,0.0,0.0,0.0,0.0,0.0,0.0,0.0,0.0,-29.067670822143555,0.12185154110193253,0.03338845819234848,0.0,0.0,0.0,0.0,0.0,0.0,0.0,0.0,0.0,-0.012794466689229012,0.015199696645140648,0.03712967038154602,0.0,0.0,0.0,0.0,0.0,0.0,0.0,0.0,0.0
1606987855709310133,1526780,1606984253945688924,imu_link,-0.000548895972315222,-0.0009562076884321868,0.250951886177063,-0.9679989814758301,0.0,0.0,0.0,0.0,0.0,0.0,0.0,0.0,0.0,-29.067670822143555,0.12185154110193253,0.03338845819234848,0.0,0.0,0.0,0.0,0.0,0.0,0.0,0.0,0.0,-0.012794466689229012,0.015199696645140648,0.03712967038154602,0.0,0.0,0.0,0.0,0.0,0.0,0.0,0.0,0.0
1606987855709345671,1526781,1606984253945771149,imu_link,-0.000547126866877079,-0.0009549640817567706,0.2509530484676361,-0.9679986834526062,0.0,0.0,0.0,0.0,0.0,0.0,0.0,0.0,0.0,-29.067811965942383,0.12166276574134827,0.0332278348505497,0.0,0.0,0.0,0.0,0.0,0.0,0.0,0.0,0.0,-0.009253859519958496,0.014061596244573593,0.03323071822524071,0.0,0.0,0.0,0.0,0.0,0.0,0.0,0.0,0.0
1606987855709462937,1526782,1606984253945913138,imu_link,-0.000547126866877079,-0.0009549640817567706,0.2509530484676361,-0.9679986834526062,0.0,0.0,0.0,0.0,0.0,0.0,0.0,0.0,0.0,-29.067811965942383,0.12166276574134827,0.0332278348505497,0.0,0.0,0.0,0.0,0.0,0.0,0.0,0.0,0.0,-0.009253859519958496,0.014061596244573593,0.03323071822524071,0.0,0.0,0.0,0.0,0.0,0.0,0.0,0.0,0.0
1606987855785932942,1526783,1606984253945998380,imu_link,-0.0005425967974588275,-0.0009534115670248866,0.2509496808052063,-0.9679995775222778,0.0,0.0,0.0,0.0,0.0,0.0,0.0,0.0,0.0,-29.067411422729492,0.1213601678609848,0.03277040645480156,0.0,0.0,0.0,0.0,0.0,0.0,0.0,0.0,0.0,0.0052995881997048855,0.007336254697293043,0.051586635410785675,0.0,0.0,0.0,0.0,0.0,0.0,0.0,0.0,0.0
1606987855785946932,1526784,1606984253946096076,imu_link,-0.0005425967974588275,-0.0009534115670248866,0.2509496808052063,-0.9679995775222778,0.0,0.0,0.0,0.0,0.0,0.0,0.0,0.0,0.0,-29.067411422729492,0.1213601678609848,0.03277040645480156,0.0,0.0,0.0,0.0,0.0,0.0,0.0,0.0,0.0,0.0052995881997048855,0.007336254697293043,0.051586635410785675,0.0,0.0,0.0,0.0,0.0,0.0,0.0,0.0,0.0
1606987855785960968,1526785,1606984253946175089,imu_link,-0.0005430742749013007,-0.0009541394538246095,0.250948041677475,-0.9679999947547913,0.0,0.0,0.0,0.0,0.0,0.0,0.0,0.0,0.0,-29.067216873168945,0.12145457416772842,0.03280264511704445,0.0,0.0,0.0,0.0,0.0,0.0,0.0,0.0,0.0,0.0168171264231205,-0.008488116785883904,0.05402147397398949,0.0,0.0,0.0,0.0,0.0,0.0,0.0,0.0,0.0
1606987855785970248,1526786,1606984253946302299,imu_link,-0.0005430742749013007,-0.0009541394538246095,0.250948041677475,-0.9679999947547913,0.0,0.0,0.0,0.0,0.0,0.0,0.0,0.0,0.0,-29.067216873168945,0.12145457416772842,0.03280264511704445,0.0,0.0,0.0,0.0,0.0,0.0,0.0,0.0,0.0,0.0168171264231205,-0.008488116785883904,0.05402147397398949,0.0,0.0,0.0,0.0,0.0,0.0,0.0,0.0,0.0
1606987855790507992,1526787,1606984253958772393,imu_link,-0.0005464830319397151,-0.0009555175201967359,0.2509464621543884,-0.9680003523826599,0.0,0.0,0.0,0.0,0.0,0.0,0.0,0.0,0.0,-29.067035675048828,0.12170539796352386,0.03314133360981941,0.0,0.0,0.0,0.0,0.0,0.0,0.0,0.0,0.0,0.013428207486867905,-0.0031589511781930923,0.03829948604106903,0.0,0.0,0.0,0.0,0.0,0.0,0.0,0.0,0.0
1606987855790528881,1526788,1606984253958901958,imu_link,-0.0005464830319397151,-0.0009555175201967359,0.2509464621543884,-0.9680003523826599,0.0,0.0,0.0,0.0,0.0,0.0,0.0,0.0,0.0,-29.067035675048828,0.12170539796352386,0.03314133360981941,0.0,0.0,0.0,0.0,0.0,0.0,0.0,0.0,0.0,0.013428207486867905,-0.0031589511781930923,0.03829948604106903,0.0,0.0,0.0,0.0,0.0,0.0,0.0,0.0,0.0
1606987855790539099,1526789,1606984253959028461,imu_link,-0.0005449075251817703,-0.0009567823726683855,0.2509445548057556,-0.9680008292198181,0.0,0.0,0.0,0.0,0.0,0.0,0.0,0.0,0.0,-29.06680679321289,0.12180034071207047,0.032930437475442886,0.0,0.0,0.0,0.0,0.0,0.0,0.0,0.0,0.0,0.007257142569869757,0.007004203740507364,0.040601782500743866,0.0,0.0,0.0,0.0,0.0,0.0,0.0,0.0,0.0
1606987855790548517,1526790,1606984253959107541,imu_link,-0.0005449075251817703,-0.0009567823726683855,0.2509445548057556,-0.9680008292198181,0.0,0.0,0.0,0.0,0.0,0.0,0.0,0.0,0.0,-29.06680679321289,0.12180034071207047,0.032930437475442886,0.0,0.0,0.0,0.0,0.0,0.0,0.0,0.0,0.0,0.007257142569869757,0.007004203740507364,0.040601782500743866,0.0,0.0,0.0,0.0,0.0,0.0,0.0,0.0,0.0
1606987855790554795,1526791,1606984253959182346,imu_link,-0.0005453556077554822,-0.0009585743537172675,0.2509411573410034,-0.9680017232894897,0.0,0.0,0.0,0.0,0.0,0.0,0.0,0.0,0.0,-29.066404342651367,0.12201189249753952,0.032929036766290665,0.0,0.0,0.0,0.0,0.0,0.0,0.0,0.0,0.0,-0.01048800628632307,-0.00012563237396534532,0.06291467696428299,0.0,0.0,0.0,0.0,0.0,0.0,0.0,0.0,0.0
1606987855801983393,1526792,1606984253959270269,imu_link,-0.0005453556077554822,-0.0009585743537172675,0.2509411573410034,-0.9680017232894897,0.0,0.0,0.0,0.0,0.0,0.0,0.0,0.0,0.0,-29.066404342651367,0.12201189249753952,0.032929036766290665,0.0,0.0,0.0,0.0,0.0,0.0,0.0,0.0,0.0,-0.01048800628632307,-0.00012563237396534532,0.06291467696428299,0.0,0.0,0.0,0.0,0.0,0.0,0.0,0.0,0.0
1606987855801997735,1526793,1606984253959352160,imu_link,-0.0005461873370222747,-0.0009605527156963944,0.25093910098075867,-0.9680022597312927,0.0,0.0,0.0,0.0,0.0,0.0,0.0,0.0,0.0,-29.066162109375,0.12225517630577087,0.03296466916799545,0.0,0.0,0.0,0.0,0.0,0.0,0.0,0.0,0.0,-0.01580137573182583,-0.004657569341361523,0.04777868092060089,0.0,0.0,0.0,0.0,0.0,0.0,0.0,0.0,0.0
1606987855802003065,1526794,1606984253959428230,imu_link,-0.0005461873370222747,-0.0009605527156963944,0.25093910098075867,-0.9680022597312927,0.0,0.0,0.0,0.0,0.0,0.0,0.0,0.0,0.0,-29.066162109375,0.12225517630577087,0.03296466916799545,0.0,0.0,0.0,0.0,0.0,0.0,0.0,0.0,0.0,-0.01580137573182583,-0.004657569341361523,0.04777868092060089,0.0,0.0,0.0,0.0,0.0,0.0,0.0,0.0,0.0
1606987855802007135,1526795,1606984253959510665,imu_link,-0.0005470519536174834,-0.0009611528948880732,0.25093746185302734,-0.9680026769638062,0.0,0.0,0.0,0.0,0.0,0.0,0.0,0.0,0.0,-29.065967559814453,0.12234655767679214,0.033043522387742996,0.0,0.0,0.0,0.0,0.0,0.0,0.0,0.0,0.0,0.006001128349453211,-0.0024949107319116592,0.030579591169953346,0.0,0.0,0.0,0.0,0.0,0.0,0.0,0.0,0.0
1606987855807098993,1526796,1606984253959586468,imu_link,-0.0005470519536174834,-0.0009611528948880732,0.25093746185302734,-0.9680026769638062,0.0,0.0,0.0,0.0,0.0,0.0,0.0,0.0,0.0,-29.065967559814453,0.12234655767679214,0.033043522387742996,0.0,0.0,0.0,0.0,0.0,0.0,0.0,0.0,0.0,0.006001128349453211,-0.0024949107319116592,0.030579591169953346,0.0,0.0,0.0,0.0,0.0,0.0,0.0,0.0,0.0
1606987855807113090,1526797,1606984253959661931,imu_link,-0.0005477247759699821,-0.0009633332956582308,0.25093674659729004,-0.9680028557777405,0.0,0.0,0.0,0.0,0.0,0.0,0.0,0.0,0.0,-29.065885543823242,0.1226077452301979,0.03305554762482643,0.0,0.0,0.0,0.0,0.0,0.0,0.0,0.0,0.0,0.0101848803460598,-0.003506531473249197,0.05844128504395485,0.0,0.0,0.0,0.0,0.0,0.0,0.0,0.0,0.0
1606987855807156377,1526798,1606984253971725641,imu_link,-0.0005477247759699821,-0.0009633332956582308,0.25093674659729004,-0.9680028557777405,0.0,0.0,0.0,0.0,0.0,0.0,0.0,0.0,0.0,-29.065885543823242,0.1226077452301979,0.03305554762482643,0.0,0.0,0.0,0.0,0.0,0.0,0.0,0.0,0.0,0.0101848803460598,-0.003506531473249197,0.05844128504395485,0.0,0.0,0.0,0.0,0.0,0.0,0.0,0.0,0.0
1606987855807174027,1526799,1606984253971868572,imu_link,-0.0005489591276273131,-0.0009639046620577574,0.250937283039093,-0.9680027365684509,0.0,0.0,0.0,0.0,0.0,0.0,0.0,0.0,0.0,-29.065942764282227,0.12270663678646088,0.03317597135901451,0.0,0.0,0.0,0.0,0.0,0.0,0.0,0.0,0.0,0.016494672745466232,-0.004036363214254379,0.06148973107337952,0.0,0.0,0.0,0.0,0.0,0.0,0.0,0.0,0.0
1606987855853637347,1526800,1606984253972029259,imu_link,-0.0005489591276273131,-0.0009639046620577574,0.250937283039093,-0.9680027365684509,0.0,0.0,0.0,0.0,0.0,0.0,0.0,0.0,0.0,-29.065942764282227,0.12270663678646088,0.03317597135901451,0.0,0.0,0.0,0.0,0.0,0.0,0.0,0.0,0.0,0.016494672745466232,-0.004036363214254379,0.06148973107337952,0.0,0.0,0.0,0.0,0.0,0.0,0.0,0.0,0.0
1606987855853661425,1526801,1606984253972121432,imu_link,-0.0005479269893839955,-0.0009656292968429625,0.2509365677833557,-0.9680029153823853,0.0,0.0,0.0,0.0,0.0,0.0,0.0,0.0,0.0,-29.065860748291016,0.12286823987960815,0.03301198035478592,0.0,0.0,0.0,0.0,0.0,0.0,0.0,0.0,0.0,0.017665686085820198,0.006028375122696161,0.03798406943678856,0.0,0.0,0.0,0.0,0.0,0.0,0.0,0.0,0.0
1606987855853674998,1526802,1606984253972210899,imu_link,-0.0005479269893839955,-0.0009656292968429625,0.2509365677833557,-0.9680029153823853,0.0,0.0,0.0,0.0,0.0,0.0,0.0,0.0,0.0,-29.065860748291016,0.12286823987960815,0.03301198035478592,0.0,0.0,0.0,0.0,0.0,0.0,0.0,0.0,0.0,0.017665686085820198,0.006028375122696161,0.03798406943678856,0.0,0.0,0.0,0.0,0.0,0.0,0.0,0.0,0.0
1606987855853684186,1526803,1606984253972312053,imu_link,-0.0005481319385580719,-0.0009676824556663632,0.2509376108646393,-0.9680026173591614,0.0,0.0,0.0,0.0,0.0,0.0,0.0,0.0,0.0,-29.06598472595215,0.12310190498828888,0.03297554329037666,0.0,0.0,0.0,0.0,0.0,0.0,0.0,0.0,0.0,0.008492061868309975,0.007409186568111181,0.04150749742984772,0.0,0.0,0.0,0.0,0.0,0.0,0.0,0.0,0.0
1606987855853692959,1526804,1606984253972394940,imu_link,-0.0005481319385580719,-0.0009676824556663632,0.2509376108646393,-0.9680026173591614,0.0,0.0,0.0,0.0,0.0,0.0,0.0,0.0,0.0,-29.06598472595215,0.12310190498828888,0.03297554329037666,0.0,0.0,0.0,0.0,0.0,0.0,0.0,0.0,0.0,0.008492061868309975,0.007409186568111181,0.04150749742984772,0.0,0.0,0.0,0.0,0.0,0.0,0.0,0.0,0.0
1606987855877112095,1526805,1606984253972474544,imu_link,-0.0005483651184476912,-0.0009641171200200915,0.25093793869018555,-0.9680025577545166,0.0,0.0,0.0,0.0,0.0,0.0,0.0,0.0,0.0,-29.066024780273438,0.12271314859390259,0.03310388699173927,0.0,0.0,0.0,0.0,0.0,0.0,0.0,0.0,0.0,-0.012692243792116642,0.014842178672552109,0.03680286556482315,0.0,0.0,0.0,0.0,0.0,0.0,0.0,0.0,0.0
1606987855877131477,1526806,1606984253972553893,imu_link,-0.0005483651184476912,-0.0009641171200200915,0.25093793869018555,-0.9680025577545166,0.0,0.0,0.0,0.0,0.0,0.0,0.0,0.0,0.0,-29.066024780273438,0.12271314859390259,0.03310388699173927,0.0,0.0,0.0,0.0,0.0,0.0,0.0,0.0,0.0,-0.012692243792116642,0.014842178672552109,0.03680286556482315,0.0,0.0,0.0,0.0,0.0,0.0,0.0,0.0,0.0
1606987855877138074,1526807,1606984253972645590,imu_link,-0.0005441827815957367,-0.0009618686162866652,0.250937819480896,-0.9680026173591614,0.0,0.0,0.0,0.0,0.0,0.0,0.0,0.0,0.0,-29.066011428833008,0.12234346568584442,0.032704636454582214,0.0,0.0,0.0,0.0,0.0,0.0,0.0,0.0,0.0,-0.026653798297047615,0.021967284381389618,0.019703127443790436,0.0,0.0,0.0,0.0,0.0,0.0,0.0,0.0,0.0
1606987855877143270,1526808,1606984253985555467,imu_link,-0.0005441827815957367,-0.0009618686162866652,0.250937819480896,-0.9680026173591614,0.0,0.0,0.0,0.0,0.0,0.0,0.0,0.0,0.0,-29.066011428833008,0.12234346568584442,0.032704636454582214,0.0,0.0,0.0,0.0,0.0,0.0,0.0,0.0,0.0,-0.026653798297047615,0.021967284381389618,0.019703127443790436,0.0,0.0,0.0,0.0,0.0,0.0,0.0,0.0,0.0
1606987855884599473,1526809,1606984253985708441,imu_link,-0.0005450468743219972,-0.000959724304266274,0.25093573331832886,-0.9680030941963196,0.0,0.0,0.0,0.0,0.0,0.0,0.0,0.0,0.0,-29.065763473510742,0.1221303790807724,0.032862402498722076,0.0,0.0,0.0,0.0,0.0,0.0,0.0,0.0,0.0,-0.0074064405634999275,0.00015128996165003628,0.014895813539624214,0.0,0.0,0.0,0.0,0.0,0.0,0.0,0.0,0.0
1606987855884636930,1526810,1606984253985856238,imu_link,-0.0005450468743219972,-0.000959724304266274,0.25093573331832886,-0.9680030941963196,0.0,0.0,0.0,0.0,0.0,0.0,0.0,0.0,0.0,-29.065763473510742,0.1221303790807724,0.032862402498722076,0.0,0.0,0.0,0.0,0.0,0.0,0.0,0.0,0.0,-0.0074064405634999275,0.00015128996165003628,0.014895813539624214,0.0,0.0,0.0,0.0,0.0,0.0,0.0,0.0,0.0
1606987855884652060,1526811,1606984253985955328,imu_link,-0.0005434551858343184,-0.0009572110720910132,0.25093868374824524,-0.9680023789405823,0.0,0.0,0.0,0.0,0.0,0.0,0.0,0.0,0.0,-29.066110610961914,0.12180592864751816,0.03275774419307709,0.0,0.0,0.0,0.0,0.0,0.0,0.0,0.0,0.0,0.0022924249060451984,-0.008958576247096062,0.021227393299341202,0.0,0.0,0.0,0.0,0.0,0.0,0.0,0.0,0.0
1606987855884668548,1526812,1606984253986050854,imu_link,-0.0005434551858343184,-0.0009572110720910132,0.25093868374824524,-0.9680023789405823,0.0,0.0,0.0,0.0,0.0,0.0,0.0,0.0,0.0,-29.066110610961914,0.12180592864751816,0.03275774419307709,0.0,0.0,0.0,0.0,0.0,0.0,0.0,0.0,0.0,0.0022924249060451984,-0.008958576247096062,0.021227393299341202,0.0,0.0,0.0,0.0,0.0,0.0,0.0,0.0,0.0
1606987855884688037,1526813,1606984253986132473,imu_link,-0.0005430183955468237,-0.0009549834067001939,0.25094062089920044,-0.9680019021034241,0.0,0.0,0.0,0.0,0.0,0.0,0.0,0.0,0.0,-29.06633949279785,0.12154634296894073,0.032773107290267944,0.0,0.0,0.0,0.0,0.0,0.0,0.0,0.0,0.0,-0.0043551865965127945,0.005346105434000492,0.0320856012403965,0.0,0.0,0.0,0.0,0.0,0.0,0.0,0.0,0.0
1606987855890704413,1526814,1606984253986225673,imu_link,-0.0005430183955468237,-0.0009549834067001939,0.25094062089920044,-0.9680019021034241,0.0,0.0,0.0,0.0,0.0,0.0,0.0,0.0,0.0,-29.06633949279785,0.12154634296894073,0.032773107290267944,0.0,0.0,0.0,0.0,0.0,0.0,0.0,0.0,0.0,-0.0043551865965127945,0.005346105434000492,0.0320856012403965,0.0,0.0,0.0,0.0,0.0,0.0,0.0,0.0,0.0
1606987855890729694,1526815,1606984253986314514,imu_link,-0.000542386551387608,-0.0009547274094074965,0.25094375014305115,-0.9680010676383972,0.0,0.0,0.0,0.0,0.0,0.0,0.0,0.0,0.0,-29.06671142578125,0.12149988114833832,0.032709989696741104,0.0,0.0,0.0,0.0,0.0,0.0,0.0,0.0,0.0,-0.00792592391371727,0.0070726159028708935,0.05829552933573723,0.0,0.0,0.0,0.0,0.0,0.0,0.0,0.0,0.0
1606987855890738888,1526816,1606984253986445327,imu_link,-0.000542386551387608,-0.0009547274094074965,0.25094375014305115,-0.9680010676383972,0.0,0.0,0.0,0.0,0.0,0.0,0.0,0.0,0.0,-29.06671142578125,0.12149988114833832,0.032709989696741104,0.0,0.0,0.0,0.0,0.0,0.0,0.0,0.0,0.0,-0.00792592391371727,0.0070726159028708935,0.05829552933573723,0.0,0.0,0.0,0.0,0.0,0.0,0.0,0.0,0.0
1606987855890758730,1526817,1606984253986530414,imu_link,-0.0005419705412350595,-0.0009554598946124315,0.2509419023990631,-0.9680015444755554,0.0,0.0,0.0,0.0,0.0,0.0,0.0,0.0,0.0,-29.06649398803711,0.12156910449266434,0.03264301270246506,0.0,0.0,0.0,0.0,0.0,0.0,0.0,0.0,0.0,-0.02273877151310444,-0.003406262258067727,0.06724606454372406,0.0,0.0,0.0,0.0,0.0,0.0,0.0,0.0,0.0
1606987855960469450,1526818,1606984253986602891,imu_link,-0.0005419705412350595,-0.0009554598946124315,0.2509419023990631,-0.9680015444755554,0.0,0.0,0.0,0.0,0.0,0.0,0.0,0.0,0.0,-29.06649398803711,0.12156910449266434,0.03264301270246506,0.0,0.0,0.0,0.0,0.0,0.0,0.0,0.0,0.0,-0.02273877151310444,-0.003406262258067727,0.06724606454372406,0.0,0.0,0.0,0.0,0.0,0.0,0.0,0.0,0.0
1606987855960492187,1526819,1606984253998969897,imu_link,-0.0005408300785347819,-0.0009518892620690167,0.2509412467479706,-0.9680017232894897,0.0,0.0,0.0,0.0,0.0,0.0,0.0,0.0,0.0,-29.06641387939453,0.12114021182060242,0.03261926770210266,0.0,0.0,0.0,0.0,0.0,0.0,0.0,0.0,0.0,-0.0276643093675375,-0.007586102467030287,0.04824382811784744,0.0,0.0,0.0,0.0,0.0,0.0,0.0,0.0,0.0
1606987855960508708,1526820,1606984253999099623,imu_link,-0.0005408300785347819,-0.0009518892620690167,0.2509412467479706,-0.9680017232894897,0.0,0.0,0.0,0.0,0.0,0.0,0.0,0.0,0.0,-29.06641387939453,0.12114021182060242,0.03261926770210266,0.0,0.0,0.0,0.0,0.0,0.0,0.0,0.0,0.0,-0.0276643093675375,-0.007586102467030287,0.04824382811784744,0.0,0.0,0.0,0.0,0.0,0.0,0.0,0.0,0.0
1606987855960523905,1526821,1606984253999202512,imu_link,-0.000542957684956491,-0.0009524559136480093,0.2509414851665497,-0.968001663684845,0.0,0.0,0.0,0.0,0.0,0.0,0.0,0.0,0.0,-29.066442489624023,0.12126424908638,0.03283894434571266,0.0,0.0,0.0,0.0,0.0,0.0,0.0,0.0,0.0,-0.0017609394853934646,-0.015917761251330376,0.03356623277068138,0.0,0.0,0.0,0.0,0.0,0.0,0.0,0.0,0.0
1606987855960538081,1526822,1606984253999271009,imu_link,-0.000542957684956491,-0.0009524559136480093,0.2509414851665497,-0.968001663684845,0.0,0.0,0.0,0.0,0.0,0.0,0.0,0.0,0.0,-29.066442489624023,0.12126424908638,0.03283894434571266,0.0,0.0,0.0,0.0,0.0,0.0,0.0,0.0,0.0,-0.0017609394853934646,-0.015917761251330376,0.03356623277068138,0.0,0.0,0.0,0.0,0.0,0.0,0.0,0.0,0.0
1606987855969086842,1526823,1606984253999335650,imu_link,-0.0005436950013972819,-0.0009522039908915758,0.25094106793403625,-0.9680017828941345,0.0,0.0,0.0,0.0,0.0,0.0,0.0,0.0,0.0,-29.066390991210938,0.12125749886035919,0.03292802721261978,0.0,0.0,0.0,0.0,0.0,0.0,0.0,0.0,0.0,0.001474631018936634,-0.022541960701346397,0.028551988303661346,0.0,0.0,0.0,0.0,0.0,0.0,0.0,0.0,0.0
