%time,field.header.seq,field.header.stamp,field.header.frame_id,field.orientation.x,field.orientation.y,field.orientation.z,field.orientation.w,field.orientation_covariance0,field.orientation_covariance1,field.orientation_covariance2,field.orientation_covariance3,field.orientation_covariance4,field.orientation_covariance5,field.orientation_covariance6,field.orientation_covariance7,field.orientation_covariance8,field.angular_velocity.x,field.angular_velocity.y,field.angular_velocity.z,field.angular_velocity_covariance0,field.angular_velocity_covariance1,field.angular_velocity_covariance2,field.angular_velocity_covariance3,field.angular_velocity_covariance4,field.angular_velocity_covariance5,field.angular_velocity_covariance6,field.angular_velocity_covariance7,field.angular_velocity_covariance8,field.linear_acceleration.x,field.linear_acceleration.y,field.linear_acceleration.z,field.linear_acceleration_covariance0,field.linear_acceleration_covariance1,field.linear_acceleration_covariance2,field.linear_acceleration_covariance3,field.linear_acceleration_covariance4,field.linear_acceleration_covariance5,field.linear_acceleration_covariance6,field.linear_acceleration_covariance7,field.linear_acceleration_covariance8
1606987739901802802,1435021,1606984139249968899,imu_link,0.0024412849452346563,0.0008502064156346023,0.1935141235589981,-0.9810941219329834,0.0,0.0,0.0,0.0,0.0,0.0,0.0,0.0,0.0,-22.315610885620117,-0.14972041547298431,-0.2556099593639374,0.0,0.0,0.0,0.0,0.0,0.0,0.0,0.0,0.0,0.0007121794624254107,0.015021531842648983,0.06234855577349663,0.0,0.0,0.0,0.0,0.0,0.0,0.0,0.0,0.0
1606987739901826993,1435022,1606984139250104568,imu_link,0.0024412849452346563,0.0008502064156346023,0.1935141235589981,-0.9810941219329834,0.0,0.0,0.0,0.0,0.0,0.0,0.0,0.0,0.0,-22.315610885620117,-0.14972041547298431,-0.2556099593639374,0.0,0.0,0.0,0.0,0.0,0.0,0.0,0.0,0.0,0.0007121794624254107,0.015021531842648983,0.06234855577349663,0.0,0.0,0.0,0.0,0.0,0.0,0.0,0.0,0.0
1606987739901833967,1435023,1606984139250252060,imu_link,0.002444925718009472,0.0008494681096635759,0.19351565837860107,-0.9810937643051147,0.0,0.0,0.0,0.0,0.0,0.0,0.0,0.0,0.0,-22.3157901763916,-0.1497185379266739,-0.2560354769229889,0.0,0.0,0.0,0.0,0.0,0.0,0.0,0.0,0.0,0.0023361763451248407,0.024753883481025696,0.031281497329473495,0.0,0.0,0.0,0.0,0.0,0.0,0.0,0.0,0.0
1606987739901840181,1435024,1606984139250351525,imu_link,0.002444925718009472,0.0008494681096635759,0.19351565837860107,-0.9810937643051147,0.0,0.0,0.0,0.0,0.0,0.0,0.0,0.0,0.0,-22.3157901763916,-0.1497185379266739,-0.2560354769229889,0.0,0.0,0.0,0.0,0.0,0.0,0.0,0.0,0.0,0.0023361763451248407,0.024753883481025696,0.031281497329473495,0.0,0.0,0.0,0.0,0.0,0.0,0.0,0.0,0.0
1606987739910055085,1435025,1606984139250446089,imu_link,0.0024461064022034407,0.0008497870294377208,0.19351467490196228,-0.9810940027236938,0.0,0.0,0.0,0.0,0.0,0.0,0.0,0.0,0.0,-22.315675735473633,-0.14978031814098358,-0.25616130232810974,0.0,0.0,0.0,0.0,0.0,0.0,0.0,0.0,0.0,0.007669516839087009,0.004426707047969103,0.03512690216302872,0.0,0.0,0.0,0.0,0.0,0.0,0.0,0.0,0.0
1606987739910088280,1435026,1606984139250557146,imu_link,0.0024461064022034407,0.0008497870294377208,0.19351467490196228,-0.9810940027236938,0.0,0.0,0.0,0.0,0.0,0.0,0.0,0.0,0.0,-22.315675735473633,-0.14978031814098358,-0.25616130232810974,0.0,0.0,0.0,0.0,0.0,0.0,0.0,0.0,0.0,0.007669516839087009,0.004426707047969103,0.03512690216302872,0.0,0.0,0.0,0.0,0.0,0.0,0.0,0.0,0.0
1606987739910120073,1435027,1606984139250639636,imu_link,0.0024464379530400038,0.0008501599659211934,0.193513423204422,-0.981094241142273,0.0,0.0,0.0,0.0,0.0,0.0,0.0,0.0,0.0,-22.315528869628906,-0.14982926845550537,-0.2561904489994049,0.0,0.0,0.0,0.0,0.0,0.0,0.0,0.0,0.0,-0.006420981604605913,-0.0043950979597866535,0.055221349000930786,0.0,0.0,0.0,0.0,0.0,0.0,0.0,0.0,0.0
1606987739910126886,1435028,1606984139250726177,imu_link,0.0024464379530400038,0.0008501599659211934,0.193513423204422,-0.981094241142273,0.0,0.0,0.0,0.0,0.0,0.0,0.0,0.0,0.0,-22.315528869628906,-0.14982926845550537,-0.2561904489994049,0.0,0.0,0.0,0.0,0.0,0.0,0.0,0.0,0.0,-0.006420981604605913,-0.0043950979597866535,0.055221349000930786,0.0,0.0,0.0,0.0,0.0,0.0,0.0,0.0,0.0
1606987739958243703,1435029,1606984139250807069,imu_link,0.0024462591391056776,0.0008507241145707667,0.19351297616958618,-0.9810943603515625,0.0,0.0,0.0,0.0,0.0,0.0,0.0,0.0,0.0,-22.315475463867188,-0.14988861978054047,-0.25615793466567993,0.0,0.0,0.0,0.0,0.0,0.0,0.0,0.0,0.0,0.006401979364454746,-0.005509712267667055,0.05122121423482895,0.0,0.0,0.0,0.0,0.0,0.0,0.0,0.0,0.0
1606987739958269373,1435030,1606984139250887846,imu_link,0.0024462591391056776,0.0008507241145707667,0.19351297616958618,-0.9810943603515625,0.0,0.0,0.0,0.0,0.0,0.0,0.0,0.0,0.0,-22.315475463867188,-0.14988861978054047,-0.25615793466567993,0.0,0.0,0.0,0.0,0.0,0.0,0.0,0.0,0.0,0.006401979364454746,-0.005509712267667055,0.05122121423482895,0.0,0.0,0.0,0.0,0.0,0.0,0.0,0.0,0.0
1606987739958280878,1435031,1606984139251002957,imu_link,0.002444649115204811,0.0008500557160004973,0.19350947439670563,-0.9810950756072998,0.0,0.0,0.0,0.0,0.0,0.0,0.0,0.0,0.0,-22.315067291259766,-0.1497768610715866,-0.25599223375320435,0.0,0.0,0.0,0.0,0.0,0.0,0.0,0.0,0.0,0.015487994998693466,-0.009076252579689026,0.049144480377435684,0.0,0.0,0.0,0.0,0.0,0.0,0.0,0.0,0.0
1606987739958286863,1435032,1606984139262773558,imu_link,0.002444649115204811,0.0008500557160004973,0.19350947439670563,-0.9810950756072998,0.0,0.0,0.0,0.0,0.0,0.0,0.0,0.0,0.0,-22.315067291259766,-0.1497768610715866,-0.25599223375320435,0.0,0.0,0.0,0.0,0.0,0.0,0.0,0.0,0.0,0.015487994998693466,-0.009076252579689026,0.049144480377435684,0.0,0.0,0.0,0.0,0.0,0.0,0.0,0.0,0.0
1606987739958329949,1435033,1606984139262886319,imu_link,0.0024432619102299213,0.0008515230729244649,0.19351041316986084,-0.9810948967933655,0.0,0.0,0.0,0.0,0.0,0.0,0.0,0.0,0.0,-22.315174102783203,-0.1499113142490387,-0.2558036148548126,0.0,0.0,0.0,0.0,0.0,0.0,0.0,0.0,0.0,0.012431703507900238,-0.014819902367889881,0.04464258998632431,0.0,0.0,0.0,0.0,0.0,0.0,0.0,0.0,0.0
1606987739972930964,1435034,1606984139263000203,imu_link,0.0024432619102299213,0.0008515230729244649,0.19351041316986084,-0.9810948967933655,0.0,0.0,0.0,0.0,0.0,0.0,0.0,0.0,0.0,-22.315174102783203,-0.1499113142490387,-0.2558036148548126,0.0,0.0,0.0,0.0,0.0,0.0,0.0,0.0,0.0,0.012431703507900238,-0.014819902367889881,0.04464258998632431,0.0,0.0,0.0,0.0,0.0,0.0,0.0,0.0,0.0
1606987739972959439,1435035,1606984139263080839,imu_link,0.0024390961043536663,0.0008500461699441075,0.19350968301296234,-0.981095016002655,0.0,0.0,0.0,0.0,0.0,0.0,0.0,0.0,0.0,-22.315093994140625,-0.14965270459651947,-0.255368173122406,0.0,0.0,0.0,0.0,0.0,0.0,0.0,0.0,0.0,0.00922717060893774,-0.004433142952620983,0.04842156916856766,0.0,0.0,0.0,0.0,0.0,0.0,0.0,0.0,0.0
1606987739973011710,1435036,1606984139263170747,imu_link,0.0024390961043536663,0.0008500461699441075,0.19350968301296234,-0.981095016002655,0.0,0.0,0.0,0.0,0.0,0.0,0.0,0.0,0.0,-22.315093994140625,-0.14965270459651947,-0.255368173122406,0.0,0.0,0.0,0.0,0.0,0.0,0.0,0.0,0.0,0.00922717060893774,-0.004433142952620983,0.04842156916856766,0.0,0.0,0.0,0.0,0.0,0.0,0.0,0.0,0.0
1606987739973021693,1435037,1606984139263271180,imu_link,0.002438457915559411,0.0008493506466038525,0.1935092657804489,-0.9810950756072998,0.0,0.0,0.0,0.0,0.0,0.0,0.0,0.0,0.0,-22.315044403076172,-0.14956024289131165,-0.25531190633773804,0.0,0.0,0.0,0.0,0.0,0.0,0.0,0.0,0.0,0.0009884880855679512,0.008055663667619228,0.049317002296447754,0.0,0.0,0.0,0.0,0.0,0.0,0.0,0.0,0.0
1606987739998026055,1435038,1606984139263354979,imu_link,0.002438457915559411,0.0008493506466038525,0.1935092657804489,-0.9810950756072998,0.0,0.0,0.0,0.0,0.0,0.0,0.0,0.0,0.0,-22.315044403076172,-0.14956024289131165,-0.25531190633773804,0.0,0.0,0.0,0.0,0.0,0.0,0.0,0.0,0.0,0.0009884880855679512,0.008055663667619228,0.049317002296447754,0.0,0.0,0.0,0.0,0.0,0.0,0.0,0.0,0.0
1606987739998073444,1435039,1606984139263442391,imu_link,0.0024397780653089285,0.0008502410491928458,0.19350884854793549,-0.9810951352119446,0.0,0.0,0.0,0.0,0.0,0.0,0.0,0.0,0.0,-22.31499481201172,-0.14968951046466827,-0.2554406523704529,0.0,0.0,0.0,0.0,0.0,0.0,0.0,0.0,0.0,-0.020210295915603638,0.012308801524341106,0.042647846043109894,0.0,0.0,0.0,0.0,0.0,0.0,0.0,0.0,0.0
1606987739998092437,1435040,1606984139263521830,imu_link,0.0024397780653089285,0.0008502410491928458,0.19350884854793549,-0.9810951352119446,0.0,0.0,0.0,0.0,0.0,0.0,0.0,0.0,0.0,-22.31499481201172,-0.14968951046466827,-0.2554406523704529,0.0,0.0,0.0,0.0,0.0,0.0,0.0,0.0,0.0,-0.020210295915603638,0.012308801524341106,0.042647846043109894,0.0,0.0,0.0,0.0,0.0,0.0,0.0,0.0,0.0
1606987739998105865,1435041,1606984139263604230,imu_link,0.002437894232571125,0.0008502643904648721,0.19350755214691162,-0.9810954332351685,0.0,0.0,0.0,0.0,0.0,0.0,0.0,0.0,0.0,-22.314844131469727,-0.14965003728866577,-0.25522851943969727,0.0,0.0,0.0,0.0,0.0,0.0,0.0,0.0,0.0,-0.02302403934299946,0.014530240558087826,0.03105388954281807,0.0,0.0,0.0,0.0,0.0,0.0,0.0,0.0,0.0
1606987739998144518,1435042,1606984139276573505,imu_link,0.002437894232571125,0.0008502643904648721,0.19350755214691162,-0.9810954332351685,0.0,0.0,0.0,0.0,0.0,0.0,0.0,0.0,0.0,-22.314844131469727,-0.14965003728866577,-0.25522851943969727,0.0,0.0,0.0,0.0,0.0,0.0,0.0,0.0,0.0,-0.02302403934299946,0.014530240558087826,0.03105388954281807,0.0,0.0,0.0,0.0,0.0,0.0,0.0,0.0,0.0
1606987740002918094,1435043,1606984139276712397,imu_link,0.0024410979822278023,0.0008512645727023482,0.19350650906562805,-0.9810956120491028,0.0,0.0,0.0,0.0,0.0,0.0,0.0,0.0,0.0,-22.314722061157227,-0.14983324706554413,-0.25556662678718567,0.0,0.0,0.0,0.0,0.0,0.0,0.0,0.0,0.0,-0.004844861105084419,-0.002180858049541712,0.021357905119657516,0.0,0.0,0.0,0.0,0.0,0.0,0.0,0.0,0.0
1606987740002936699,1435044,1606984139276878456,imu_link,0.0024410979822278023,0.0008512645727023482,0.19350650906562805,-0.9810956120491028,0.0,0.0,0.0,0.0,0.0,0.0,0.0,0.0,0.0,-22.314722061157227,-0.14983324706554413,-0.25556662678718567,0.0,0.0,0.0,0.0,0.0,0.0,0.0,0.0,0.0,-0.004844861105084419,-0.002180858049541712,0.021357905119657516,0.0,0.0,0.0,0.0,0.0,0.0,0.0,0.0,0.0
1606987740002956845,1435045,1606984139276978748,imu_link,0.002440883545204997,0.0008528801263310015,0.193507120013237,-0.9810954928398132,0.0,0.0,0.0,0.0,0.0,0.0,0.0,0.0,0.0,-22.31479263305664,-0.15001027286052704,-0.2555066645145416,0.0,0.0,0.0,0.0,0.0,0.0,0.0,0.0,0.0,-0.022329429164528847,-0.0038628175389021635,0.04149897024035454,0.0,0.0,0.0,0.0,0.0,0.0,0.0,0.0,0.0
1606987740002969647,1435046,1606984139277061705,imu_link,0.002440883545204997,0.0008528801263310015,0.193507120013237,-0.9810954928398132,0.0,0.0,0.0,0.0,0.0,0.0,0.0,0.0,0.0,-22.31479263305664,-0.15001027286052704,-0.2555066645145416,0.0,0.0,0.0,0.0,0.0,0.0,0.0,0.0,0.0,-0.022329429164528847,-0.0038628175389021635,0.04149897024035454,0.0,0.0,0.0,0.0,0.0,0.0,0.0,0.0,0.0
1606987740034814266,1435047,1606984139277181953,imu_link,0.0024424060247838497,0.0008574887760914862,0.19350536167621613,-0.9810957908630371,0.0,0.0,0.0,0.0,0.0,0.0,0.0,0.0,0.0,-22.314584732055664,-0.15056170523166656,-0.25557589530944824,0.0,0.0,0.0,0.0,0.0,0.0,0.0,0.0,0.0,-0.03533857688307762,0.01681460253894329,0.06132400780916214,0.0,0.0,0.0,0.0,0.0,0.0,0.0,0.0,0.0
1606987740034839895,1435048,1606984139277283689,imu_link,0.0024424060247838497,0.0008574887760914862,0.19350536167621613,-0.9810957908630371,0.0,0.0,0.0,0.0,0.0,0.0,0.0,0.0,0.0,-22.314584732055664,-0.15056170523166656,-0.25557589530944824,0.0,0.0,0.0,0.0,0.0,0.0,0.0,0.0,0.0,-0.03533857688307762,0.01681460253894329,0.06132400780916214,0.0,0.0,0.0,0.0,0.0,0.0,0.0,0.0,0.0
1606987740034870578,1435049,1606984139277367022,imu_link,0.0024433601647615433,0.0008572160149924457,0.19350478053092957,-0.9810959100723267,0.0,0.0,0.0,0.0,0.0,0.0,0.0,0.0,0.0,-22.314517974853516,-0.15055204927921295,-0.2556893527507782,0.0,0.0,0.0,0.0,0.0,0.0,0.0,0.0,0.0,-0.020959127694368362,0.005264411214739084,0.06816228479146957,0.0,0.0,0.0,0.0,0.0,0.0,0.0,0.0,0.0
1606987740034881929,1435050,1606984139277446265,imu_link,0.0024433601647615433,0.0008572160149924457,0.19350478053092957,-0.9810959100723267,0.0,0.0,0.0,0.0,0.0,0.0,0.0,0.0,0.0,-22.314517974853516,-0.15055204927921295,-0.2556893527507782,0.0,0.0,0.0,0.0,0.0,0.0,0.0,0.0,0.0,-0.020959127694368362,0.005264411214739084,0.06816228479146957,0.0,0.0,0.0,0.0,0.0,0.0,0.0,0.0,0.0
1606987740034897233,1435051,1606984139277749768,imu_link,0.002446818398311734,0.0008573674131184816,0.1935117095708847,-0.9810945391654968,0.0,0.0,0.0,0.0,0.0,0.0,0.0,0.0,0.0,-22.31532859802246,-0.15064756572246552,-0.2560736835002899,0.0,0.0,0.0,0.0,0.0,0.0,0.0,0.0,0.0,-0.0052167680114507675,-0.0027433750219643116,0.04160510376095772,0.0,0.0,0.0,0.0,0.0,0.0,0.0,0.0,0.0
1606987740047521143,1435052,1606984139277844562,imu_link,0.002446818398311734,0.0008573674131184816,0.1935117095708847,-0.9810945391654968,0.0,0.0,0.0,0.0,0.0,0.0,0.0,0.0,0.0,-22.31532859802246,-0.15064756572246552,-0.2560736835002899,0.0,0.0,0.0,0.0,0.0,0.0,0.0,0.0,0.0,-0.0052167680114507675,-0.0027433750219643116,0.04160510376095772,0.0,0.0,0.0,0.0,0.0,0.0,0.0,0.0,0.0
1606987740047550914,1435053,1606984139290081777,imu_link,0.0024472109507769346,0.0008583817980252206,0.19350998103618622,-0.9810948967933655,0.0,0.0,0.0,0.0,0.0,0.0,0.0,0.0,0.0,-22.315126419067383,-0.15076985955238342,-0.25609561800956726,0.0,0.0,0.0,0.0,0.0,0.0,0.0,0.0,0.0,-0.012554330751299858,0.008119565434753895,0.02741153910756111,0.0,0.0,0.0,0.0,0.0,0.0,0.0,0.0,0.0
1606987740047561313,1435054,1606984139290221827,imu_link,0.0024472109507769346,0.0008583817980252206,0.19350998103618622,-0.9810948967933655,0.0,0.0,0.0,0.0,0.0,0.0,0.0,0.0,0.0,-22.315126419067383,-0.15076985955238342,-0.25609561800956726,0.0,0.0,0.0,0.0,0.0,0.0,0.0,0.0,0.0,-0.012554330751299858,0.008119565434753895,0.02741153910756111,0.0,0.0,0.0,0.0,0.0,0.0,0.0,0.0,0.0
1606987740047568548,1435055,1606984139290415891,imu_link,0.002449352527037263,0.0008610088843852282,0.19351612031459808,-0.98109370470047,0.0,0.0,0.0,0.0,0.0,0.0,0.0,0.0,0.0,-22.315839767456055,-0.1511142998933792,-0.2562771737575531,0.0,0.0,0.0,0.0,0.0,0.0,0.0,0.0,0.0,-0.019078975543379784,-0.006089665461331606,0.06361781060695648,0.0,0.0,0.0,0.0,0.0,0.0,0.0,0.0,0.0
1606987740053126297,1435056,1606984139290517391,imu_link,0.002449352527037263,0.0008610088843852282,0.19351612031459808,-0.98109370470047,0.0,0.0,0.0,0.0,0.0,0.0,0.0,0.0,0.0,-22.315839767456055,-0.1511142998933792,-0.2562771737575531,0.0,0.0,0.0,0.0,0.0,0.0,0.0,0.0,0.0,-0.019078975543379784,-0.006089665461331606,0.06361781060695648,0.0,0.0,0.0,0.0,0.0,0.0,0.0,0.0,0.0
1606987740053190305,1435057,1606984139290615207,imu_link,0.002451191656291485,0.0008610404329374433,0.1935165822505951,-0.9810935854911804,0.0,0.0,0.0,0.0,0.0,0.0,0.0,0.0,0.0,-22.315893173217773,-0.15115875005722046,-0.25648316740989685,0.0,0.0,0.0,0.0,0.0,0.0,0.0,0.0,0.0,0.004157444927841425,-0.01852467656135559,0.08878879994153976,0.0,0.0,0.0,0.0,0.0,0.0,0.0,0.0,0.0
1606987740053217909,1435058,1606984139290696510,imu_link,0.002451191656291485,0.0008610404329374433,0.1935165822505951,-0.9810935854911804,0.0,0.0,0.0,0.0,0.0,0.0,0.0,0.0,0.0,-22.315893173217773,-0.15115875005722046,-0.25648316740989685,0.0,0.0,0.0,0.0,0.0,0.0,0.0,0.0,0.0,0.004157444927841425,-0.01852467656135559,0.08878879994153976,0.0,0.0,0.0,0.0,0.0,0.0,0.0,0.0,0.0
1606987740053227296,1435059,1606984139290800220,imu_link,0.0024458630941808224,0.0008629473741166294,0.19350937008857727,-0.9810950756072998,0.0,0.0,0.0,0.0,0.0,0.0,0.0,0.0,0.0,-22.315052032470703,-0.1512531042098999,-0.2558428943157196,0.0,0.0,0.0,0.0,0.0,0.0,0.0,0.0,0.0,0.0042738900519907475,-0.014721104875206947,0.06234753876924515,0.0,0.0,0.0,0.0,0.0,0.0,0.0,0.0,0.0
1606987740053234830,1435060,1606984139290886099,imu_link,0.0024458630941808224,0.0008629473741166294,0.19350937008857727,-0.9810950756072998,0.0,0.0,0.0,0.0,0.0,0.0,0.0,0.0,0.0,-22.315052032470703,-0.1512531042098999,-0.2558428943157196,0.0,0.0,0.0,0.0,0.0,0.0,0.0,0.0,0.0,0.0042738900519907475,-0.014721104875206947,0.06234753876924515,0.0,0.0,0.0,0.0,0.0,0.0,0.0,0.0,0.0
1606987740059386185,1435061,1606984139291004313,imu_link,0.002447279868647456,0.000861325825098902,0.19350869953632355,-0.9810951948165894,0.0,0.0,0.0,0.0,0.0,0.0,0.0,0.0,0.0,-22.314973831176758,-0.15110203623771667,-0.25603824853897095,0.0,0.0,0.0,0.0,0.0,0.0,0.0,0.0,0.0,0.00406155688688159,-0.006939687766134739,0.026073096320033073,0.0,0.0,0.0,0.0,0.0,0.0,0.0,0.0,0.0
1606987740059409810,1435062,1606984139291090236,imu_link,0.002447279868647456,0.000861325825098902,0.19350869953632355,-0.9810951948165894,0.0,0.0,0.0,0.0,0.0,0.0,0.0,0.0,0.0,-22.314973831176758,-0.15110203623771667,-0.25603824853897095,0.0,0.0,0.0,0.0,0.0,0.0,0.0,0.0,0.0,0.00406155688688159,-0.006939687766134739,0.026073096320033073,0.0,0.0,0.0,0.0,0.0,0.0,0.0,0.0,0.0
1606987740059430217,1435063,1606984139291171540,imu_link,0.002446034923195839,0.0008609184296801686,0.19350464642047882,-0.9810959696769714,0.0,0.0,0.0,0.0,0.0,0.0,0.0,0.0,0.0,-22.31450080871582,-0.15102757513523102,-0.25590792298316956,0.0,0.0,0.0,0.0,0.0,0.0,0.0,0.0,0.0,0.0007089755381457508,0.0069818561896681786,0.03191394358873367,0.0,0.0,0.0,0.0,0.0,0.0,0.0,0.0,0.0
1606987740059441727,1435064,1606984139303878693,imu_link,0.002446034923195839,0.0008609184296801686,0.19350464642047882,-0.9810959696769714,0.0,0.0,0.0,0.0,0.0,0.0,0.0,0.0,0.0,-22.31450080871582,-0.15102757513523102,-0.25590792298316956,0.0,0.0,0.0,0.0,0.0,0.0,0.0,0.0,0.0,0.0007089755381457508,0.0069818561896681786,0.03191394358873367,0.0,0.0,0.0,0.0,0.0,0.0,0.0,0.0,0.0
1606987740090760376,1435065,1606984139303990421,imu_link,0.002446034923195839,0.0008609184296801686,0.19350464642047882,-0.9810959696769714,0.0,0.0,0.0,0.0,0.0,0.0,0.0,0.0,0.0,-22.31450080871582,-0.15102757513523102,-0.25590792298316956,0.0,0.0,0.0,0.0,0.0,0.0,0.0,0.0,0.0,-0.010786771774291992,0.016653742641210556,0.04896402731537819,0.0,0.0,0.0,0.0,0.0,0.0,0.0,0.0,0.0
1606987740090776632,1435066,1606984139304111872,imu_link,0.002446034923195839,0.0008609184296801686,0.19350464642047882,-0.9810959696769714,0.0,0.0,0.0,0.0,0.0,0.0,0.0,0.0,0.0,-22.31450080871582,-0.15102757513523102,-0.25590792298316956,0.0,0.0,0.0,0.0,0.0,0.0,0.0,0.0,0.0,-0.010786771774291992,0.016653742641210556,0.04896402731537819,0.0,0.0,0.0,0.0,0.0,0.0,0.0,0.0,0.0
1606987740090788979,1435067,1606984139304199570,imu_link,0.00244858767837286,0.0008628408540971577,0.19351071119308472,-0.9810947775840759,0.0,0.0,0.0,0.0,0.0,0.0,0.0,0.0,0.0,-22.315208435058594,-0.15130189061164856,-0.256151407957077,0.0,0.0,0.0,0.0,0.0,0.0,0.0,0.0,0.0,0.0045420327223837376,0.006940786726772785,0.03559824451804161,0.0,0.0,0.0,0.0,0.0,0.0,0.0,0.0,0.0
1606987740090794707,1435068,1606984139304290506,imu_link,0.00244858767837286,0.0008628408540971577,0.19351071119308472,-0.9810947775840759,0.0,0.0,0.0,0.0,0.0,0.0,0.0,0.0,0.0,-22.315208435058594,-0.15130189061164856,-0.256151407957077,0.0,0.0,0.0,0.0,0.0,0.0,0.0,0.0,0.0,0.0045420327223837376,0.006940786726772785,0.03559824451804161,0.0,0.0,0.0,0.0,0.0,0.0,0.0,0.0,0.0
1606987740090804961,1435069,1606984139304370746,imu_link,0.00245048850774765,0.0008637932478450239,0.19351042807102203,-0.9810948371887207,0.0,0.0,0.0,0.0,0.0,0.0,0.0,0.0,0.0,-22.315176010131836,-0.15145103633403778,-0.2563440203666687,0.0,0.0,0.0,0.0,0.0,0.0,0.0,0.0,0.0,0.006864873692393303,-0.006469775456935167,0.02437683753669262,0.0,0.0,0.0,0.0,0.0,0.0,0.0,0.0,0.0
1606987740097301317,1435070,1606984139304465776,imu_link,0.00245048850774765,0.0008637932478450239,0.19351042807102203,-0.9810948371887207,0.0,0.0,0.0,0.0,0.0,0.0,0.0,0.0,0.0,-22.315176010131836,-0.15145103633403778,-0.2563440203666687,0.0,0.0,0.0,0.0,0.0,0.0,0.0,0.0,0.0,0.006864873692393303,-0.006469775456935167,0.02437683753669262,0.0,0.0,0.0,0.0,0.0,0.0,0.0,0.0,0.0
1606987740097313426,1435071,1606984139304547055,imu_link,0.0024481855798512697,0.0008635842241346836,0.19351479411125183,-0.9810938835144043,0.0,0.0,0.0,0.0,0.0,0.0,0.0,0.0,0.0,-22.31568717956543,-0.1513775885105133,-0.25608909130096436,0.0,0.0,0.0,0.0,0.0,0.0,0.0,0.0,0.0,0.00032315822318196297,-0.0020236768759787083,0.04980403929948807,0.0,0.0,0.0,0.0,0.0,0.0,0.0,0.0,0.0
1606987740097320042,1435072,1606984139304705882,imu_link,0.0024481855798512697,0.0008635842241346836,0.19351479411125183,-0.9810938835144043,0.0,0.0,0.0,0.0,0.0,0.0,0.0,0.0,0.0,-22.31568717956543,-0.1513775885105133,-0.25608909130096436,0.0,0.0,0.0,0.0,0.0,0.0,0.0,0.0,0.0,0.00032315822318196297,-0.0020236768759787083,0.04980403929948807,0.0,0.0,0.0,0.0,0.0,0.0,0.0,0.0,0.0
1606987740097363966,1435073,1606984139304789646,imu_link,0.0024491846561431885,0.0008629580261185765,0.19351649284362793,-0.9810936450958252,0.0,0.0,0.0,0.0,0.0,0.0,0.0,0.0,0.0,-22.31588363647461,-0.15132981538772583,-0.25621500611305237,0.0,0.0,0.0,0.0,0.0,0.0,0.0,0.0,0.0,-0.002416045404970646,0.013631390407681465,0.04665686935186386,0.0,0.0,0.0,0.0,0.0,0.0,0.0,0.0,0.0
1606987740132846747,1435074,1606984139304876732,imu_link,0.0024491846561431885,0.0008629580261185765,0.19351649284362793,-0.9810936450958252,0.0,0.0,0.0,0.0,0.0,0.0,0.0,0.0,0.0,-22.31588363647461,-0.15132981538772583,-0.25621500611305237,0.0,0.0,0.0,0.0,0.0,0.0,0.0,0.0,0.0,-0.002416045404970646,0.013631390407681465,0.04665686935186386,0.0,0.0,0.0,0.0,0.0,0.0,0.0,0.0,0.0
1606987740132884484,1435075,1606984139317363375,imu_link,0.002450301544740796,0.0008634033729322255,0.19352026283740997,-0.9810928702354431,0.0,0.0,0.0,0.0,0.0,0.0,0.0,0.0,0.0,-22.31632423400879,-0.15140563249588013,-0.25633013248443604,0.0,0.0,0.0,0.0,0.0,0.0,0.0,0.0,0.0,-0.0009151832200586796,0.012875539250671864,0.02755291759967804,0.0,0.0,0.0,0.0,0.0,0.0,0.0,0.0,0.0
1606987740132949524,1435076,1606984139317500643,imu_link,0.002450301544740796,0.0008634033729322255,0.19352026283740997,-0.9810928702354431,0.0,0.0,0.0,0.0,0.0,0.0,0.0,0.0,0.0,-22.31632423400879,-0.15140563249588013,-0.25633013248443604,0.0,0.0,0.0,0.0,0.0,0.0,0.0,0.0,0.0,-0.0009151832200586796,0.012875539250671864,0.02755291759967804,0.0,0.0,0.0,0.0,0.0,0.0,0.0,0.0,0.0
1606987740132970204,1435077,1606984139317654850,imu_link,0.002451063133776188,0.0008617171552032232,0.19352106750011444,-0.9810926914215088,0.0,0.0,0.0,0.0,0.0,0.0,0.0,0.0,0.0,-22.31641960144043,-0.15123315155506134,-0.2564529776573181,0.0,0.0,0.0,0.0,0.0,0.0,0.0,0.0,0.0,0.008560704998672009,-0.002212901134043932,0.02519538812339306,0.0,0.0,0.0,0.0,0.0,0.0,0.0,0.0,0.0
1606987740133005208,1435078,1606984139317755593,imu_link,0.002451063133776188,0.0008617171552032232,0.19352106750011444,-0.9810926914215088,0.0,0.0,0.0,0.0,0.0,0.0,0.0,0.0,0.0,-22.31641960144043,-0.15123315155506134,-0.2564529776573181,0.0,0.0,0.0,0.0,0.0,0.0,0.0,0.0,0.0,0.008560704998672009,-0.002212901134043932,0.02519538812339306,0.0,0.0,0.0,0.0,0.0,0.0,0.0,0.0,0.0
1606987740138538491,1435079,1606984139317843181,imu_link,0.002451233798637986,0.0008615591214038432,0.19352763891220093,-0.9810914397239685,0.0,0.0,0.0,0.0,0.0,0.0,0.0,0.0,0.0,-22.31718635559082,-0.1512208878993988,-0.25647467374801636,0.0,0.0,0.0,0.0,0.0,0.0,0.0,0.0,0.0,0.00566225778311491,-0.022137057036161423,0.0306614488363266,0.0,0.0,0.0,0.0,0.0,0.0,0.0,0.0,0.0
1606987740138579728,1435080,1606984139317959786,imu_link,0.002451233798637986,0.0008615591214038432,0.19352763891220093,-0.9810914397239685,0.0,0.0,0.0,0.0,0.0,0.0,0.0,0.0,0.0,-22.31718635559082,-0.1512208878993988,-0.25647467374801636,0.0,0.0,0.0,0.0,0.0,0.0,0.0,0.0,0.0,0.00566225778311491,-0.022137057036161423,0.0306614488363266,0.0,0.0,0.0,0.0,0.0,0.0,0.0,0.0,0.0
1606987740138612311,1435081,1606984139318057296,imu_link,0.0024530270602554083,0.0008615409606136382,0.19352565705776215,-0.9810917973518372,0.0,0.0,0.0,0.0,0.0,0.0,0.0,0.0,0.0,-22.316953659057617,-0.15125809609889984,-0.2566770315170288,0.0,0.0,0.0,0.0,0.0,0.0,0.0,0.0,0.0,0.011464896611869335,-0.018315773457288742,0.048004064708948135,0.0,0.0,0.0,0.0,0.0,0.0,0.0,0.0,0.0
1606987740138633828,1435082,1606984139318138855,imu_link,0.0024530270602554083,0.0008615409606136382,0.19352565705776215,-0.9810917973518372,0.0,0.0,0.0,0.0,0.0,0.0,0.0,0.0,0.0,-22.316953659057617,-0.15125809609889984,-0.2566770315170288,0.0,0.0,0.0,0.0,0.0,0.0,0.0,0.0,0.0,0.011464896611869335,-0.018315773457288742,0.048004064708948135,0.0,0.0,0.0,0.0,0.0,0.0,0.0,0.0,0.0
1606987740206574617,1435083,1606984139318222709,imu_link,0.0024505676701664925,0.0008631293894723058,0.1935293823480606,-0.9810910820960999,0.0,0.0,0.0,0.0,0.0,0.0,0.0,0.0,0.0,-22.317386627197266,-0.15138310194015503,-0.25636473298072815,0.0,0.0,0.0,0.0,0.0,0.0,0.0,0.0,0.0,0.011690551415085793,-0.006342842243611813,0.056564003229141235,0.0,0.0,0.0,0.0,0.0,0.0,0.0,0.0,0.0
1606987740206592247,1435084,1606984139318305536,imu_link,0.0024505676701664925,0.0008631293894723058,0.1935293823480606,-0.9810910820960999,0.0,0.0,0.0,0.0,0.0,0.0,0.0,0.0,0.0,-22.317386627197266,-0.15138310194015503,-0.25636473298072815,0.0,0.0,0.0,0.0,0.0,0.0,0.0,0.0,0.0,0.011690551415085793,-0.006342842243611813,0.056564003229141235,0.0,0.0,0.0,0.0,0.0,0.0,0.0,0.0,0.0
1606987740206601725,1435085,1606984139318395268,imu_link,0.0024528123904019594,0.0008649701485410333,0.19352944195270538,-0.9810910820960999,0.0,0.0,0.0,0.0,0.0,0.0,0.0,0.0,0.0,-22.317398071289062,-0.15163984894752502,-0.256576269865036,0.0,0.0,0.0,0.0,0.0,0.0,0.0,0.0,0.0,-0.004590433556586504,-0.011728002689778805,0.04933583736419678,0.0,0.0,0.0,0.0,0.0,0.0,0.0,0.0,0.0
1606987740206611691,1435086,1606984139326777157,imu_link,0.0024528123904019594,0.0008649701485410333,0.19352944195270538,-0.9810910820960999,0.0,0.0,0.0,0.0,0.0,0.0,0.0,0.0,0.0,-22.317398071289062,-0.15163984894752502,-0.256576269865036,0.0,0.0,0.0,0.0,0.0,0.0,0.0,0.0,0.0,-0.004590433556586504,-0.011728002689778805,0.04933583736419678,0.0,0.0,0.0,0.0,0.0,0.0,0.0,0.0,0.0
1606987740206620075,1435087,1606984139326905549,imu_link,0.002450060797855258,0.0008660111343488097,0.19353438913822174,-0.9810900688171387,0.0,0.0,0.0,0.0,0.0,0.0,0.0,0.0,0.0,-22.317974090576172,-0.15169714391231537,-0.2562430500984192,0.0,0.0,0.0,0.0,0.0,0.0,0.0,0.0,0.0,-0.010727237910032272,0.00037000072188675404,0.04171191155910492,0.0,0.0,0.0,0.0,0.0,0.0,0.0,0.0,0.0
1606987740214212068,1435088,1606984139327078264,imu_link,0.002450060797855258,0.0008660111343488097,0.19353438913822174,-0.9810900688171387,0.0,0.0,0.0,0.0,0.0,0.0,0.0,0.0,0.0,-22.317974090576172,-0.15169714391231537,-0.2562430500984192,0.0,0.0,0.0,0.0,0.0,0.0,0.0,0.0,0.0,-0.010727237910032272,0.00037000072188675404,0.04171191155910492,0.0,0.0,0.0,0.0,0.0,0.0,0.0,0.0,0.0
1606987740214230809,1435089,1606984139327167936,imu_link,0.002449791645631194,0.000862924091052264,0.1935325264930725,-0.9810904264450073,0.0,0.0,0.0,0.0,0.0,0.0,0.0,0.0,0.0,-22.317758560180664,-0.15134362876415253,-0.2562815546989441,0.0,0.0,0.0,0.0,0.0,0.0,0.0,0.0,0.0,-0.007143119815737009,0.02195059135556221,0.049114640802145004,0.0,0.0,0.0,0.0,0.0,0.0,0.0,0.0,0.0
1606987740214235839,1435090,1606984139327241827,imu_link,0.002449791645631194,0.000862924091052264,0.1935325264930725,-0.9810904264450073,0.0,0.0,0.0,0.0,0.0,0.0,0.0,0.0,0.0,-22.317758560180664,-0.15134362876415253,-0.2562815546989441,0.0,0.0,0.0,0.0,0.0,0.0,0.0,0.0,0.0,-0.007143119815737009,0.02195059135556221,0.049114640802145004,0.0,0.0,0.0,0.0,0.0,0.0,0.0,0.0,0.0
1606987740214240063,1435091,1606984139327343317,imu_link,0.002453897148370743,0.0008635413250885904,0.193538635969162,-0.9810892343521118,0.0,0.0,0.0,0.0,0.0,0.0,0.0,0.0,0.0,-22.318470001220703,-0.15150567889213562,-0.25672850012779236,0.0,0.0,0.0,0.0,0.0,0.0,0.0,0.0,0.0,0.002180772367864847,0.02268833853304386,0.06835129857063293,0.0,0.0,0.0,0.0,0.0,0.0,0.0,0.0,0.0
1606987740218923620,1435092,1606984139327597741,imu_link,0.002453897148370743,0.0008635413250885904,0.193538635969162,-0.9810892343521118,0.0,0.0,0.0,0.0,0.0,0.0,0.0,0.0,0.0,-22.318470001220703,-0.15150567889213562,-0.25672850012779236,0.0,0.0,0.0,0.0,0.0,0.0,0.0,0.0,0.0,0.002180772367864847,0.02268833853304386,0.06835129857063293,0.0,0.0,0.0,0.0,0.0,0.0,0.0,0.0,0.0
1606987740218950099,1435093,1606984139340150091,imu_link,0.0024543730542063713,0.0008622862515039742,0.19353894889354706,-0.981089174747467,0.0,0.0,0.0,0.0,0.0,0.0,0.0,0.0,0.0,-22.318506240844727,-0.15137521922588348,-0.2568097710609436,0.0,0.0,0.0,0.0,0.0,0.0,0.0,0.0,0.0,-0.005993793718516827,0.0003380628186278045,0.08129725605249405,0.0,0.0,0.0,0.0,0.0,0.0,0.0,0.0,0.0
1606987740218987602,1435094,1606984139340285073,imu_link,0.0024543730542063713,0.0008622862515039742,0.19353894889354706,-0.981089174747467,0.0,0.0,0.0,0.0,0.0,0.0,0.0,0.0,0.0,-22.318506240844727,-0.15137521922588348,-0.2568097710609436,0.0,0.0,0.0,0.0,0.0,0.0,0.0,0.0,0.0,-0.005993793718516827,0.0003380628186278045,0.08129725605249405,0.0,0.0,0.0,0.0,0.0,0.0,0.0,0.0,0.0
1606987740218997237,1435095,1606984139340441094,imu_link,0.002455004258081317,0.0008620828739367425,0.19354243576526642,-0.9810885190963745,0.0,0.0,0.0,0.0,0.0,0.0,0.0,0.0,0.0,-22.318912506103516,-0.15136726200580597,-0.2568846642971039,0.0,0.0,0.0,0.0,0.0,0.0,0.0,0.0,0.0,-0.005203375592827797,-0.02506803721189499,0.07088907063007355,0.0,0.0,0.0,0.0,0.0,0.0,0.0,0.0,0.0
1606987740225971128,1435096,1606984139340542313,imu_link,0.002455004258081317,0.0008620828739367425,0.19354243576526642,-0.9810885190963745,0.0,0.0,0.0,0.0,0.0,0.0,0.0,0.0,0.0,-22.318912506103516,-0.15136726200580597,-0.2568846642971039,0.0,0.0,0.0,0.0,0.0,0.0,0.0,0.0,0.0,-0.005203375592827797,-0.02506803721189499,0.07088907063007355,0.0,0.0,0.0,0.0,0.0,0.0,0.0,0.0,0.0
1606987740225997528,1435097,1606984139340624123,imu_link,0.002456711372360587,0.0008626554626971483,0.1935434192419052,-0.9810882806777954,0.0,0.0,0.0,0.0,0.0,0.0,0.0,0.0,0.0,-22.31903076171875,-0.15146975219249725,-0.25706374645233154,0.0,0.0,0.0,0.0,0.0,0.0,0.0,0.0,0.0,0.0030313243623822927,-0.0125327929854393,0.05568068474531174,0.0,0.0,0.0,0.0,0.0,0.0,0.0,0.0,0.0
1606987740226014212,1435098,1606984139340706819,imu_link,0.002456711372360587,0.0008626554626971483,0.1935434192419052,-0.9810882806777954,0.0,0.0,0.0,0.0,0.0,0.0,0.0,0.0,0.0,-22.31903076171875,-0.15146975219249725,-0.25706374645233154,0.0,0.0,0.0,0.0,0.0,0.0,0.0,0.0,0.0,0.0030313243623822927,-0.0125327929854393,0.05568068474531174,0.0,0.0,0.0,0.0,0.0,0.0,0.0,0.0,0.0
1606987740226021653,1435099,1606984139340808389,imu_link,0.0024558536242693663,0.0008638623403385282,0.19354300200939178,-0.981088399887085,0.0,0.0,0.0,0.0,0.0,0.0,0.0,0.0,0.0,-22.318979263305664,-0.15158630907535553,-0.256940633058548,0.0,0.0,0.0,0.0,0.0,0.0,0.0,0.0,0.0,0.0022856672294437885,-0.0008750142296776175,0.05839574709534645,0.0,0.0,0.0,0.0,0.0,0.0,0.0,0.0,0.0
1606987740226030333,1435100,1606984139340893070,imu_link,0.0024558536242693663,0.0008638623403385282,0.19354300200939178,-0.981088399887085,0.0,0.0,0.0,0.0,0.0,0.0,0.0,0.0,0.0,-22.318979263305664,-0.15158630907535553,-0.256940633058548,0.0,0.0,0.0,0.0,0.0,0.0,0.0,0.0,0.0,0.0022856672294437885,-0.0008750142296776175,0.05839574709534645,0.0,0.0,0.0,0.0,0.0,0.0,0.0,0.0,0.0
1606987740229786807,1435101,1606984139341054709,imu_link,0.002456151880323887,0.0008640421438030899,0.19354085624217987,-0.9810888171195984,0.0,0.0,0.0,0.0,0.0,0.0,0.0,0.0,0.0,-22.318727493286133,-0.1516125649213791,-0.25697052478790283,0.0,0.0,0.0,0.0,0.0,0.0,0.0,0.0,0.0,-0.003513808362185955,-0.02285713702440262,0.04578486457467079,0.0,0.0,0.0,0.0,0.0,0.0,0.0,0.0,0.0
1606987740229817520,1435102,1606984139341140017,imu_link,0.002456151880323887,0.0008640421438030899,0.19354085624217987,-0.9810888171195984,0.0,0.0,0.0,0.0,0.0,0.0,0.0,0.0,0.0,-22.318727493286133,-0.1516125649213791,-0.25697052478790283,0.0,0.0,0.0,0.0,0.0,0.0,0.0,0.0,0.0,-0.003513808362185955,-0.02285713702440262,0.04578486457467079,0.0,0.0,0.0,0.0,0.0,0.0,0.0,0.0,0.0
1606987740229831447,1435103,1606984139341219526,imu_link,0.002453193534165621,0.0008648055954836309,0.1935410350561142,-0.9810888171195984,0.0,0.0,0.0,0.0,0.0,0.0,0.0,0.0,0.0,-22.318750381469727,-0.15163284540176392,-0.2566209137439728,0.0,0.0,0.0,0.0,0.0,0.0,0.0,0.0,0.0,-0.008360535837709904,-0.015305938199162483,0.03215482831001282,0.0,0.0,0.0,0.0,0.0,0.0,0.0,0.0,0.0
1606987740229845194,1435104,1606984139354088548,imu_link,0.002453193534165621,0.0008648055954836309,0.1935410350561142,-0.9810888171195984,0.0,0.0,0.0,0.0,0.0,0.0,0.0,0.0,0.0,-22.318750381469727,-0.15163284540176392,-0.2566209137439728,0.0,0.0,0.0,0.0,0.0,0.0,0.0,0.0,0.0,-0.008360535837709904,-0.015305938199162483,0.03215482831001282,0.0,0.0,0.0,0.0,0.0,0.0,0.0,0.0,0.0
1606987740232681778,1435105,1606984139354228853,imu_link,0.002453564666211605,0.000867802940774709,0.1935422122478485,-0.9810885787010193,0.0,0.0,0.0,0.0,0.0,0.0,0.0,0.0,0.0,-22.318885803222656,-0.15197835862636566,-0.25659602880477905,0.0,0.0,0.0,0.0,0.0,0.0,0.0,0.0,0.0,0.001896974048577249,-0.005465633235871792,0.035437170416116714,0.0,0.0,0.0,0.0,0.0,0.0,0.0,0.0,0.0
1606987740232711790,1435106,1606984139354374054,imu_link,0.002453564666211605,0.000867802940774709,0.1935422122478485,-0.9810885787010193,0.0,0.0,0.0,0.0,0.0,0.0,0.0,0.0,0.0,-22.318885803222656,-0.15197835862636566,-0.25659602880477905,0.0,0.0,0.0,0.0,0.0,0.0,0.0,0.0,0.0,0.001896974048577249,-0.005465633235871792,0.035437170416116714,0.0,0.0,0.0,0.0,0.0,0.0,0.0,0.0,0.0
1606987740232719940,1435107,1606984139354472687,imu_link,0.0024530559312552214,0.0008688783273100853,0.19353847205638885,-0.9810892939567566,0.0,0.0,0.0,0.0,0.0,0.0,0.0,0.0,0.0,-22.318449020385742,-0.1520869880914688,-0.2565155625343323,0.0,0.0,0.0,0.0,0.0,0.0,0.0,0.0,0.0,-0.0034526248928159475,-0.017464427277445793,0.020372310653328896,0.0,0.0,0.0,0.0,0.0,0.0,0.0,0.0,0.0
1606987740232764938,1435108,1606984139354560581,imu_link,0.0024530559312552214,0.0008688783273100853,0.19353847205638885,-0.9810892939567566,0.0,0.0,0.0,0.0,0.0,0.0,0.0,0.0,0.0,-22.318449020385742,-0.1520869880914688,-0.2565155625343323,0.0,0.0,0.0,0.0,0.0,0.0,0.0,0.0,0.0,-0.0034526248928159475,-0.017464427277445793,0.020372310653328896,0.0,0.0,0.0,0.0,0.0,0.0,0.0,0.0,0.0
1606987740232789179,1435109,1606984139354645402,imu_link,0.002454800996929407,0.0008676855941303074,0.19353985786437988,-0.9810889959335327,0.0,0.0,0.0,0.0,0.0,0.0,0.0,0.0,0.0,-22.31861114501953,-0.15199196338653564,-0.25673800706863403,0.0,0.0,0.0,0.0,0.0,0.0,0.0,0.0,0.0,0.00233404035679996,-0.014207979664206505,0.018391622230410576,0.0,0.0,0.0,0.0,0.0,0.0,0.0,0.0,0.0
1606987740236522011,1435110,1606984139354749388,imu_link,0.002454800996929407,0.0008676855941303074,0.19353985786437988,-0.9810889959335327,0.0,0.0,0.0,0.0,0.0,0.0,0.0,0.0,0.0,-22.31861114501953,-0.15199196338653564,-0.25673800706863403,0.0,0.0,0.0,0.0,0.0,0.0,0.0,0.0,0.0,0.00233404035679996,-0.014207979664206505,0.018391622230410576,0.0,0.0,0.0,0.0,0.0,0.0,0.0,0.0,0.0
1606987740236549068,1435111,1606984139354833157,imu_link,0.0024505897890776396,0.0008677314035594463,0.19353559613227844,-0.9810898303985596,0.0,0.0,0.0,0.0,0.0,0.0,0.0,0.0,0.0,-22.318117141723633,-0.15190260112285614,-0.25626417994499207,0.0,0.0,0.0,0.0,0.0,0.0,0.0,0.0,0.0,0.008400030434131622,-0.01706651784479618,0.023996304720640182,0.0,0.0,0.0,0.0,0.0,0.0,0.0,0.0,0.0
1606987740236567351,1435112,1606984139354914294,imu_link,0.0024505897890776396,0.0008677314035594463,0.19353559613227844,-0.9810898303985596,0.0,0.0,0.0,0.0,0.0,0.0,0.0,0.0,0.0,-22.318117141723633,-0.15190260112285614,-0.25626417994499207,0.0,0.0,0.0,0.0,0.0,0.0,0.0,0.0,0.0,0.008400030434131622,-0.01706651784479618,0.023996304720640182,0.0,0.0,0.0,0.0,0.0,0.0,0.0,0.0,0.0
1606987740236632283,1435113,1606984139355025737,imu_link,0.0024527537170797586,0.0008676422876305878,0.1935364156961441,-0.9810896515846252,0.0,0.0,0.0,0.0,0.0,0.0,0.0,0.0,0.0,-22.318208694458008,-0.15194079279899597,-0.25650930404663086,0.0,0.0,0.0,0.0,0.0,0.0,0.0,0.0,0.0,0.003764842636883259,-0.012795915827155113,0.016142552718520164,0.0,0.0,0.0,0.0,0.0,0.0,0.0,0.0,0.0
1606987740267870745,1435114,1606984139355110223,imu_link,0.0024527537170797586,0.0008676422876305878,0.1935364156961441,-0.9810896515846252,0.0,0.0,0.0,0.0,0.0,0.0,0.0,0.0,0.0,-22.318208694458008,-0.15194079279899597,-0.25650930404663086,0.0,0.0,0.0,0.0,0.0,0.0,0.0,0.0,0.0,0.003764842636883259,-0.012795915827155113,0.016142552718520164,0.0,0.0,0.0,0.0,0.0,0.0,0.0,0.0,0.0
1606987740267904760,1435115,1606984139367375148,imu_link,0.002451131585985422,0.0008668422815389931,0.1935354769229889,-0.9810898900032043,0.0,0.0,0.0,0.0,0.0,0.0,0.0,0.0,0.0,-22.31810188293457,-0.15181462466716766,-0.25634482502937317,0.0,0.0,0.0,0.0,0.0,0.0,0.0,0.0,0.0,-0.0003147850511595607,0.009018652141094208,0.028606025502085686,0.0,0.0,0.0,0.0,0.0,0.0,0.0,0.0,0.0
1606987740267925835,1435116,1606984139367508521,imu_link,0.002451131585985422,0.0008668422815389931,0.1935354769229889,-0.9810898900032043,0.0,0.0,0.0,0.0,0.0,0.0,0.0,0.0,0.0,-22.31810188293457,-0.15181462466716766,-0.25634482502937317,0.0,0.0,0.0,0.0,0.0,0.0,0.0,0.0,0.0,-0.0003147850511595607,0.009018652141094208,0.028606025502085686,0.0,0.0,0.0,0.0,0.0,0.0,0.0,0.0,0.0
1606987740267982208,1435117,1606984139367679878,imu_link,0.0024497401900589466,0.0008675965364091098,0.19353584945201874,-0.9810897707939148,0.0,0.0,0.0,0.0,0.0,0.0,0.0,0.0,0.0,-22.318143844604492,-0.15186865627765656,-0.25617164373397827,0.0,0.0,0.0,0.0,0.0,0.0,0.0,0.0,0.0,-0.014064732939004898,0.009498444385826588,0.04032820835709572,0.0,0.0,0.0,0.0,0.0,0.0,0.0,0.0,0.0
1606987740268003291,1435118,1606984139367791416,imu_link,0.0024497401900589466,0.0008675965364091098,0.19353584945201874,-0.9810897707939148,0.0,0.0,0.0,0.0,0.0,0.0,0.0,0.0,0.0,-22.318143844604492,-0.15186865627765656,-0.25617164373397827,0.0,0.0,0.0,0.0,0.0,0.0,0.0,0.0,0.0,-0.014064732939004898,0.009498444385826588,0.04032820835709572,0.0,0.0,0.0,0.0,0.0,0.0,0.0,0.0,0.0
1606987740274343034,1435119,1606984139367915939,imu_link,0.0024526668712496758,0.0008684462518431246,0.19353589415550232,-0.9810897707939148,0.0,0.0,0.0,0.0,0.0,0.0,0.0,0.0,0.0,-22.31814956665039,-0.1520290970802307,-0.256481796503067,0.0,0.0,0.0,0.0,0.0,0.0,0.0,0.0,0.0,-0.015443054959177971,0.0037652815226465464,0.0391046479344368,0.0,0.0,0.0,0.0,0.0,0.0,0.0,0.0,0.0
1606987740274369690,1435120,1606984139368022807,imu_link,0.0024526668712496758,0.0008684462518431246,0.19353589415550232,-0.9810897707939148,0.0,0.0,0.0,0.0,0.0,0.0,0.0,0.0,0.0,-22.31814956665039,-0.1520290970802307,-0.256481796503067,0.0,0.0,0.0,0.0,0.0,0.0,0.0,0.0,0.0,-0.015443054959177971,0.0037652815226465464,0.0391046479344368,0.0,0.0,0.0,0.0,0.0,0.0,0.0,0.0,0.0
1606987740274382101,1435121,1606984139368104491,imu_link,0.002452684100717306,0.0008703698986209929,0.19353614747524261,-0.98108971118927,0.0,0.0,0.0,0.0,0.0,0.0,0.0,0.0,0.0,-22.318178176879883,-0.15224581956863403,-0.25644102692604065,0.0,0.0,0.0,0.0,0.0,0.0,0.0,0.0,0.0,-0.014573125168681145,0.0034083230420947075,0.04068487137556076,0.0,0.0,0.0,0.0,0.0,0.0,0.0,0.0,0.0
1606987740274394290,1435122,1606984139368189277,imu_link,0.002452684100717306,0.0008703698986209929,0.19353614747524261,-0.98108971118927,0.0,0.0,0.0,0.0,0.0,0.0,0.0,0.0,0.0,-22.318178176879883,-0.15224581956863403,-0.25644102692604065,0.0,0.0,0.0,0.0,0.0,0.0,0.0,0.0,0.0,-0.014573125168681145,0.0034083230420947075,0.04068487137556076,0.0,0.0,0.0,0.0,0.0,0.0,0.0,0.0,0.0
1606987740327908706,1435123,1606984139368271302,imu_link,0.00245215673930943,0.0008709379471838474,0.19353072345256805,-0.981090784072876,0.0,0.0,0.0,0.0,0.0,0.0,0.0,0.0,0.0,-22.31754493713379,-0.15229657292366028,-0.256369948387146,0.0,0.0,0.0,0.0,0.0,0.0,0.0,0.0,0.0,-0.0041021439246833324,-0.0036286853719502687,0.04270746186375618,0.0,0.0,0.0,0.0,0.0,0.0,0.0,0.0,0.0
1606987740327940002,1435124,1606984139368350154,imu_link,0.00245215673930943,0.0008709379471838474,0.19353072345256805,-0.981090784072876,0.0,0.0,0.0,0.0,0.0,0.0,0.0,0.0,0.0,-22.31754493713379,-0.15229657292366028,-0.256369948387146,0.0,0.0,0.0,0.0,0.0,0.0,0.0,0.0,0.0,-0.0041021439246833324,-0.0036286853719502687,0.04270746186375618,0.0,0.0,0.0,0.0,0.0,0.0,0.0,0.0,0.0
1606987740327961618,1435125,1606984139368429322,imu_link,0.0024528889916837215,0.0008713001734577119,0.19353145360946655,-0.9810906052589417,0.0,0.0,0.0,0.0,0.0,0.0,0.0,0.0,0.0,-22.317630767822266,-0.15235371887683868,-0.25644421577453613,0.0,0.0,0.0,0.0,0.0,0.0,0.0,0.0,0.0,0.011957678943872452,-0.004626969341188669,0.04690609872341156,0.0,0.0,0.0,0.0,0.0,0.0,0.0,0.0,0.0
1606987740328037424,1435126,1606984139380463102,imu_link,0.0024528889916837215,0.0008713001734577119,0.19353145360946655,-0.9810906052589417,0.0,0.0,0.0,0.0,0.0,0.0,0.0,0.0,0.0,-22.317630767822266,-0.15235371887683868,-0.25644421577453613,0.0,0.0,0.0,0.0,0.0,0.0,0.0,0.0,0.0,0.011957678943872452,-0.004626969341188669,0.04690609872341156,0.0,0.0,0.0,0.0,0.0,0.0,0.0,0.0,0.0
1606987740328046833,1435127,1606984139380602379,imu_link,0.0024524566251784563,0.0008692856645211577,0.19352956116199493,-0.9810910224914551,0.0,0.0,0.0,0.0,0.0,0.0,0.0,0.0,0.0,-22.31740951538086,-0.15211716294288635,-0.25644052028656006,0.0,0.0,0.0,0.0,0.0,0.0,0.0,0.0,0.0,0.03248634934425354,0.00691176624968648,0.0396304726600647,0.0,0.0,0.0,0.0,0.0,0.0,0.0,0.0,0.0
1606987740331196271,1435128,1606984139380793657,imu_link,0.0024524566251784563,0.0008692856645211577,0.19352956116199493,-0.9810910224914551,0.0,0.0,0.0,0.0,0.0,0.0,0.0,0.0,0.0,-22.31740951538086,-0.15211716294288635,-0.25644052028656006,0.0,0.0,0.0,0.0,0.0,0.0,0.0,0.0,0.0,0.03248634934425354,0.00691176624968648,0.0396304726600647,0.0,0.0,0.0,0.0,0.0,0.0,0.0,0.0,0.0
1606987740331205891,1435129,1606984139380892320,imu_link,0.0024499434512108564,0.0008683573105372488,0.19352850317955017,-0.9810912609100342,0.0,0.0,0.0,0.0,0.0,0.0,0.0,0.0,0.0,-22.317285537719727,-0.15195676684379578,-0.25617873668670654,0.0,0.0,0.0,0.0,0.0,0.0,0.0,0.0,0.0,0.03129549324512482,0.013670611195266247,0.03698500618338585,0.0,0.0,0.0,0.0,0.0,0.0,0.0,0.0,0.0
1606987740331224340,1435130,1606984139380980244,imu_link,0.0024499434512108564,0.0008683573105372488,0.19352850317955017,-0.9810912609100342,0.0,0.0,0.0,0.0,0.0,0.0,0.0,0.0,0.0,-22.317285537719727,-0.15195676684379578,-0.25617873668670654,0.0,0.0,0.0,0.0,0.0,0.0,0.0,0.0,0.0,0.03129549324512482,0.013670611195266247,0.03698500618338585,0.0,0.0,0.0,0.0,0.0,0.0,0.0,0.0,0.0
1606987740331235869,1435131,1606984139381084164,imu_link,0.0024495795369148254,0.0008649497176520526,0.1935279816389084,-0.9810913801193237,0.0,0.0,0.0,0.0,0.0,0.0,0.0,0.0,0.0,-22.317224502563477,-0.15156547725200653,-0.2562134861946106,0.0,0.0,0.0,0.0,0.0,0.0,0.0,0.0,0.0,0.015527931042015553,0.00532787898555398,0.056141577661037445,0.0,0.0,0.0,0.0,0.0,0.0,0.0,0.0,0.0
1606987740334369617,1435132,1606984139381168775,imu_link,0.0024495795369148254,0.0008649497176520526,0.1935279816389084,-0.9810913801193237,0.0,0.0,0.0,0.0,0.0,0.0,0.0,0.0,0.0,-22.317224502563477,-0.15156547725200653,-0.2562134861946106,0.0,0.0,0.0,0.0,0.0,0.0,0.0,0.0,0.0,0.015527931042015553,0.00532787898555398,0.056141577661037445,0.0,0.0,0.0,0.0,0.0,0.0,0.0,0.0,0.0
1606987740334382593,1435133,1606984139381249106,imu_link,0.0024502675514668226,0.0008649605442769825,0.19352661073207855,-0.9810916185379028,0.0,0.0,0.0,0.0,0.0,0.0,0.0,0.0,0.0,-22.317066192626953,-0.15158158540725708,-0.2562907934188843,0.0,0.0,0.0,0.0,0.0,0.0,0.0,0.0,0.0,0.013166074641048908,-0.0009490841184742749,0.05356958881020546,0.0,0.0,0.0,0.0,0.0,0.0,0.0,0.0,0.0
1606987740334391756,1435134,1606984139381330379,imu_link,0.0024502675514668226,0.0008649605442769825,0.19352661073207855,-0.9810916185379028,0.0,0.0,0.0,0.0,0.0,0.0,0.0,0.0,0.0,-22.317066192626953,-0.15158158540725708,-0.2562907934188843,0.0,0.0,0.0,0.0,0.0,0.0,0.0,0.0,0.0,0.013166074641048908,-0.0009490841184742749,0.05356958881020546,0.0,0.0,0.0,0.0,0.0,0.0,0.0,0.0,0.0
1606987740334400073,1435135,1606984139381412499,imu_link,0.002449452644214034,0.0008640576852485538,0.19352613389492035,-0.9810916781425476,0.0,0.0,0.0,0.0,0.0,0.0,0.0,0.0,0.0,-22.3170108795166,-0.1514618843793869,-0.2562192678451538,0.0,0.0,0.0,0.0,0.0,0.0,0.0,0.0,0.0,-0.010963136330246925,-0.008939574472606182,0.03579709678888321,0.0,0.0,0.0,0.0,0.0,0.0,0.0,0.0,0.0
1606987740334407823,1435136,1606984139394201732,imu_link,0.002449452644214034,0.0008640576852485538,0.19352613389492035,-0.9810916781425476,0.0,0.0,0.0,0.0,0.0,0.0,0.0,0.0,0.0,-22.3170108795166,-0.1514618843793869,-0.2562192678451538,0.0,0.0,0.0,0.0,0.0,0.0,0.0,0.0,0.0,-0.010963136330246925,-0.008939574472606182,0.03579709678888321,0.0,0.0,0.0,0.0,0.0,0.0,0.0,0.0,0.0
1606987740379727486,1435137,1606984139394341601,imu_link,0.002451893873512745,0.000864442263264209,0.19352658092975616,-0.9810916185379028,0.0,0.0,0.0,0.0,0.0,0.0,0.0,0.0,0.0,-22.317062377929688,-0.15155939757823944,-0.25648513436317444,0.0,0.0,0.0,0.0,0.0,0.0,0.0,0.0,0.0,-0.016496669501066208,-0.009365049190819263,0.03397586941719055,0.0,0.0,0.0,0.0,0.0,0.0,0.0,0.0,0.0
1606987740379743219,1435138,1606984139394512161,imu_link,0.002451893873512745,0.000864442263264209,0.19352658092975616,-0.9810916185379028,0.0,0.0,0.0,0.0,0.0,0.0,0.0,0.0,0.0,-22.317062377929688,-0.15155939757823944,-0.25648513436317444,0.0,0.0,0.0,0.0,0.0,0.0,0.0,0.0,0.0,-0.016496669501066208,-0.009365049190819263,0.03397586941719055,0.0,0.0,0.0,0.0,0.0,0.0,0.0,0.0,0.0
1606987740379755535,1435139,1606984139394609536,imu_link,0.002451926004141569,0.0008676962461322546,0.19352738559246063,-0.9810914397239685,0.0,0.0,0.0,0.0,0.0,0.0,0.0,0.0,0.0,-22.317157745361328,-0.15192613005638123,-0.2564164698123932,0.0,0.0,0.0,0.0,0.0,0.0,0.0,0.0,0.0,-0.003318794770166278,-0.0007857786840759218,0.039551831781864166,0.0,0.0,0.0,0.0,0.0,0.0,0.0,0.0,0.0
1606987740379761334,1435140,1606984139394762841,imu_link,0.002451926004141569,0.0008676962461322546,0.19352738559246063,-0.9810914397239685,0.0,0.0,0.0,0.0,0.0,0.0,0.0,0.0,0.0,-22.317157745361328,-0.15192613005638123,-0.2564164698123932,0.0,0.0,0.0,0.0,0.0,0.0,0.0,0.0,0.0,-0.003318794770166278,-0.0007857786840759218,0.039551831781864166,0.0,0.0,0.0,0.0,0.0,0.0,0.0,0.0,0.0
1606987740386327611,1435141,1606984139394847642,imu_link,0.002450056141242385,0.0008680452010594308,0.19352509081363678,-0.9810919165611267,0.0,0.0,0.0,0.0,0.0,0.0,0.0,0.0,0.0,-22.31688690185547,-0.1519232988357544,-0.25619885325431824,0.0,0.0,0.0,0.0,0.0,0.0,0.0,0.0,0.0,0.0066054705530405045,0.0056257182732224464,0.0318426750600338,0.0,0.0,0.0,0.0,0.0,0.0,0.0,0.0,0.0
1606987740386342345,1435142,1606984139394980109,imu_link,0.002450056141242385,0.0008680452010594308,0.19352509081363678,-0.9810919165611267,0.0,0.0,0.0,0.0,0.0,0.0,0.0,0.0,0.0,-22.31688690185547,-0.1519232988357544,-0.25619885325431824,0.0,0.0,0.0,0.0,0.0,0.0,0.0,0.0,0.0,0.0066054705530405045,0.0056257182732224464,0.0318426750600338,0.0,0.0,0.0,0.0,0.0,0.0,0.0,0.0,0.0
1606987740386358108,1435143,1606984139395065406,imu_link,0.002451538573950529,0.0008683465421199799,0.19352787733078003,-0.9810913801193237,0.0,0.0,0.0,0.0,0.0,0.0,0.0,0.0,0.0,-22.317214965820312,-0.15199078619480133,-0.25635841488838196,0.0,0.0,0.0,0.0,0.0,0.0,0.0,0.0,0.0,0.011162828654050827,0.020229397341609,0.02458115480840206,0.0,0.0,0.0,0.0,0.0,0.0,0.0,0.0,0.0
1606987740386374044,1435144,1606984139395146739,imu_link,0.002451538573950529,0.0008683465421199799,0.19352787733078003,-0.9810913801193237,0.0,0.0,0.0,0.0,0.0,0.0,0.0,0.0,0.0,-22.317214965820312,-0.15199078619480133,-0.25635841488838196,0.0,0.0,0.0,0.0,0.0,0.0,0.0,0.0,0.0,0.011162828654050827,0.020229397341609,0.02458115480840206,0.0,0.0,0.0,0.0,0.0,0.0,0.0,0.0,0.0
1606987740386378584,1435145,1606984139395225381,imu_link,0.002451618667691946,0.0008677445002831519,0.19352757930755615,-0.9810914397239685,0.0,0.0,0.0,0.0,0.0,0.0,0.0,0.0,0.0,-22.31717872619629,-0.15192480385303497,-0.2563807964324951,0.0,0.0,0.0,0.0,0.0,0.0,0.0,0.0,0.0,-0.0011957314563915133,0.017705095931887627,0.03555193543434143,0.0,0.0,0.0,0.0,0.0,0.0,0.0,0.0,0.0
1606987740440193796,1435146,1606984139395313586,imu_link,0.002451618667691946,0.0008677445002831519,0.19352757930755615,-0.9810914397239685,0.0,0.0,0.0,0.0,0.0,0.0,0.0,0.0,0.0,-22.31717872619629,-0.15192480385303497,-0.2563807964324951,0.0,0.0,0.0,0.0,0.0,0.0,0.0,0.0,0.0,-0.0011957314563915133,0.017705095931887627,0.03555193543434143,0.0,0.0,0.0,0.0,0.0,0.0,0.0,0.0,0.0
1606987740440226566,1435147,1606984139407562739,imu_link,0.0024527658242732286,0.0008664077613502741,0.19353395700454712,-0.9810901880264282,0.0,0.0,0.0,0.0,0.0,0.0,0.0,0.0,0.0,-22.317922592163086,-0.15180163085460663,-0.256538450717926,0.0,0.0,0.0,0.0,0.0,0.0,0.0,0.0,0.0,-6.675822078250349e-05,-0.005006955470889807,0.05032958835363388,0.0,0.0,0.0,0.0,0.0,0.0,0.0,0.0,0.0
1606987740440245169,1435148,1606984139407701074,imu_link,0.0024527658242732286,0.0008664077613502741,0.19353395700454712,-0.9810901880264282,0.0,0.0,0.0,0.0,0.0,0.0,0.0,0.0,0.0,-22.317922592163086,-0.15180163085460663,-0.256538450717926,0.0,0.0,0.0,0.0,0.0,0.0,0.0,0.0,0.0,-6.675822078250349e-05,-0.005006955470889807,0.05032958835363388,0.0,0.0,0.0,0.0,0.0,0.0,0.0,0.0,0.0
1606987740440260065,1435149,1606984139407856534,imu_link,0.0024511341471225023,0.0008659549639560282,0.19353416562080383,-0.9810901284217834,0.0,0.0,0.0,0.0,0.0,0.0,0.0,0.0,0.0,-22.317949295043945,-0.15171457827091217,-0.25636500120162964,0.0,0.0,0.0,0.0,0.0,0.0,0.0,0.0,0.0,0.007523926440626383,-0.0007650598417967558,0.054085053503513336,0.0,0.0,0.0,0.0,0.0,0.0,0.0,0.0,0.0
1606987740457414052,1435150,1606984139407952536,imu_link,0.0024511341471225023,0.0008659549639560282,0.19353416562080383,-0.9810901284217834,0.0,0.0,0.0,0.0,0.0,0.0,0.0,0.0,0.0,-22.317949295043945,-0.15171457827091217,-0.25636500120162964,0.0,0.0,0.0,0.0,0.0,0.0,0.0,0.0,0.0,0.007523926440626383,-0.0007650598417967558,0.054085053503513336,0.0,0.0,0.0,0.0,0.0,0.0,0.0,0.0,0.0
1606987740457437354,1435151,1606984139408040765,imu_link,0.0024483304005116224,0.0008645447087474167,0.19354049861431122,-0.9810888767242432,0.0,0.0,0.0,0.0,0.0,0.0,0.0,0.0,0.0,-22.318689346313477,-0.15149550139904022,-0.25608009099960327,0.0,0.0,0.0,0.0,0.0,0.0,0.0,0.0,0.0,0.0054253158159554005,0.005649671424180269,0.05067649483680725,0.0,0.0,0.0,0.0,0.0,0.0,0.0,0.0,0.0
1606987740457442898,1435152,1606984139408120981,imu_link,0.0024483304005116224,0.0008645447087474167,0.19354049861431122,-0.9810888767242432,0.0,0.0,0.0,0.0,0.0,0.0,0.0,0.0,0.0,-22.318689346313477,-0.15149550139904022,-0.25608009099960327,0.0,0.0,0.0,0.0,0.0,0.0,0.0,0.0,0.0,0.0054253158159554005,0.005649671424180269,0.05067649483680725,0.0,0.0,0.0,0.0,0.0,0.0,0.0,0.0,0.0
1606987740457455938,1435153,1606984139408225207,imu_link,0.002446887083351612,0.0008662472246214747,0.19353671371936798,-0.9810896515846252,0.0,0.0,0.0,0.0,0.0,0.0,0.0,0.0,0.0,-22.31824493408203,-0.1516539305448532,-0.2558806240558624,0.0,0.0,0.0,0.0,0.0,0.0,0.0,0.0,0.0,0.0016753916861489415,-0.0068983398377895355,0.044662173837423325,0.0,0.0,0.0,0.0,0.0,0.0,0.0,0.0,0.0
1606987740457463953,1435154,1606984139408306470,imu_link,0.002446887083351612,0.0008662472246214747,0.19353671371936798,-0.9810896515846252,0.0,0.0,0.0,0.0,0.0,0.0,0.0,0.0,0.0,-22.31824493408203,-0.1516539305448532,-0.2558806240558624,0.0,0.0,0.0,0.0,0.0,0.0,0.0,0.0,0.0,0.0016753916861489415,-0.0068983398377895355,0.044662173837423325,0.0,0.0,0.0,0.0,0.0,0.0,0.0,0.0,0.0
1606987740464021667,1435155,1606984139408467673,imu_link,0.002445745747536421,0.0008661447209306061,0.19354066252708435,-0.9810888767242432,0.0,0.0,0.0,0.0,0.0,0.0,0.0,0.0,0.0,-22.318706512451172,-0.1516181230545044,-0.2557539641857147,0.0,0.0,0.0,0.0,0.0,0.0,0.0,0.0,0.0,0.0035487073473632336,7.185692084021866e-06,0.03798649460077286,0.0,0.0,0.0,0.0,0.0,0.0,0.0,0.0,0.0
1606987740464049372,1435156,1606984139408553742,imu_link,0.002445745747536421,0.0008661447209306061,0.19354066252708435,-0.9810888767242432,0.0,0.0,0.0,0.0,0.0,0.0,0.0,0.0,0.0,-22.318706512451172,-0.1516181230545044,-0.2557539641857147,0.0,0.0,0.0,0.0,0.0,0.0,0.0,0.0,0.0,0.0035487073473632336,7.185692084021866e-06,0.03798649460077286,0.0,0.0,0.0,0.0,0.0,0.0,0.0,0.0,0.0
1606987740464058847,1435157,1606984139408699750,imu_link,0.0024451406206935644,0.0008655288256704807,0.1935390681028366,-0.981089174747467,0.0,0.0,0.0,0.0,0.0,0.0,0.0,0.0,0.0,-22.31852149963379,-0.1515350341796875,-0.25569984316825867,0.0,0.0,0.0,0.0,0.0,0.0,0.0,0.0,0.0,0.009658759459853172,-0.004100132267922163,0.03683905676007271,0.0,0.0,0.0,0.0,0.0,0.0,0.0,0.0,0.0
1606987740464077637,1435158,1606984139421417608,imu_link,0.0024451406206935644,0.0008655288256704807,0.1935390681028366,-0.981089174747467,0.0,0.0,0.0,0.0,0.0,0.0,0.0,0.0,0.0,-22.31852149963379,-0.1515350341796875,-0.25569984316825867,0.0,0.0,0.0,0.0,0.0,0.0,0.0,0.0,0.0,0.009658759459853172,-0.004100132267922163,0.03683905676007271,0.0,0.0,0.0,0.0,0.0,0.0,0.0,0.0,0.0
1606987740468131799,1435159,1606984139421558239,imu_link,0.002443499630317092,0.0008666734793223441,0.19354113936424255,-0.9810887575149536,0.0,0.0,0.0,0.0,0.0,0.0,0.0,0.0,0.0,-22.318763732910156,-0.15162786841392517,-0.25548967719078064,0.0,0.0,0.0,0.0,0.0,0.0,0.0,0.0,0.0,0.0018552674446254969,-0.010016381740570068,0.05747588351368904,0.0,0.0,0.0,0.0,0.0,0.0,0.0,0.0,0.0
1606987740468164041,1435160,1606984139421716801,imu_link,0.002443499630317092,0.0008666734793223441,0.19354113936424255,-0.9810887575149536,0.0,0.0,0.0,0.0,0.0,0.0,0.0,0.0,0.0,-22.318763732910156,-0.15162786841392517,-0.25548967719078064,0.0,0.0,0.0,0.0,0.0,0.0,0.0,0.0,0.0,0.0018552674446254969,-0.010016381740570068,0.05747588351368904,0.0,0.0,0.0,0.0,0.0,0.0,0.0,0.0,0.0
1606987740468184165,1435161,1606984139421817353,imu_link,0.0024442593567073345,0.0008687043446116149,0.19353997707366943,-0.9810889959335327,0.0,0.0,0.0,0.0,0.0,0.0,0.0,0.0,0.0,-22.31862449645996,-0.15187272429466248,-0.2555302083492279,0.0,0.0,0.0,0.0,0.0,0.0,0.0,0.0,0.0,0.00219593639485538,-0.00794029701501131,0.09344204515218735,0.0,0.0,0.0,0.0,0.0,0.0,0.0,0.0,0.0
1606987740468242996,1435162,1606984139421909071,imu_link,0.0024442593567073345,0.0008687043446116149,0.19353997707366943,-0.9810889959335327,0.0,0.0,0.0,0.0,0.0,0.0,0.0,0.0,0.0,-22.31862449645996,-0.15187272429466248,-0.2555302083492279,0.0,0.0,0.0,0.0,0.0,0.0,0.0,0.0,0.0,0.00219593639485538,-0.00794029701501131,0.09344204515218735,0.0,0.0,0.0,0.0,0.0,0.0,0.0,0.0,0.0
1606987740468278986,1435163,1606984139421999595,imu_link,0.0024427827447652817,0.0008696704753674567,0.19354258477687836,-0.9810884594917297,0.0,0.0,0.0,0.0,0.0,0.0,0.0,0.0,0.0,-22.318931579589844,-0.15194927155971527,-0.25534239411354065,0.0,0.0,0.0,0.0,0.0,0.0,0.0,0.0,0.0,0.003799312049522996,-0.015484032221138477,0.10673768818378448,0.0,0.0,0.0,0.0,0.0,0.0,0.0,0.0,0.0
1606987740492832758,1435164,1606984139422115754,imu_link,0.0024427827447652817,0.0008696704753674567,0.19354258477687836,-0.9810884594917297,0.0,0.0,0.0,0.0,0.0,0.0,0.0,0.0,0.0,-22.318931579589844,-0.15194927155971527,-0.25534239411354065,0.0,0.0,0.0,0.0,0.0,0.0,0.0,0.0,0.0,0.003799312049522996,-0.015484032221138477,0.10673768818378448,0.0,0.0,0.0,0.0,0.0,0.0,0.0,0.0,0.0
1606987740492846508,1435165,1606984139422201021,imu_link,0.002444022335112095,0.0008675068966113031,0.19354183971881866,-0.9810886383056641,0.0,0.0,0.0,0.0,0.0,0.0,0.0,0.0,0.0,-22.318843841552734,-0.15173333883285522,-0.25552988052368164,0.0,0.0,0.0,0.0,0.0,0.0,0.0,0.0,0.0,-0.010757462121546268,-0.010113737545907497,0.06955105066299438,0.0,0.0,0.0,0.0,0.0,0.0,0.0,0.0,0.0
1606987740492854693,1435166,1606984139422367361,imu_link,0.002444022335112095,0.0008675068966113031,0.19354183971881866,-0.9810886383056641,0.0,0.0,0.0,0.0,0.0,0.0,0.0,0.0,0.0,-22.318843841552734,-0.15173333883285522,-0.25552988052368164,0.0,0.0,0.0,0.0,0.0,0.0,0.0,0.0,0.0,-0.010757462121546268,-0.010113737545907497,0.06955105066299438,0.0,0.0,0.0,0.0,0.0,0.0,0.0,0.0,0.0
1606987740492860029,1435167,1606984139422450208,imu_link,0.002443804172798991,0.0008662702748551965,0.19354470074176788,-0.9810881018638611,0.0,0.0,0.0,0.0,0.0,0.0,0.0,0.0,0.0,-22.31917953491211,-0.1515902280807495,-0.25553226470947266,0.0,0.0,0.0,0.0,0.0,0.0,0.0,0.0,0.0,-0.006662325002253056,-0.010857990011572838,0.03546258062124252,0.0,0.0,0.0,0.0,0.0,0.0,0.0,0.0,0.0
1606987740501554513,1435168,1606984139422528925,imu_link,0.002443804172798991,0.0008662702748551965,0.19354470074176788,-0.9810881018638611,0.0,0.0,0.0,0.0,0.0,0.0,0.0,0.0,0.0,-22.31917953491211,-0.1515902280807495,-0.25553226470947266,0.0,0.0,0.0,0.0,0.0,0.0,0.0,0.0,0.0,-0.006662325002253056,-0.010857990011572838,0.03546258062124252,0.0,0.0,0.0,0.0,0.0,0.0,0.0,0.0,0.0
1606987740501571746,1435169,1606984139435003269,imu_link,0.0024442491121590137,0.0008658315637148917,0.19354459643363953,-0.9810881018638611,0.0,0.0,0.0,0.0,0.0,0.0,0.0,0.0,0.0,-22.319164276123047,-0.15155074000358582,-0.2555920481681824,0.0,0.0,0.0,0.0,0.0,0.0,0.0,0.0,0.0,-0.0037847249768674374,-0.019431861117482185,0.04063146561384201,0.0,0.0,0.0,0.0,0.0,0.0,0.0,0.0,0.0
1606987740501578282,1435170,1606984139435144837,imu_link,0.0024442491121590137,0.0008658315637148917,0.19354459643363953,-0.9810881018638611,0.0,0.0,0.0,0.0,0.0,0.0,0.0,0.0,0.0,-22.319164276123047,-0.15155074000358582,-0.2555920481681824,0.0,0.0,0.0,0.0,0.0,0.0,0.0,0.0,0.0,-0.0037847249768674374,-0.019431861117482185,0.04063146561384201,0.0,0.0,0.0,0.0,0.0,0.0,0.0,0.0,0.0
1606987740501586388,1435171,1606984139435342084,imu_link,0.0024415075313299894,0.0008665251662023365,0.19354601204395294,-0.9810878038406372,0.0,0.0,0.0,0.0,0.0,0.0,0.0,0.0,0.0,-22.319332122802734,-0.15156827867031097,-0.25526824593544006,0.0,0.0,0.0,0.0,0.0,0.0,0.0,0.0,0.0,0.002909021684899926,-0.01696779578924179,0.03719061613082886,0.0,0.0,0.0,0.0,0.0,0.0,0.0,0.0,0.0
1606987740510770405,1435172,1606984139435434903,imu_link,0.0024415075313299894,0.0008665251662023365,0.19354601204395294,-0.9810878038406372,0.0,0.0,0.0,0.0,0.0,0.0,0.0,0.0,0.0,-22.319332122802734,-0.15156827867031097,-0.25526824593544006,0.0,0.0,0.0,0.0,0.0,0.0,0.0,0.0,0.0,0.002909021684899926,-0.01696779578924179,0.03719061613082886,0.0,0.0,0.0,0.0,0.0,0.0,0.0,0.0,0.0
1606987740510804408,1435173,1606984139435597289,imu_link,0.002442068886011839,0.000862414191942662,0.19354665279388428,-0.9810876846313477,0.0,0.0,0.0,0.0,0.0,0.0,0.0,0.0,0.0,-22.319408416748047,-0.15111872553825378,-0.255422443151474,0.0,0.0,0.0,0.0,0.0,0.0,0.0,0.0,0.0,0.011704451404511929,-0.011258917860686779,0.04545082524418831,0.0,0.0,0.0,0.0,0.0,0.0,0.0,0.0,0.0
1606987740510819619,1435174,1606984139435704853,imu_link,0.002442068886011839,0.000862414191942662,0.19354665279388428,-0.9810876846313477,0.0,0.0,0.0,0.0,0.0,0.0,0.0,0.0,0.0,-22.319408416748047,-0.15111872553825378,-0.255422443151474,0.0,0.0,0.0,0.0,0.0,0.0,0.0,0.0,0.0,0.011704451404511929,-0.011258917860686779,0.04545082524418831,0.0,0.0,0.0,0.0,0.0,0.0,0.0,0.0,0.0
1606987740510840357,1435175,1606984139435788151,imu_link,0.0024387796875089407,0.0008597337291575968,0.193545401096344,-0.9810879230499268,0.0,0.0,0.0,0.0,0.0,0.0,0.0,0.0,0.0,-22.31926155090332,-0.15074409544467926,-0.25511229038238525,0.0,0.0,0.0,0.0,0.0,0.0,0.0,0.0,0.0,0.011288028210401535,0.0017807267140597105,0.04303720220923424,0.0,0.0,0.0,0.0,0.0,0.0,0.0,0.0,0.0
1606987740510864921,1435176,1606984139435866988,imu_link,0.0024387796875089407,0.0008597337291575968,0.193545401096344,-0.9810879230499268,0.0,0.0,0.0,0.0,0.0,0.0,0.0,0.0,0.0,-22.31926155090332,-0.15074409544467926,-0.25511229038238525,0.0,0.0,0.0,0.0,0.0,0.0,0.0,0.0,0.0,0.011288028210401535,0.0017807267140597105,0.04303720220923424,0.0,0.0,0.0,0.0,0.0,0.0,0.0,0.0,0.0
1606987740514904234,1435177,1606984139435946081,imu_link,0.002440492855384946,0.0008604774484410882,0.19354350864887238,-0.9810882806777954,0.0,0.0,0.0,0.0,0.0,0.0,0.0,0.0,0.0,-22.319040298461914,-0.15086521208286285,-0.255288690328598,0.0,0.0,0.0,0.0,0.0,0.0,0.0,0.0,0.0,0.01280855480581522,-0.002341457409784198,0.02328016608953476,0.0,0.0,0.0,0.0,0.0,0.0,0.0,0.0,0.0
1606987740514932842,1435178,1606984139436029760,imu_link,0.002440492855384946,0.0008604774484410882,0.19354350864887238,-0.9810882806777954,0.0,0.0,0.0,0.0,0.0,0.0,0.0,0.0,0.0,-22.319040298461914,-0.15086521208286285,-0.255288690328598,0.0,0.0,0.0,0.0,0.0,0.0,0.0,0.0,0.0,0.01280855480581522,-0.002341457409784198,0.02328016608953476,0.0,0.0,0.0,0.0,0.0,0.0,0.0,0.0,0.0
1606987740514957492,1435179,1606984139436112797,imu_link,0.0024405086878687143,0.0008577490807510912,0.19354984164237976,-0.9810870289802551,0.0,0.0,0.0,0.0,0.0,0.0,0.0,0.0,0.0,-22.319782257080078,-0.15056048333644867,-0.2553500235080719,0.0,0.0,0.0,0.0,0.0,0.0,0.0,0.0,0.0,-0.003480541054159403,-0.016199933364987373,0.022849278524518013,0.0,0.0,0.0,0.0,0.0,0.0,0.0,0.0,0.0
1606987740514970620,1435180,1606984139447678409,imu_link,0.0024405086878687143,0.0008577490807510912,0.19354984164237976,-0.9810870289802551,0.0,0.0,0.0,0.0,0.0,0.0,0.0,0.0,0.0,-22.319782257080078,-0.15056048333644867,-0.2553500235080719,0.0,0.0,0.0,0.0,0.0,0.0,0.0,0.0,0.0,-0.003480541054159403,-0.016199933364987373,0.022849278524518013,0.0,0.0,0.0,0.0,0.0,0.0,0.0,0.0,0.0
1606987740578085217,1435181,1606984139447790102,imu_link,0.002438101451843977,0.0008587055490352213,0.19354870915412903,-0.9810872673988342,0.0,0.0,0.0,0.0,0.0,0.0,0.0,0.0,0.0,-22.319652557373047,-0.15061432123184204,-0.2550583481788635,0.0,0.0,0.0,0.0,0.0,0.0,0.0,0.0,0.0,-0.01967744715511799,-0.010643398389220238,0.027069032192230225,0.0,0.0,0.0,0.0,0.0,0.0,0.0,0.0,0.0
1606987740578102143,1435182,1606984139447876442,imu_link,0.002438101451843977,0.0008587055490352213,0.19354870915412903,-0.9810872673988342,0.0,0.0,0.0,0.0,0.0,0.0,0.0,0.0,0.0,-22.319652557373047,-0.15061432123184204,-0.2550583481788635,0.0,0.0,0.0,0.0,0.0,0.0,0.0,0.0,0.0,-0.01967744715511799,-0.010643398389220238,0.027069032192230225,0.0,0.0,0.0,0.0,0.0,0.0,0.0,0.0,0.0
1606987740578112002,1435183,1606984139447959735,imu_link,0.0024375831708312035,0.0008603699970990419,0.19355088472366333,-0.9810868501663208,0.0,0.0,0.0,0.0,0.0,0.0,0.0,0.0,0.0,-22.319902420043945,-0.1507905125617981,-0.25496283173561096,0.0,0.0,0.0,0.0,0.0,0.0,0.0,0.0,0.0,-0.01286389958113432,0.007872601971030235,0.031733207404613495,0.0,0.0,0.0,0.0,0.0,0.0,0.0,0.0,0.0
1606987740578118565,1435184,1606984139448039439,imu_link,0.0024375831708312035,0.0008603699970990419,0.19355088472366333,-0.9810868501663208,0.0,0.0,0.0,0.0,0.0,0.0,0.0,0.0,0.0,-22.319902420043945,-0.1507905125617981,-0.25496283173561096,0.0,0.0,0.0,0.0,0.0,0.0,0.0,0.0,0.0,-0.01286389958113432,0.007872601971030235,0.031733207404613495,0.0,0.0,0.0,0.0,0.0,0.0,0.0,0.0,0.0
1606987740578127074,1435185,1606984139448135582,imu_link,0.0024375813081860542,0.0008581904112361372,0.19355039298534393,-0.9810869693756104,0.0,0.0,0.0,0.0,0.0,0.0,0.0,0.0,0.0,-22.319847106933594,-0.15054531395435333,-0.25501102209091187,0.0,0.0,0.0,0.0,0.0,0.0,0.0,0.0,0.0,0.0030217801686376333,0.009754461236298084,0.011063913814723492,0.0,0.0,0.0,0.0,0.0,0.0,0.0,0.0,0.0
1606987740587389738,1435186,1606984139448223239,imu_link,0.0024375813081860542,0.0008581904112361372,0.19355039298534393,-0.9810869693756104,0.0,0.0,0.0,0.0,0.0,0.0,0.0,0.0,0.0,-22.319847106933594,-0.15054531395435333,-0.25501102209091187,0.0,0.0,0.0,0.0,0.0,0.0,0.0,0.0,0.0,0.0030217801686376333,0.009754461236298084,0.011063913814723492,0.0,0.0,0.0,0.0,0.0,0.0,0.0,0.0,0.0
1606987740587405102,1435187,1606984139448317432,imu_link,0.002438066992908716,0.0008599296561442316,0.19354860484600067,-0.981087327003479,0.0,0.0,0.0,0.0,0.0,0.0,0.0,0.0,0.0,-22.31963539123535,-0.15075115859508514,-0.25502729415893555,0.0,0.0,0.0,0.0,0.0,0.0,0.0,0.0,0.0,0.010083670727908611,-0.01397075317800045,0.007148814853280783,0.0,0.0,0.0,0.0,0.0,0.0,0.0,0.0,0.0
1606987740587415610,1435188,1606984139448406950,imu_link,0.002438066992908716,0.0008599296561442316,0.19354860484600067,-0.981087327003479,0.0,0.0,0.0,0.0,0.0,0.0,0.0,0.0,0.0,-22.31963539123535,-0.15075115859508514,-0.25502729415893555,0.0,0.0,0.0,0.0,0.0,0.0,0.0,0.0,0.0,0.010083670727908611,-0.01397075317800045,0.007148814853280783,0.0,0.0,0.0,0.0,0.0,0.0,0.0,0.0,0.0
1606987740587421377,1435189,1606984139448491360,imu_link,0.002436823444440961,0.0008593645761720836,0.19354544579982758,-0.9810879230499268,0.0,0.0,0.0,0.0,0.0,0.0,0.0,0.0,0.0,-22.31926727294922,-0.1506592184305191,-0.2549005448818207,0.0,0.0,0.0,0.0,0.0,0.0,0.0,0.0,0.0,0.007739272899925709,-0.013106010854244232,0.04621140658855438,0.0,0.0,0.0,0.0,0.0,0.0,0.0,0.0,0.0
1606987740602192727,1435190,1606984139461531484,imu_link,0.002436823444440961,0.0008593645761720836,0.19354544579982758,-0.9810879230499268,0.0,0.0,0.0,0.0,0.0,0.0,0.0,0.0,0.0,-22.31926727294922,-0.1506592184305191,-0.2549005448818207,0.0,0.0,0.0,0.0,0.0,0.0,0.0,0.0,0.0,0.007739272899925709,-0.013106010854244232,0.04621140658855438,0.0,0.0,0.0,0.0,0.0,0.0,0.0,0.0,0.0
1606987740602223869,1435191,1606984139461665765,imu_link,0.002434830879792571,0.0008570134523324668,0.19354411959648132,-0.9810882210731506,0.0,0.0,0.0,0.0,0.0,0.0,0.0,0.0,0.0,-22.319114685058594,-0.15035037696361542,-0.25472888350486755,0.0,0.0,0.0,0.0,0.0,0.0,0.0,0.0,0.0,0.0223914235830307,0.013620622456073761,0.04971559718251228,0.0,0.0,0.0,0.0,0.0,0.0,0.0,0.0,0.0
1606987740602231553,1435192,1606984139461865507,imu_link,0.002434830879792571,0.0008570134523324668,0.19354411959648132,-0.9810882210731506,0.0,0.0,0.0,0.0,0.0,0.0,0.0,0.0,0.0,-22.319114685058594,-0.15035037696361542,-0.25472888350486755,0.0,0.0,0.0,0.0,0.0,0.0,0.0,0.0,0.0,0.0223914235830307,0.013620622456073761,0.04971559718251228,0.0,0.0,0.0,0.0,0.0,0.0,0.0,0.0,0.0
1606987740602253032,1435193,1606984139461967272,imu_link,0.0024358793161809444,0.0008585412870161235,0.1935441493988037,-0.9810882210731506,0.0,0.0,0.0,0.0,0.0,0.0,0.0,0.0,0.0,-22.31911849975586,-0.1505453884601593,-0.2548128664493561,0.0,0.0,0.0,0.0,0.0,0.0,0.0,0.0,0.0,0.024829788133502007,0.01721150055527687,0.03848590329289436,0.0,0.0,0.0,0.0,0.0,0.0,0.0,0.0,0.0
1606987740602270017,1435194,1606984139462098737,imu_link,0.0024358793161809444,0.0008585412870161235,0.1935441493988037,-0.9810882210731506,0.0,0.0,0.0,0.0,0.0,0.0,0.0,0.0,0.0,-22.31911849975586,-0.1505453884601593,-0.2548128664493561,0.0,0.0,0.0,0.0,0.0,0.0,0.0,0.0,0.0,0.024829788133502007,0.01721150055527687,0.03848590329289436,0.0,0.0,0.0,0.0,0.0,0.0,0.0,0.0,0.0
1606987740606077047,1435195,1606984139462185472,imu_link,0.002438053023070097,0.000856192666105926,0.19353877007961273,-0.9810892939567566,0.0,0.0,0.0,0.0,0.0,0.0,0.0,0.0,0.0,-22.31848907470703,-0.1503281593322754,-0.25511014461517334,0.0,0.0,0.0,0.0,0.0,0.0,0.0,0.0,0.0,0.007170728873461485,-0.003317121881991625,0.05066728591918945,0.0,0.0,0.0,0.0,0.0,0.0,0.0,0.0,0.0
1606987740606097590,1435196,1606984139462292179,imu_link,0.002438053023070097,0.000856192666105926,0.19353877007961273,-0.9810892939567566,0.0,0.0,0.0,0.0,0.0,0.0,0.0,0.0,0.0,-22.31848907470703,-0.1503281593322754,-0.25511014461517334,0.0,0.0,0.0,0.0,0.0,0.0,0.0,0.0,0.0,0.007170728873461485,-0.003317121881991625,0.05066728591918945,0.0,0.0,0.0,0.0,0.0,0.0,0.0,0.0,0.0
1606987740606105172,1435197,1606984139462375211,imu_link,0.002438218565657735,0.0008558748522773385,0.19353672862052917,-0.9810895919799805,0.0,0.0,0.0,0.0,0.0,0.0,0.0,0.0,0.0,-22.31825065612793,-0.15029557049274445,-0.2551361322402954,0.0,0.0,0.0,0.0,0.0,0.0,0.0,0.0,0.0,0.0028845863416790962,-0.0035317486617714167,0.036604009568691254,0.0,0.0,0.0,0.0,0.0,0.0,0.0,0.0,0.0
1606987740606112996,1435198,1606984139462455482,imu_link,0.002438218565657735,0.0008558748522773385,0.19353672862052917,-0.9810895919799805,0.0,0.0,0.0,0.0,0.0,0.0,0.0,0.0,0.0,-22.31825065612793,-0.15029557049274445,-0.2551361322402954,0.0,0.0,0.0,0.0,0.0,0.0,0.0,0.0,0.0,0.0028845863416790962,-0.0035317486617714167,0.036604009568691254,0.0,0.0,0.0,0.0,0.0,0.0,0.0,0.0,0.0
1606987740642566657,1435199,1606984139462535838,imu_link,0.0024384160060435534,0.0008542798459529877,0.1935315877199173,-0.9810906648635864,0.0,0.0,0.0,0.0,0.0,0.0,0.0,0.0,0.0,-22.317649841308594,-0.15011928975582123,-0.2551944851875305,0.0,0.0,0.0,0.0,0.0,0.0,0.0,0.0,0.0,-0.01817219890654087,-0.002636825665831566,0.028640760108828545,0.0,0.0,0.0,0.0,0.0,0.0,0.0,0.0,0.0
1606987740642599775,1435200,1606984139462619687,imu_link,0.0024384160060435534,0.0008542798459529877,0.1935315877199173,-0.9810906648635864,0.0,0.0,0.0,0.0,0.0,0.0,0.0,0.0,0.0,-22.317649841308594,-0.15011928975582123,-0.2551944851875305,0.0,0.0,0.0,0.0,0.0,0.0,0.0,0.0,0.0,-0.01817219890654087,-0.002636825665831566,0.028640760108828545,0.0,0.0,0.0,0.0,0.0,0.0,0.0,0.0,0.0
1606987740642622526,1435201,1606984139475030114,imu_link,0.0024363554548472166,0.0008540854905731976,0.19353170692920685,-0.9810906648635864,0.0,0.0,0.0,0.0,0.0,0.0,0.0,0.0,0.0,-22.317663192749023,-0.1500517725944519,-0.2549670934677124,0.0,0.0,0.0,0.0,0.0,0.0,0.0,0.0,0.0,-0.021550511941313744,-0.0028650665190070868,0.0650927796959877,0.0,0.0,0.0,0.0,0.0,0.0,0.0,0.0,0.0
1606987740642644284,1435202,1606984139475163793,imu_link,0.0024363554548472166,0.0008540854905731976,0.19353170692920685,-0.9810906648635864,0.0,0.0,0.0,0.0,0.0,0.0,0.0,0.0,0.0,-22.317663192749023,-0.1500517725944519,-0.2549670934677124,0.0,0.0,0.0,0.0,0.0,0.0,0.0,0.0,0.0,-0.021550511941313744,-0.0028650665190070868,0.0650927796959877,0.0,0.0,0.0,0.0,0.0,0.0,0.0,0.0,0.0
1606987740642661257,1435203,1606984139475344762,imu_link,0.0024354876950383186,0.0008563920855522156,0.19353704154491425,-0.9810895919799805,0.0,0.0,0.0,0.0,0.0,0.0,0.0,0.0,0.0,-22.318288803100586,-0.150293231010437,-0.25481757521629333,0.0,0.0,0.0,0.0,0.0,0.0,0.0,0.0,0.0,-0.005415042862296104,-0.00045252256677486,0.07650457322597504,0.0,0.0,0.0,0.0,0.0,0.0,0.0,0.0,0.0
1606987740645546714,1435204,1606984139475433592,imu_link,0.0024354876950383186,0.0008563920855522156,0.19353704154491425,-0.9810895919799805,0.0,0.0,0.0,0.0,0.0,0.0,0.0,0.0,0.0,-22.318288803100586,-0.150293231010437,-0.25481757521629333,0.0,0.0,0.0,0.0,0.0,0.0,0.0,0.0,0.0,-0.005415042862296104,-0.00045252256677486,0.07650457322597504,0.0,0.0,0.0,0.0,0.0,0.0,0.0,0.0,0.0
1606987740645594194,1435205,1606984139475578297,imu_link,0.0024369058664888144,0.0008575846441090107,0.19353628158569336,-0.98108971118927,0.0,0.0,0.0,0.0,0.0,0.0,0.0,0.0,0.0,-22.318199157714844,-0.15045855939388275,-0.25495070219039917,0.0,0.0,0.0,0.0,0.0,0.0,0.0,0.0,0.0,-0.002780322916805744,-0.00537006976082921,0.05806390196084976,0.0,0.0,0.0,0.0,0.0,0.0,0.0,0.0,0.0
1606987740645616752,1435206,1606984139475666486,imu_link,0.0024369058664888144,0.0008575846441090107,0.19353628158569336,-0.98108971118927,0.0,0.0,0.0,0.0,0.0,0.0,0.0,0.0,0.0,-22.318199157714844,-0.15045855939388275,-0.25495070219039917,0.0,0.0,0.0,0.0,0.0,0.0,0.0,0.0,0.0,-0.002780322916805744,-0.00537006976082921,0.05806390196084976,0.0,0.0,0.0,0.0,0.0,0.0,0.0,0.0,0.0
1606987740645636228,1435207,1606984139475852938,imu_link,0.0024349105078727007,0.0008589141652919352,0.19354163110256195,-0.9810886979103088,0.0,0.0,0.0,0.0,0.0,0.0,0.0,0.0,0.0,-22.318822860717773,-0.15056517720222473,-0.2546960413455963,0.0,0.0,0.0,0.0,0.0,0.0,0.0,0.0,0.0,0.003941974136978388,-0.020236635580658913,0.0340598002076149,0.0,0.0,0.0,0.0,0.0,0.0,0.0,0.0,0.0
1606987740655000165,1435208,1606984139475938456,imu_link,0.0024349105078727007,0.0008589141652919352,0.19354163110256195,-0.9810886979103088,0.0,0.0,0.0,0.0,0.0,0.0,0.0,0.0,0.0,-22.318822860717773,-0.15056517720222473,-0.2546960413455963,0.0,0.0,0.0,0.0,0.0,0.0,0.0,0.0,0.0,0.003941974136978388,-0.020236635580658913,0.0340598002076149,0.0,0.0,0.0,0.0,0.0,0.0,0.0,0.0,0.0
1606987740655033439,1435209,1606984139476096086,imu_link,0.0024335922207683325,0.000858632440213114,0.19354169070720673,-0.9810886979103088,0.0,0.0,0.0,0.0,0.0,0.0,0.0,0.0,0.0,-22.318830490112305,-0.15050427615642548,-0.25455403327941895,0.0,0.0,0.0,0.0,0.0,0.0,0.0,0.0,0.0,0.007592485751956701,-0.02287888340651989,0.01892544887959957,0.0,0.0,0.0,0.0,0.0,0.0,0.0,0.0,0.0
1606987740655049773,1435210,1606984139476178316,imu_link,0.0024335922207683325,0.000858632440213114,0.19354169070720673,-0.9810886979103088,0.0,0.0,0.0,0.0,0.0,0.0,0.0,0.0,0.0,-22.318830490112305,-0.15050427615642548,-0.25455403327941895,0.0,0.0,0.0,0.0,0.0,0.0,0.0,0.0,0.0,0.007592485751956701,-0.02287888340651989,0.01892544887959957,0.0,0.0,0.0,0.0,0.0,0.0,0.0,0.0,0.0
1606987740655067821,1435211,1606984139476263072,imu_link,0.002430289052426815,0.0008590276702307165,0.19354504346847534,-0.9810880422592163,0.0,0.0,0.0,0.0,0.0,0.0,0.0,0.0,0.0,-22.31922149658203,-0.150476336479187,-0.2541734278202057,0.0,0.0,0.0,0.0,0.0,0.0,0.0,0.0,0.0,0.01624845713376999,-0.014767775312066078,0.024747759103775024,0.0,0.0,0.0,0.0,0.0,0.0,0.0,0.0,0.0
1606987740655083977,1435212,1606984139488908271,imu_link,0.002430289052426815,0.0008590276702307165,0.19354504346847534,-0.9810880422592163,0.0,0.0,0.0,0.0,0.0,0.0,0.0,0.0,0.0,-22.31922149658203,-0.150476336479187,-0.2541734278202057,0.0,0.0,0.0,0.0,0.0,0.0,0.0,0.0,0.0,0.01624845713376999,-0.014767775312066078,0.024747759103775024,0.0,0.0,0.0,0.0,0.0,0.0,0.0,0.0,0.0
1606987740666039967,1435213,1606984139489008106,imu_link,0.0024336716160178185,0.000860049796756357,0.19354347884655,-0.9810883402824402,0.0,0.0,0.0,0.0,0.0,0.0,0.0,0.0,0.0,-22.31903839111328,-0.15066583454608917,-0.25453129410743713,0.0,0.0,0.0,0.0,0.0,0.0,0.0,0.0,0.0,0.030388610437512398,-0.021936528384685516,0.0409141480922699,0.0,0.0,0.0,0.0,0.0,0.0,0.0,0.0,0.0
1606987740666065081,1435214,1606984139489142610,imu_link,0.0024336716160178185,0.000860049796756357,0.19354347884655,-0.9810883402824402,0.0,0.0,0.0,0.0,0.0,0.0,0.0,0.0,0.0,-22.31903839111328,-0.15066583454608917,-0.25453129410743713,0.0,0.0,0.0,0.0,0.0,0.0,0.0,0.0,0.0,0.030388610437512398,-0.021936528384685516,0.0409141480922699,0.0,0.0,0.0,0.0,0.0,0.0,0.0,0.0,0.0
1606987740666076429,1435215,1606984139489204761,imu_link,0.002427733736112714,0.0008563760202378035,0.19354566931724548,-0.9810879230499268,0.0,0.0,0.0,0.0,0.0,0.0,0.0,0.0,0.0,-22.319293975830078,-0.15012168884277344,-0.25394484400749207,0.0,0.0,0.0,0.0,0.0,0.0,0.0,0.0,0.0,0.01901242882013321,-0.02213221602141857,0.04021307826042175,0.0,0.0,0.0,0.0,0.0,0.0,0.0,0.0,0.0
1606987740666092253,1435216,1606984139489249734,imu_link,0.002427733736112714,0.0008563760202378035,0.19354566931724548,-0.9810879230499268,0.0,0.0,0.0,0.0,0.0,0.0,0.0,0.0,0.0,-22.319293975830078,-0.15012168884277344,-0.25394484400749207,0.0,0.0,0.0,0.0,0.0,0.0,0.0,0.0,0.0,0.01901242882013321,-0.02213221602141857,0.04021307826042175,0.0,0.0,0.0,0.0,0.0,0.0,0.0,0.0,0.0
1606987740690837134,1435217,1606984139489272953,imu_link,0.0024261523503810167,0.0008559930138289928,0.1935480237007141,-0.9810875058174133,0.0,0.0,0.0,0.0,0.0,0.0,0.0,0.0,0.0,-22.31957244873047,-0.15004418790340424,-0.2537752091884613,0.0,0.0,0.0,0.0,0.0,0.0,0.0,0.0,0.0,0.015072789043188095,-0.02119944989681244,0.045845791697502136,0.0,0.0,0.0,0.0,0.0,0.0,0.0,0.0,0.0
1606987740690868171,1435218,1606984139489302652,imu_link,0.0024261523503810167,0.0008559930138289928,0.1935480237007141,-0.9810875058174133,0.0,0.0,0.0,0.0,0.0,0.0,0.0,0.0,0.0,-22.31957244873047,-0.15004418790340424,-0.2537752091884613,0.0,0.0,0.0,0.0,0.0,0.0,0.0,0.0,0.0,0.015072789043188095,-0.02119944989681244,0.045845791697502136,0.0,0.0,0.0,0.0,0.0,0.0,0.0,0.0,0.0
1606987740690886893,1435219,1606984139489325939,imu_link,0.002423126483336091,0.0008553185616619885,0.19354704022407532,-0.9810876250267029,0.0,0.0,0.0,0.0,0.0,0.0,0.0,0.0,0.0,-22.319456100463867,-0.14990098774433136,-0.2534501254558563,0.0,0.0,0.0,0.0,0.0,0.0,0.0,0.0,0.0,0.02156245894730091,-0.019046461209654808,0.06784194707870483,0.0,0.0,0.0,0.0,0.0,0.0,0.0,0.0,0.0
1606987740690897174,1435220,1606984139489407628,imu_link,0.002423126483336091,0.0008553185616619885,0.19354704022407532,-0.9810876250267029,0.0,0.0,0.0,0.0,0.0,0.0,0.0,0.0,0.0,-22.319456100463867,-0.14990098774433136,-0.2534501254558563,0.0,0.0,0.0,0.0,0.0,0.0,0.0,0.0,0.0,0.02156245894730091,-0.019046461209654808,0.06784194707870483,0.0,0.0,0.0,0.0,0.0,0.0,0.0,0.0,0.0
1606987740690907081,1435221,1606984139489431378,imu_link,0.002425545360893011,0.00085547158960253,0.1935463398694992,-0.9810877442359924,0.0,0.0,0.0,0.0,0.0,0.0,0.0,0.0,0.0,-22.31937599182129,-0.14997164905071259,-0.2537188231945038,0.0,0.0,0.0,0.0,0.0,0.0,0.0,0.0,0.0,-0.01068300474435091,-0.007691501174122095,0.06129785254597664,0.0,0.0,0.0,0.0,0.0,0.0,0.0,0.0,0.0
1606987740696133184,1435222,1606984139489453104,imu_link,0.002425545360893011,0.00085547158960253,0.1935463398694992,-0.9810877442359924,0.0,0.0,0.0,0.0,0.0,0.0,0.0,0.0,0.0,-22.31937599182129,-0.14997164905071259,-0.2537188231945038,0.0,0.0,0.0,0.0,0.0,0.0,0.0,0.0,0.0,-0.01068300474435091,-0.007691501174122095,0.06129785254597664,0.0,0.0,0.0,0.0,0.0,0.0,0.0,0.0,0.0
1606987740696155046,1435223,1606984139502273364,imu_link,0.0024234286975115538,0.0008566533797420561,0.1935410499572754,-0.9810888171195984,0.0,0.0,0.0,0.0,0.0,0.0,0.0,0.0,0.0,-22.318758010864258,-0.15005621314048767,-0.2534554600715637,0.0,0.0,0.0,0.0,0.0,0.0,0.0,0.0,0.0,-0.016567755490541458,-0.0023370585404336452,0.03931159898638725,0.0,0.0,0.0,0.0,0.0,0.0,0.0,0.0,0.0
1606987740696172780,1435224,1606984139502317755,imu_link,0.0024234286975115538,0.0008566533797420561,0.1935410499572754,-0.9810888171195984,0.0,0.0,0.0,0.0,0.0,0.0,0.0,0.0,0.0,-22.318758010864258,-0.15005621314048767,-0.2534554600715637,0.0,0.0,0.0,0.0,0.0,0.0,0.0,0.0,0.0,-0.016567755490541458,-0.0023370585404336452,0.03931159898638725,0.0,0.0,0.0,0.0,0.0,0.0,0.0,0.0,0.0
1606987740696181128,1435225,1606984139502340512,imu_link,0.00242264149710536,0.0008549300255253911,0.1935422420501709,-0.9810885787010193,0.0,0.0,0.0,0.0,0.0,0.0,0.0,0.0,0.0,-22.318899154663086,-0.14984531700611115,-0.25340500473976135,0.0,0.0,0.0,0.0,0.0,0.0,0.0,0.0,0.0,0.0016767949564382434,0.010832663625478745,0.028851544484496117,0.0,0.0,0.0,0.0,0.0,0.0,0.0,0.0,0.0
1606987740731361972,1435226,1606984139502362848,imu_link,0.00242264149710536,0.0008549300255253911,0.1935422420501709,-0.9810885787010193,0.0,0.0,0.0,0.0,0.0,0.0,0.0,0.0,0.0,-22.318899154663086,-0.14984531700611115,-0.25340500473976135,0.0,0.0,0.0,0.0,0.0,0.0,0.0,0.0,0.0,0.0016767949564382434,0.010832663625478745,0.028851544484496117,0.0,0.0,0.0,0.0,0.0,0.0,0.0,0.0,0.0
1606987740731389978,1435227,1606984139502385040,imu_link,0.002423686208203435,0.0008548343903385103,0.19353802502155304,-0.9810894131660461,0.0,0.0,0.0,0.0,0.0,0.0,0.0,0.0,0.0,-22.318405151367188,-0.14985664188861847,-0.25352516770362854,0.0,0.0,0.0,0.0,0.0,0.0,0.0,0.0,0.0,-0.0006574952858500183,0.012703935615718365,0.034740664064884186,0.0,0.0,0.0,0.0,0.0,0.0,0.0,0.0,0.0
1606987740731400909,1435228,1606984139502416342,imu_link,0.002423686208203435,0.0008548343903385103,0.19353802502155304,-0.9810894131660461,0.0,0.0,0.0,0.0,0.0,0.0,0.0,0.0,0.0,-22.318405151367188,-0.14985664188861847,-0.25352516770362854,0.0,0.0,0.0,0.0,0.0,0.0,0.0,0.0,0.0,-0.0006574952858500183,0.012703935615718365,0.034740664064884186,0.0,0.0,0.0,0.0,0.0,0.0,0.0,0.0,0.0
1606987740731414665,1435229,1606984139502438538,imu_link,0.0024251954164355993,0.0008542895084246993,0.19353686273097992,-0.9810896515846252,0.0,0.0,0.0,0.0,0.0,0.0,0.0,0.0,0.0,-22.318267822265625,-0.14982855319976807,-0.2537071108818054,0.0,0.0,0.0,0.0,0.0,0.0,0.0,0.0,0.0,0.012197531759738922,0.008131099864840508,0.050547610968351364,0.0,0.0,0.0,0.0,0.0,0.0,0.0,0.0,0.0
1606987740731436854,1435230,1606984139502461366,imu_link,0.0024251954164355993,0.0008542895084246993,0.19353686273097992,-0.9810896515846252,0.0,0.0,0.0,0.0,0.0,0.0,0.0,0.0,0.0,-22.318267822265625,-0.14982855319976807,-0.2537071108818054,0.0,0.0,0.0,0.0,0.0,0.0,0.0,0.0,0.0,0.012197531759738922,0.008131099864840508,0.050547610968351364,0.0,0.0,0.0,0.0,0.0,0.0,0.0,0.0,0.0
1606987740738985334,1435231,1606984139502483052,imu_link,0.002426073420792818,0.0008532465435564518,0.19353395700454712,-0.981090247631073,0.0,0.0,0.0,0.0,0.0,0.0,0.0,0.0,0.0,-22.31792640686035,-0.14973001182079315,-0.25382938981056213,0.0,0.0,0.0,0.0,0.0,0.0,0.0,0.0,0.0,0.0030486758332699537,0.011295088566839695,0.06362725049257278,0.0,0.0,0.0,0.0,0.0,0.0,0.0,0.0,0.0
1606987740739006523,1435232,1606984139502506152,imu_link,0.002426073420792818,0.0008532465435564518,0.19353395700454712,-0.981090247631073,0.0,0.0,0.0,0.0,0.0,0.0,0.0,0.0,0.0,-22.31792640686035,-0.14973001182079315,-0.25382938981056213,0.0,0.0,0.0,0.0,0.0,0.0,0.0,0.0,0.0,0.0030486758332699537,0.011295088566839695,0.06362725049257278,0.0,0.0,0.0,0.0,0.0,0.0,0.0,0.0,0.0
1606987740739022630,1435233,1606984139502528658,imu_link,0.0024247707333415747,0.0008527140598744154,0.19353298842906952,-0.9810904264450073,0.0,0.0,0.0,0.0,0.0,0.0,0.0,0.0,0.0,-22.31781768798828,-0.1496410220861435,-0.25369489192962646,0.0,0.0,0.0,0.0,0.0,0.0,0.0,0.0,0.0,-0.014543995261192322,0.0013736732071265578,0.04735361784696579,0.0,0.0,0.0,0.0,0.0,0.0,0.0,0.0,0.0
1606987740739033079,1435234,1606984139515212293,imu_link,0.0024247707333415747,0.0008527140598744154,0.19353298842906952,-0.9810904264450073,0.0,0.0,0.0,0.0,0.0,0.0,0.0,0.0,0.0,-22.31781768798828,-0.1496410220861435,-0.25369489192962646,0.0,0.0,0.0,0.0,0.0,0.0,0.0,0.0,0.0,-0.014543995261192322,0.0013736732071265578,0.04735361784696579,0.0,0.0,0.0,0.0,0.0,0.0,0.0,0.0,0.0
1606987740776077057,1435235,1606984139515273673,imu_link,0.0024276806507259607,0.0008523499709554017,0.19353251159191132,-0.9810904860496521,0.0,0.0,0.0,0.0,0.0,0.0,0.0,0.0,0.0,-22.317760467529297,-0.1496644914150238,-0.2540301978588104,0.0,0.0,0.0,0.0,0.0,0.0,0.0,0.0,0.0,-0.017337406054139137,0.0002981708094011992,0.015481079928576946,0.0,0.0,0.0,0.0,0.0,0.0,0.0,0.0,0.0
1606987740776098629,1435236,1606984139515311712,imu_link,0.0024276806507259607,0.0008523499709554017,0.19353251159191132,-0.9810904860496521,0.0,0.0,0.0,0.0,0.0,0.0,0.0,0.0,0.0,-22.317760467529297,-0.1496644914150238,-0.2540301978588104,0.0,0.0,0.0,0.0,0.0,0.0,0.0,0.0,0.0,-0.017337406054139137,0.0002981708094011992,0.015481079928576946,0.0,0.0,0.0,0.0,0.0,0.0,0.0,0.0,0.0
1606987740776114571,1435237,1606984139515345864,imu_link,0.0024297996424138546,0.0008499046671204269,0.19353176653385162,-0.9810906648635864,0.0,0.0,0.0,0.0,0.0,0.0,0.0,0.0,0.0,-22.317670822143555,-0.14943638443946838,-0.25432273745536804,0.0,0.0,0.0,0.0,0.0,0.0,0.0,0.0,0.0,-0.013760516420006752,-0.006422227248549461,0.020994219928979874,0.0,0.0,0.0,0.0,0.0,0.0,0.0,0.0,0.0
1606987740776161714,1435238,1606984139515387320,imu_link,0.0024297996424138546,0.0008499046671204269,0.19353176653385162,-0.9810906648635864,0.0,0.0,0.0,0.0,0.0,0.0,0.0,0.0,0.0,-22.317670822143555,-0.14943638443946838,-0.25432273745536804,0.0,0.0,0.0,0.0,0.0,0.0,0.0,0.0,0.0,-0.013760516420006752,-0.006422227248549461,0.020994219928979874,0.0,0.0,0.0,0.0,0.0,0.0,0.0,0.0,0.0
1606987740781542123,1435239,1606984139515431327,imu_link,0.0024282559752464294,0.0008509496110491455,0.19353073835372925,-0.9810908436775208,0.0,0.0,0.0,0.0,0.0,0.0,0.0,0.0,0.0,-22.31755256652832,-0.14951935410499573,-0.2541262209415436,0.0,0.0,0.0,0.0,0.0,0.0,0.0,0.0,0.0,0.0015679127536714077,-0.013751360587775707,0.0388825386762619,0.0,0.0,0.0,0.0,0.0,0.0,0.0,0.0,0.0
1606987740781572172,1435240,1606984139515468653,imu_link,0.0024282559752464294,0.0008509496110491455,0.19353073835372925,-0.9810908436775208,0.0,0.0,0.0,0.0,0.0,0.0,0.0,0.0,0.0,-22.31755256652832,-0.14951935410499573,-0.2541262209415436,0.0,0.0,0.0,0.0,0.0,0.0,0.0,0.0,0.0,0.0015679127536714077,-0.013751360587775707,0.0388825386762619,0.0,0.0,0.0,0.0,0.0,0.0,0.0,0.0,0.0
1606987740781590998,1435241,1606984139515504683,imu_link,0.002429210115224123,0.0008524882141500711,0.19353051483631134,-0.9810909032821655,0.0,0.0,0.0,0.0,0.0,0.0,0.0,0.0,0.0,-22.317527770996094,-0.1497134268283844,-0.25419938564300537,0.0,0.0,0.0,0.0,0.0,0.0,0.0,0.0,0.0,0.00797523744404316,-0.011929934844374657,0.029129082337021828,0.0,0.0,0.0,0.0,0.0,0.0,0.0,0.0,0.0
1606987740781648017,1435242,1606984139515538034,imu_link,0.002429210115224123,0.0008524882141500711,0.19353051483631134,-0.9810909032821655,0.0,0.0,0.0,0.0,0.0,0.0,0.0,0.0,0.0,-22.317527770996094,-0.1497134268283844,-0.25419938564300537,0.0,0.0,0.0,0.0,0.0,0.0,0.0,0.0,0.0,0.00797523744404316,-0.011929934844374657,0.029129082337021828,0.0,0.0,0.0,0.0,0.0,0.0,0.0,0.0,0.0
1606987740781670602,1435243,1606984139515572966,imu_link,0.0024268149863928556,0.0008517716778442264,0.19353598356246948,-0.9810898303985596,0.0,0.0,0.0,0.0,0.0,0.0,0.0,0.0,0.0,-22.318166732788086,-0.149581179022789,-0.2539452016353607,0.0,0.0,0.0,0.0,0.0,0.0,0.0,0.0,0.0,-0.0011691697873175144,-0.012926132418215275,0.03495751693844795,0.0,0.0,0.0,0.0,0.0,0.0,0.0,0.0,0.0
1606987740791695311,1435244,1606984139529073535,imu_link,0.0024268149863928556,0.0008517716778442264,0.19353598356246948,-0.9810898303985596,0.0,0.0,0.0,0.0,0.0,0.0,0.0,0.0,0.0,-22.318166732788086,-0.149581179022789,-0.2539452016353607,0.0,0.0,0.0,0.0,0.0,0.0,0.0,0.0,0.0,-0.0011691697873175144,-0.012926132418215275,0.03495751693844795,0.0,0.0,0.0,0.0,0.0,0.0,0.0,0.0,0.0
1606987740791722244,1435245,1606984139529207201,imu_link,0.0024256454780697823,0.0008509888430126011,0.19353635609149933,-0.9810897707939148,0.0,0.0,0.0,0.0,0.0,0.0,0.0,0.0,0.0,-22.318208694458008,-0.149467334151268,-0.25383099913597107,0.0,0.0,0.0,0.0,0.0,0.0,0.0,0.0,0.0,-0.007732355501502752,-0.008346112444996834,0.02785755880177021,0.0,0.0,0.0,0.0,0.0,0.0,0.0,0.0,0.0
1606987740791750444,1435246,1606984139529302072,imu_link,0.0024256454780697823,0.0008509888430126011,0.19353635609149933,-0.9810897707939148,0.0,0.0,0.0,0.0,0.0,0.0,0.0,0.0,0.0,-22.318208694458008,-0.149467334151268,-0.25383099913597107,0.0,0.0,0.0,0.0,0.0,0.0,0.0,0.0,0.0,-0.007732355501502752,-0.008346112444996834,0.02785755880177021,0.0,0.0,0.0,0.0,0.0,0.0,0.0,0.0,0.0
1606987740791782417,1435247,1606984139529404624,imu_link,0.0024233139120042324,0.0008518575923517346,0.19354002177715302,-0.9810890555381775,0.0,0.0,0.0,0.0,0.0,0.0,0.0,0.0,0.0,-22.318639755249023,-0.14951422810554504,-0.2535490393638611,0.0,0.0,0.0,0.0,0.0,0.0,0.0,0.0,0.0,-0.0049063717015087605,-0.0007967104320414364,0.012527373619377613,0.0,0.0,0.0,0.0,0.0,0.0,0.0,0.0,0.0
1606987740796282973,1435248,1606984139529497556,imu_link,0.0024233139120042324,0.0008518575923517346,0.19354002177715302,-0.9810890555381775,0.0,0.0,0.0,0.0,0.0,0.0,0.0,0.0,0.0,-22.318639755249023,-0.14951422810554504,-0.2535490393638611,0.0,0.0,0.0,0.0,0.0,0.0,0.0,0.0,0.0,-0.0049063717015087605,-0.0007967104320414364,0.012527373619377613,0.0,0.0,0.0,0.0,0.0,0.0,0.0,0.0,0.0
1606987740796317900,1435249,1606984139529588229,imu_link,0.0024237262550741434,0.0008515188819728792,0.19353868067264557,-0.9810892939567566,0.0,0.0,0.0,0.0,0.0,0.0,0.0,0.0,0.0,-22.3184814453125,-0.14948494732379913,-0.25360313057899475,0.0,0.0,0.0,0.0,0.0,0.0,0.0,0.0,0.0,-0.008618072606623173,-0.002571342745795846,0.014630170539021492,0.0,0.0,0.0,0.0,0.0,0.0,0.0,0.0,0.0
1606987740796333025,1435250,1606984139529695111,imu_link,0.0024237262550741434,0.0008515188819728792,0.19353868067264557,-0.9810892939567566,0.0,0.0,0.0,0.0,0.0,0.0,0.0,0.0,0.0,-22.3184814453125,-0.14948494732379913,-0.25360313057899475,0.0,0.0,0.0,0.0,0.0,0.0,0.0,0.0,0.0,-0.008618072606623173,-0.002571342745795846,0.014630170539021492,0.0,0.0,0.0,0.0,0.0,0.0,0.0,0.0,0.0
1606987740796401820,1435251,1606984139529751335,imu_link,0.002424057573080063,0.0008513978100381792,0.19354133307933807,-0.9810887575149536,0.0,0.0,0.0,0.0,0.0,0.0,0.0,0.0,0.0,-22.318790435791016,-0.14947937428951263,-0.25364264845848083,0.0,0.0,0.0,0.0,0.0,0.0,0.0,0.0,0.0,-0.02267165668308735,-0.020884085446596146,0.01614408753812313,0.0,0.0,0.0,0.0,0.0,0.0,0.0,0.0,0.0
1606987740796432615,1435252,1606984139529836458,imu_link,0.002424057573080063,0.0008513978100381792,0.19354133307933807,-0.9810887575149536,0.0,0.0,0.0,0.0,0.0,0.0,0.0,0.0,0.0,-22.318790435791016,-0.14947937428951263,-0.25364264845848083,0.0,0.0,0.0,0.0,0.0,0.0,0.0,0.0,0.0,-0.02267165668308735,-0.020884085446596146,0.01614408753812313,0.0,0.0,0.0,0.0,0.0,0.0,0.0,0.0,0.0
1606987740819247642,1435253,1606984139529889240,imu_link,0.0024255288299173117,0.000848280789796263,0.19354122877120972,-0.9810888171195984,0.0,0.0,0.0,0.0,0.0,0.0,0.0,0.0,0.0,-22.318777084350586,-0.14916154742240906,-0.253877192735672,0.0,0.0,0.0,0.0,0.0,0.0,0.0,0.0,0.0,-0.01878250576555729,-0.015761172398924828,0.04509608447551727,0.0,0.0,0.0,0.0,0.0,0.0,0.0,0.0,0.0
1606987740819290793,1435254,1606984139529940791,imu_link,0.0024255288299173117,0.000848280789796263,0.19354122877120972,-0.9810888171195984,0.0,0.0,0.0,0.0,0.0,0.0,0.0,0.0,0.0,-22.318777084350586,-0.14916154742240906,-0.253877192735672,0.0,0.0,0.0,0.0,0.0,0.0,0.0,0.0,0.0,-0.01878250576555729,-0.015761172398924828,0.04509608447551727,0.0,0.0,0.0,0.0,0.0,0.0,0.0,0.0,0.0
1606987740819320324,1435255,1606984139542550082,imu_link,0.002424647333100438,0.0008518681861460209,0.19354435801506042,-0.9810882210731506,0.0,0.0,0.0,0.0,0.0,0.0,0.0,0.0,0.0,-22.31914710998535,-0.14954611659049988,-0.25369805097579956,0.0,0.0,0.0,0.0,0.0,0.0,0.0,0.0,0.0,0.004870684817433357,0.010327921248972416,0.04909353703260422,0.0,0.0,0.0,0.0,0.0,0.0,0.0,0.0,0.0
1606987740819360989,1435256,1606984139542641792,imu_link,0.002424647333100438,0.0008518681861460209,0.19354435801506042,-0.9810882210731506,0.0,0.0,0.0,0.0,0.0,0.0,0.0,0.0,0.0,-22.31914710998535,-0.14954611659049988,-0.25369805097579956,0.0,0.0,0.0,0.0,0.0,0.0,0.0,0.0,0.0,0.004870684817433357,0.010327921248972416,0.04909353703260422,0.0,0.0,0.0,0.0,0.0,0.0,0.0,0.0,0.0
1606987740828046383,1435257,1606984139542749888,imu_link,0.0024261134676635265,0.0008522599237039685,0.19354288280010223,-0.9810885190963745,0.0,0.0,0.0,0.0,0.0,0.0,0.0,0.0,0.0,-22.318967819213867,-0.14962230622768402,-0.2538544237613678,0.0,0.0,0.0,0.0,0.0,0.0,0.0,0.0,0.0,0.010169426910579205,0.01099722646176815,0.027696257457137108,0.0,0.0,0.0,0.0,0.0,0.0,0.0,0.0,0.0
1606987740828107404,1435258,1606984139542804775,imu_link,0.0024261134676635265,0.0008522599237039685,0.19354288280010223,-0.9810885190963745,0.0,0.0,0.0,0.0,0.0,0.0,0.0,0.0,0.0,-22.318967819213867,-0.14962230622768402,-0.2538544237613678,0.0,0.0,0.0,0.0,0.0,0.0,0.0,0.0,0.0,0.010169426910579205,0.01099722646176815,0.027696257457137108,0.0,0.0,0.0,0.0,0.0,0.0,0.0,0.0,0.0
1606987740828141980,1435259,1606984139542852445,imu_link,0.0024291565641760826,0.0008484289282932878,0.19354024529457092,-0.9810889959335327,0.0,0.0,0.0,0.0,0.0,0.0,0.0,0.0,0.0,-22.31866455078125,-0.14925839006900787,-0.2542819082736969,0.0,0.0,0.0,0.0,0.0,0.0,0.0,0.0,0.0,0.009343251585960388,-0.0023321143817156553,0.04344962164759636,0.0,0.0,0.0,0.0,0.0,0.0,0.0,0.0,0.0
1606987740828181926,1435260,1606984139542904932,imu_link,0.0024291565641760826,0.0008484289282932878,0.19354024529457092,-0.9810889959335327,0.0,0.0,0.0,0.0,0.0,0.0,0.0,0.0,0.0,-22.31866455078125,-0.14925839006900787,-0.2542819082736969,0.0,0.0,0.0,0.0,0.0,0.0,0.0,0.0,0.0,0.009343251585960388,-0.0023321143817156553,0.04344962164759636,0.0,0.0,0.0,0.0,0.0,0.0,0.0,0.0,0.0
1606987740828223791,1435261,1606984139542999577,imu_link,0.0024299859069287777,0.0008506504236720502,0.19353918731212616,-0.9810892343521118,0.0,0.0,0.0,0.0,0.0,0.0,0.0,0.0,0.0,-22.318538665771484,-0.14952628314495087,-0.2543260157108307,0.0,0.0,0.0,0.0,0.0,0.0,0.0,0.0,0.0,0.0008570053614675999,0.004413696937263012,0.05628393962979317,0.0,0.0,0.0,0.0,0.0,0.0,0.0,0.0,0.0
1606987740840461786,1435262,1606984139543070112,imu_link,0.0024299859069287777,0.0008506504236720502,0.19353918731212616,-0.9810892343521118,0.0,0.0,0.0,0.0,0.0,0.0,0.0,0.0,0.0,-22.318538665771484,-0.14952628314495087,-0.2543260157108307,0.0,0.0,0.0,0.0,0.0,0.0,0.0,0.0,0.0,0.0008570053614675999,0.004413696937263012,0.05628393962979317,0.0,0.0,0.0,0.0,0.0,0.0,0.0,0.0,0.0
1606987740840503305,1435263,1606984139543181580,imu_link,0.0024309761356562376,0.0008504068246111274,0.1935364156961441,-0.9810897707939148,0.0,0.0,0.0,0.0,0.0,0.0,0.0,0.0,0.0,-22.31821632385254,-0.1495201289653778,-0.2544431686401367,0.0,0.0,0.0,0.0,0.0,0.0,0.0,0.0,0.0,-0.021565653383731842,0.018093658611178398,0.049715008586645126,0.0,0.0,0.0,0.0,0.0,0.0,0.0,0.0,0.0
1606987740840535731,1435264,1606984139543236995,imu_link,0.0024309761356562376,0.0008504068246111274,0.1935364156961441,-0.9810897707939148,0.0,0.0,0.0,0.0,0.0,0.0,0.0,0.0,0.0,-22.31821632385254,-0.1495201289653778,-0.2544431686401367,0.0,0.0,0.0,0.0,0.0,0.0,0.0,0.0,0.0,-0.021565653383731842,0.018093658611178398,0.049715008586645126,0.0,0.0,0.0,0.0,0.0,0.0,0.0,0.0,0.0
1606987740840560384,1435265,1606984139543297482,imu_link,0.002432978944852948,0.0008505460573360324,0.19353805482387543,-0.9810894131660461,0.0,0.0,0.0,0.0,0.0,0.0,0.0,0.0,0.0,-22.31840705871582,-0.14958061277866364,-0.2546650171279907,0.0,0.0,0.0,0.0,0.0,0.0,0.0,0.0,0.0,-0.02390267513692379,0.014926522970199585,0.049478236585855484,0.0,0.0,0.0,0.0,0.0,0.0,0.0,0.0,0.0
1606987740843772678,1435266,1606984139556243312,imu_link,0.002432978944852948,0.0008505460573360324,0.19353805482387543,-0.9810894131660461,0.0,0.0,0.0,0.0,0.0,0.0,0.0,0.0,0.0,-22.31840705871582,-0.14958061277866364,-0.2546650171279907,0.0,0.0,0.0,0.0,0.0,0.0,0.0,0.0,0.0,-0.02390267513692379,0.014926522970199585,0.049478236585855484,0.0,0.0,0.0,0.0,0.0,0.0,0.0,0.0,0.0
1606987740843802378,1435267,1606984139556331152,imu_link,0.0024359039962291718,0.0008543348521925509,0.19353936612606049,-0.981089174747467,0.0,0.0,0.0,0.0,0.0,0.0,0.0,0.0,0.0,-22.318557739257812,-0.15007178485393524,-0.2549096345901489,0.0,0.0,0.0,0.0,0.0,0.0,0.0,0.0,0.0,-0.004983712453395128,0.010812446475028992,0.05327499285340309,0.0,0.0,0.0,0.0,0.0,0.0,0.0,0.0,0.0
1606987740843814598,1435268,1606984139556441113,imu_link,0.0024359039962291718,0.0008543348521925509,0.19353936612606049,-0.981089174747467,0.0,0.0,0.0,0.0,0.0,0.0,0.0,0.0,0.0,-22.318557739257812,-0.15007178485393524,-0.2549096345901489,0.0,0.0,0.0,0.0,0.0,0.0,0.0,0.0,0.0,-0.004983712453395128,0.010812446475028992,0.05327499285340309,0.0,0.0,0.0,0.0,0.0,0.0,0.0,0.0,0.0
1606987740843843646,1435269,1606984139556504988,imu_link,0.0024346080608665943,0.0008549925405532122,0.1935385763645172,-0.9810892939567566,0.0,0.0,0.0,0.0,0.0,0.0,0.0,0.0,0.0,-22.318466186523438,-0.15011678636074066,-0.25474944710731506,0.0,0.0,0.0,0.0,0.0,0.0,0.0,0.0,0.0,-0.004479830618947744,0.02314533293247223,0.06027895212173462,0.0,0.0,0.0,0.0,0.0,0.0,0.0,0.0,0.0
1606987740843860989,1435270,1606984139556616392,imu_link,0.0024346080608665943,0.0008549925405532122,0.1935385763645172,-0.9810892939567566,0.0,0.0,0.0,0.0,0.0,0.0,0.0,0.0,0.0,-22.318466186523438,-0.15011678636074066,-0.25474944710731506,0.0,0.0,0.0,0.0,0.0,0.0,0.0,0.0,0.0,-0.004479830618947744,0.02314533293247223,0.06027895212173462,0.0,0.0,0.0,0.0,0.0,0.0,0.0,0.0,0.0
1606987740910404804,1435271,1606984139556688726,imu_link,0.002440695185214281,0.0008563498267903924,0.193539097905159,-0.981089174747467,0.0,0.0,0.0,0.0,0.0,0.0,0.0,0.0,0.0,-22.318527221679688,-0.15040451288223267,-0.25540363788604736,0.0,0.0,0.0,0.0,0.0,0.0,0.0,0.0,0.0,-0.008682960644364357,0.03122393973171711,0.06235954537987709,0.0,0.0,0.0,0.0,0.0,0.0,0.0,0.0,0.0
1606987740910434669,1435272,1606984139556743406,imu_link,0.002440695185214281,0.0008563498267903924,0.193539097905159,-0.981089174747467,0.0,0.0,0.0,0.0,0.0,0.0,0.0,0.0,0.0,-22.318527221679688,-0.15040451288223267,-0.25540363788604736,0.0,0.0,0.0,0.0,0.0,0.0,0.0,0.0,0.0,-0.008682960644364357,0.03122393973171711,0.06235954537987709,0.0,0.0,0.0,0.0,0.0,0.0,0.0,0.0,0.0
1606987740910457929,1435273,1606984139556799613,imu_link,0.002440115436911583,0.0008552831131964922,0.1935388445854187,-0.9810892343521118,0.0,0.0,0.0,0.0,0.0,0.0,0.0,0.0,0.0,-22.318496704101562,-0.15027166903018951,-0.2553621530532837,0.0,0.0,0.0,0.0,0.0,0.0,0.0,0.0,0.0,-0.005420939531177282,0.024247989058494568,0.052553147077560425,0.0,0.0,0.0,0.0,0.0,0.0,0.0,0.0,0.0
1606987740910473635,1435274,1606984139556853144,imu_link,0.002440115436911583,0.0008552831131964922,0.1935388445854187,-0.9810892343521118,0.0,0.0,0.0,0.0,0.0,0.0,0.0,0.0,0.0,-22.318496704101562,-0.15027166903018951,-0.2553621530532837,0.0,0.0,0.0,0.0,0.0,0.0,0.0,0.0,0.0,-0.005420939531177282,0.024247989058494568,0.052553147077560425,0.0,0.0,0.0,0.0,0.0,0.0,0.0,0.0,0.0
1606987740917500986,1435275,1606984139556909043,imu_link,0.002446417696774006,0.000855561695061624,0.19353556632995605,-0.9810898900032043,0.0,0.0,0.0,0.0,0.0,0.0,0.0,0.0,0.0,-22.318115234375,-0.15044189989566803,-0.2560650110244751,0.0,0.0,0.0,0.0,0.0,0.0,0.0,0.0,0.0,0.006798635236918926,0.005989865865558386,0.05378066375851631,0.0,0.0,0.0,0.0,0.0,0.0,0.0,0.0,0.0
1606987740917524392,1435276,1606984139556963522,imu_link,0.002446417696774006,0.000855561695061624,0.19353556632995605,-0.9810898900032043,0.0,0.0,0.0,0.0,0.0,0.0,0.0,0.0,0.0,-22.318115234375,-0.15044189989566803,-0.2560650110244751,0.0,0.0,0.0,0.0,0.0,0.0,0.0,0.0,0.0,0.006798635236918926,0.005989865865558386,0.05378066375851631,0.0,0.0,0.0,0.0,0.0,0.0,0.0,0.0,0.0
1606987740917553516,1435277,1606984139569238374,imu_link,0.0024447806645184755,0.000857718987390399,0.1935356706380844,-0.9810898303985596,0.0,0.0,0.0,0.0,0.0,0.0,0.0,0.0,0.0,-22.318124771118164,-0.15064814686775208,-0.25583311915397644,0.0,0.0,0.0,0.0,0.0,0.0,0.0,0.0,0.0,0.018973274156451225,-0.004745748825371265,0.06955857574939728,0.0,0.0,0.0,0.0,0.0,0.0,0.0,0.0,0.0
1606987740917571536,1435278,1606984139569333126,imu_link,0.0024447806645184755,0.000857718987390399,0.1935356706380844,-0.9810898303985596,0.0,0.0,0.0,0.0,0.0,0.0,0.0,0.0,0.0,-22.318124771118164,-0.15064814686775208,-0.25583311915397644,0.0,0.0,0.0,0.0,0.0,0.0,0.0,0.0,0.0,0.018973274156451225,-0.004745748825371265,0.06955857574939728,0.0,0.0,0.0,0.0,0.0,0.0,0.0,0.0,0.0
1606987740917598592,1435279,1606984139569432509,imu_link,0.002444317564368248,0.000855166174005717,0.19353319704532623,-0.9810903072357178,0.0,0.0,0.0,0.0,0.0,0.0,0.0,0.0,0.0,-22.317838668823242,-0.15035024285316467,-0.2558380663394928,0.0,0.0,0.0,0.0,0.0,0.0,0.0,0.0,0.0,0.01479279063642025,-0.005889447405934334,0.06253490597009659,0.0,0.0,0.0,0.0,0.0,0.0,0.0,0.0,0.0
1606987740925020428,1435280,1606984139569492375,imu_link,0.002444317564368248,0.000855166174005717,0.19353319704532623,-0.9810903072357178,0.0,0.0,0.0,0.0,0.0,0.0,0.0,0.0,0.0,-22.317838668823242,-0.15035024285316467,-0.2558380663394928,0.0,0.0,0.0,0.0,0.0,0.0,0.0,0.0,0.0,0.01479279063642025,-0.005889447405934334,0.06253490597009659,0.0,0.0,0.0,0.0,0.0,0.0,0.0,0.0,0.0
1606987740925086658,1435281,1606984139569562774,imu_link,0.0024466642644256353,0.0008575341198593378,0.19353356957435608,-0.981090247631073,0.0,0.0,0.0,0.0,0.0,0.0,0.0,0.0,0.0,-22.317882537841797,-0.15066859126091003,-0.2560493052005768,0.0,0.0,0.0,0.0,0.0,0.0,0.0,0.0,0.0,0.013029098510742188,-0.0031076630111783743,0.036147139966487885,0.0,0.0,0.0,0.0,0.0,0.0,0.0,0.0,0.0
1606987740925111108,1435282,1606984139569646107,imu_link,0.0024466642644256353,0.0008575341198593378,0.19353356957435608,-0.981090247631073,0.0,0.0,0.0,0.0,0.0,0.0,0.0,0.0,0.0,-22.317882537841797,-0.15066859126091003,-0.2560493052005768,0.0,0.0,0.0,0.0,0.0,0.0,0.0,0.0,0.0,0.013029098510742188,-0.0031076630111783743,0.036147139966487885,0.0,0.0,0.0,0.0,0.0,0.0,0.0,0.0,0.0
1606987740925134749,1435283,1606984139569701064,imu_link,0.002446379279717803,0.0008563421433791518,0.19353288412094116,-0.9810903668403625,0.0,0.0,0.0,0.0,0.0,0.0,0.0,0.0,0.0,-22.317800521850586,-0.15052807331085205,-0.25604379177093506,0.0,0.0,0.0,0.0,0.0,0.0,0.0,0.0,0.0,0.0018843935104086995,0.00898166373372078,0.0151587575674057,0.0,0.0,0.0,0.0,0.0,0.0,0.0,0.0,0.0
1606987740932434430,1435284,1606984139569758644,imu_link,0.002446379279717803,0.0008563421433791518,0.19353288412094116,-0.9810903668403625,0.0,0.0,0.0,0.0,0.0,0.0,0.0,0.0,0.0,-22.317800521850586,-0.15052807331085205,-0.25604379177093506,0.0,0.0,0.0,0.0,0.0,0.0,0.0,0.0,0.0,0.0018843935104086995,0.00898166373372078,0.0151587575674057,0.0,0.0,0.0,0.0,0.0,0.0,0.0,0.0,0.0
1606987740932474716,1435285,1606984139569809335,imu_link,0.0024463844019919634,0.0008553059305995703,0.19353167712688446,-0.9810906052589417,0.0,0.0,0.0,0.0,0.0,0.0,0.0,0.0,0.0,-22.317663192749023,-0.15041138231754303,-0.25606754422187805,0.0,0.0,0.0,0.0,0.0,0.0,0.0,0.0,0.0,-0.012188284657895565,-0.00028212356846779585,0.02356201410293579,0.0,0.0,0.0,0.0,0.0,0.0,0.0,0.0,0.0
1606987740932498852,1435286,1606984139569862107,imu_link,0.0024463844019919634,0.0008553059305995703,0.19353167712688446,-0.9810906052589417,0.0,0.0,0.0,0.0,0.0,0.0,0.0,0.0,0.0,-22.317663192749023,-0.15041138231754303,-0.25606754422187805,0.0,0.0,0.0,0.0,0.0,0.0,0.0,0.0,0.0,-0.012188284657895565,-0.00028212356846779585,0.02356201410293579,0.0,0.0,0.0,0.0,0.0,0.0,0.0,0.0,0.0
1606987740932519058,1435287,1606984139582692944,imu_link,0.0024464621674269438,0.0008593698730692267,0.1935291290283203,-0.9810910820960999,0.0,0.0,0.0,0.0,0.0,0.0,0.0,0.0,0.0,-22.31736183166504,-0.15086932480335236,-0.2559865713119507,0.0,0.0,0.0,0.0,0.0,0.0,0.0,0.0,0.0,-0.01221281848847866,-0.005933491978794336,0.055742938071489334,0.0,0.0,0.0,0.0,0.0,0.0,0.0,0.0,0.0
1606987740932543344,1435288,1606984139582798881,imu_link,0.0024464621674269438,0.0008593698730692267,0.1935291290283203,-0.9810910820960999,0.0,0.0,0.0,0.0,0.0,0.0,0.0,0.0,0.0,-22.31736183166504,-0.15086932480335236,-0.2559865713119507,0.0,0.0,0.0,0.0,0.0,0.0,0.0,0.0,0.0,-0.01221281848847866,-0.005933491978794336,0.055742938071489334,0.0,0.0,0.0,0.0,0.0,0.0,0.0,0.0,0.0
1606987740944574057,1435289,1606984139582903439,imu_link,0.002447201404720545,0.000858129991684109,0.19352960586547852,-0.9810910224914551,0.0,0.0,0.0,0.0,0.0,0.0,0.0,0.0,0.0,-22.31741714477539,-0.1507464498281479,-0.25609710812568665,0.0,0.0,0.0,0.0,0.0,0.0,0.0,0.0,0.0,-0.005362770054489374,-0.0028526000678539276,0.05410689488053322,0.0,0.0,0.0,0.0,0.0,0.0,0.0,0.0,0.0
1606987740944613869,1435290,1606984139583002985,imu_link,0.002447201404720545,0.000858129991684109,0.19352960586547852,-0.9810910224914551,0.0,0.0,0.0,0.0,0.0,0.0,0.0,0.0,0.0,-22.31741714477539,-0.1507464498281479,-0.25609710812568665,0.0,0.0,0.0,0.0,0.0,0.0,0.0,0.0,0.0,-0.005362770054489374,-0.0028526000678539276,0.05410689488053322,0.0,0.0,0.0,0.0,0.0,0.0,0.0,0.0,0.0
1606987740944632930,1435291,1606984139583069026,imu_link,0.0024474342353641987,0.000857431092299521,0.19352756440639496,-0.9810914397239685,0.0,0.0,0.0,0.0,0.0,0.0,0.0,0.0,0.0,-22.317180633544922,-0.15067251026630402,-0.2561390995979309,0.0,0.0,0.0,0.0,0.0,0.0,0.0,0.0,0.0,-0.015486488118767738,-0.004084914922714233,0.04447859153151512,0.0,0.0,0.0,0.0,0.0,0.0,0.0,0.0,0.0
1606987740944649936,1435292,1606984139583135354,imu_link,0.0024474342353641987,0.000857431092299521,0.19352756440639496,-0.9810914397239685,0.0,0.0,0.0,0.0,0.0,0.0,0.0,0.0,0.0,-22.317180633544922,-0.15067251026630402,-0.2561390995979309,0.0,0.0,0.0,0.0,0.0,0.0,0.0,0.0,0.0,-0.015486488118767738,-0.004084914922714233,0.04447859153151512,0.0,0.0,0.0,0.0,0.0,0.0,0.0,0.0,0.0
1606987740948781356,1435293,1606984139583215004,imu_link,0.0024458332918584347,0.0008582175942137837,0.19352906942367554,-0.9810911417007446,0.0,0.0,0.0,0.0,0.0,0.0,0.0,0.0,0.0,-22.317354202270508,-0.1507258266210556,-0.2559414207935333,0.0,0.0,0.0,0.0,0.0,0.0,0.0,0.0,0.0,-0.009895681403577328,-0.0017247805371880531,0.04356750100851059,0.0,0.0,0.0,0.0,0.0,0.0,0.0,0.0,0.0
1606987740948849006,1435294,1606984139583276841,imu_link,0.0024458332918584347,0.0008582175942137837,0.19352906942367554,-0.9810911417007446,0.0,0.0,0.0,0.0,0.0,0.0,0.0,0.0,0.0,-22.317354202270508,-0.1507258266210556,-0.2559414207935333,0.0,0.0,0.0,0.0,0.0,0.0,0.0,0.0,0.0,-0.009895681403577328,-0.0017247805371880531,0.04356750100851059,0.0,0.0,0.0,0.0,0.0,0.0,0.0,0.0,0.0
1606987740948885587,1435295,1606984139583399999,imu_link,0.002447643782943487,0.0008617441635578871,0.1935293972492218,-0.9810910224914551,0.0,0.0,0.0,0.0,0.0,0.0,0.0,0.0,0.0,-22.317392349243164,-0.1511625200510025,-0.2560666799545288,0.0,0.0,0.0,0.0,0.0,0.0,0.0,0.0,0.0,0.006709542591124773,-0.0016872804844751954,0.034384746104478836,0.0,0.0,0.0,0.0,0.0,0.0,0.0,0.0,0.0
1606987740948917501,1435296,1606984139583460255,imu_link,0.002447643782943487,0.0008617441635578871,0.1935293972492218,-0.9810910224914551,0.0,0.0,0.0,0.0,0.0,0.0,0.0,0.0,0.0,-22.317392349243164,-0.1511625200510025,-0.2560666799545288,0.0,0.0,0.0,0.0,0.0,0.0,0.0,0.0,0.0,0.006709542591124773,-0.0016872804844751954,0.034384746104478836,0.0,0.0,0.0,0.0,0.0,0.0,0.0,0.0,0.0
1606987740948933273,1435297,1606984139583525183,imu_link,0.0024461462162435055,0.0008601759327575564,0.19353079795837402,-0.981090784072876,0.0,0.0,0.0,0.0,0.0,0.0,0.0,0.0,0.0,-22.317556381225586,-0.15095338225364685,-0.25593289732933044,0.0,0.0,0.0,0.0,0.0,0.0,0.0,0.0,0.0,-0.002581798005849123,-0.0015837480314075947,0.029300812631845474,0.0,0.0,0.0,0.0,0.0,0.0,0.0,0.0,0.0
1606987740952873571,1435298,1606984139596537188,imu_link,0.0024461462162435055,0.0008601759327575564,0.19353079795837402,-0.981090784072876,0.0,0.0,0.0,0.0,0.0,0.0,0.0,0.0,0.0,-22.317556381225586,-0.15095338225364685,-0.25593289732933044,0.0,0.0,0.0,0.0,0.0,0.0,0.0,0.0,0.0,-0.002581798005849123,-0.0015837480314075947,0.029300812631845474,0.0,0.0,0.0,0.0,0.0,0.0,0.0,0.0,0.0
1606987740952925803,1435299,1606984139596634837,imu_link,0.0024463350418955088,0.0008622587192803621,0.1935308277606964,-0.981090784072876,0.0,0.0,0.0,0.0,0.0,0.0,0.0,0.0,0.0,-22.31755828857422,-0.15119172632694244,-0.25590792298316956,0.0,0.0,0.0,0.0,0.0,0.0,0.0,0.0,0.0,-0.007322380319237709,-0.0033679883927106857,0.05996736139059067,0.0,0.0,0.0,0.0,0.0,0.0,0.0,0.0,0.0
1606987740952976380,1435300,1606984139596742804,imu_link,0.0024463350418955088,0.0008622587192803621,0.1935308277606964,-0.981090784072876,0.0,0.0,0.0,0.0,0.0,0.0,0.0,0.0,0.0,-22.31755828857422,-0.15119172632694244,-0.25590792298316956,0.0,0.0,0.0,0.0,0.0,0.0,0.0,0.0,0.0,-0.007322380319237709,-0.0033679883927106857,0.05996736139059067,0.0,0.0,0.0,0.0,0.0,0.0,0.0,0.0,0.0
1606987740952992397,1435301,1606984139596802077,imu_link,0.002446961821988225,0.0008618006249889731,0.19353023171424866,-0.9810909032821655,0.0,0.0,0.0,0.0,0.0,0.0,0.0,0.0,0.0,-22.317487716674805,-0.15115396678447723,-0.2559886872768402,0.0,0.0,0.0,0.0,0.0,0.0,0.0,0.0,0.0,0.001115678809583187,-0.017440250143408775,0.06145675480365753,0.0,0.0,0.0,0.0,0.0,0.0,0.0,0.0,0.0
1606987740987386220,1435302,1606984139596860376,imu_link,0.002446961821988225,0.0008618006249889731,0.19353023171424866,-0.9810909032821655,0.0,0.0,0.0,0.0,0.0,0.0,0.0,0.0,0.0,-22.317487716674805,-0.15115396678447723,-0.2559886872768402,0.0,0.0,0.0,0.0,0.0,0.0,0.0,0.0,0.0,0.001115678809583187,-0.017440250143408775,0.06145675480365753,0.0,0.0,0.0,0.0,0.0,0.0,0.0,0.0,0.0
1606987740987418490,1435303,1606984139596913940,imu_link,0.002442008350044489,0.0008628333453088999,0.19353067874908447,-0.9810908436775208,0.0,0.0,0.0,0.0,0.0,0.0,0.0,0.0,0.0,-22.317541122436523,-0.1511603444814682,-0.25540879368782043,0.0,0.0,0.0,0.0,0.0,0.0,0.0,0.0,0.0,0.0038703177124261856,-0.003663418348878622,0.058036793023347855,0.0,0.0,0.0,0.0,0.0,0.0,0.0,0.0,0.0
1606987740987458025,1435304,1606984139596986518,imu_link,0.002442008350044489,0.0008628333453088999,0.19353067874908447,-0.9810908436775208,0.0,0.0,0.0,0.0,0.0,0.0,0.0,0.0,0.0,-22.317541122436523,-0.1511603444814682,-0.25540879368782043,0.0,0.0,0.0,0.0,0.0,0.0,0.0,0.0,0.0,0.0038703177124261856,-0.003663418348878622,0.058036793023347855,0.0,0.0,0.0,0.0,0.0,0.0,0.0,0.0,0.0
1606987740987467965,1435305,1606984139597042868,imu_link,0.0024427275639027357,0.0008627047063782811,0.19353161752223969,-0.9810906052589417,0.0,0.0,0.0,0.0,0.0,0.0,0.0,0.0,0.0,-22.317651748657227,-0.1511620730161667,-0.2554923892021179,0.0,0.0,0.0,0.0,0.0,0.0,0.0,0.0,0.0,-0.008377748541533947,0.034248463809490204,0.0955139696598053,0.0,0.0,0.0,0.0,0.0,0.0,0.0,0.0,0.0
1606987740987473360,1435306,1606984139597093562,imu_link,0.0024427275639027357,0.0008627047063782811,0.19353161752223969,-0.9810906052589417,0.0,0.0,0.0,0.0,0.0,0.0,0.0,0.0,0.0,-22.317651748657227,-0.1511620730161667,-0.2554923892021179,0.0,0.0,0.0,0.0,0.0,0.0,0.0,0.0,0.0,-0.008377748541533947,0.034248463809490204,0.0955139696598053,0.0,0.0,0.0,0.0,0.0,0.0,0.0,0.0,0.0
1606987740996297959,1435307,1606984139597146107,imu_link,0.0024492493830621243,0.0008633164688944817,0.19352829456329346,-0.9810912609100342,0.0,0.0,0.0,0.0,0.0,0.0,0.0,0.0,0.0,-22.3172607421875,-0.15137462317943573,-0.2562125325202942,0.0,0.0,0.0,0.0,0.0,0.0,0.0,0.0,0.0,-0.006836176384240389,0.031172823160886765,0.07957003265619278,0.0,0.0,0.0,0.0,0.0,0.0,0.0,0.0,0.0
1606987740996330524,1435308,1606984139597203630,imu_link,0.0024492493830621243,0.0008633164688944817,0.19352829456329346,-0.9810912609100342,0.0,0.0,0.0,0.0,0.0,0.0,0.0,0.0,0.0,-22.3172607421875,-0.15137462317943573,-0.2562125325202942,0.0,0.0,0.0,0.0,0.0,0.0,0.0,0.0,0.0,-0.006836176384240389,0.031172823160886765,0.07957003265619278,0.0,0.0,0.0,0.0,0.0,0.0,0.0,0.0,0.0
1606987740996340221,1435309,1606984139610043606,imu_link,0.0024502601008862257,0.0008629581425338984,0.1935281902551651,-0.9810912609100342,0.0,0.0,0.0,0.0,0.0,0.0,0.0,0.0,0.0,-22.31725311279297,-0.15135671198368073,-0.2563340961933136,0.0,0.0,0.0,0.0,0.0,0.0,0.0,0.0,0.0,-0.0022599000949412584,0.02111080102622509,0.06552527099847794,0.0,0.0,0.0,0.0,0.0,0.0,0.0,0.0,0.0
1606987740996352353,1435310,1606984139610139898,imu_link,0.0024502601008862257,0.0008629581425338984,0.1935281902551651,-0.9810912609100342,0.0,0.0,0.0,0.0,0.0,0.0,0.0,0.0,0.0,-22.31725311279297,-0.15135671198368073,-0.2563340961933136,0.0,0.0,0.0,0.0,0.0,0.0,0.0,0.0,0.0,-0.0022599000949412584,0.02111080102622509,0.06552527099847794,0.0,0.0,0.0,0.0,0.0,0.0,0.0,0.0,0.0
1606987741000814138,1435311,1606984139610243405,imu_link,0.0024558070581406355,0.0008610073709860444,0.1935216188430786,-0.9810925722122192,0.0,0.0,0.0,0.0,0.0,0.0,0.0,0.0,0.0,-22.316482543945312,-0.1512586921453476,-0.25700199604034424,0.0,0.0,0.0,0.0,0.0,0.0,0.0,0.0,0.0,0.007019920740276575,0.006950331386178732,0.06971191614866257,0.0,0.0,0.0,0.0,0.0,0.0,0.0,0.0,0.0
1606987741000853257,1435312,1606984139610305642,imu_link,0.0024558070581406355,0.0008610073709860444,0.1935216188430786,-0.9810925722122192,0.0,0.0,0.0,0.0,0.0,0.0,0.0,0.0,0.0,-22.316482543945312,-0.1512586921453476,-0.25700199604034424,0.0,0.0,0.0,0.0,0.0,0.0,0.0,0.0,0.0,0.007019920740276575,0.006950331386178732,0.06971191614866257,0.0,0.0,0.0,0.0,0.0,0.0,0.0,0.0,0.0
1606987741000870059,1435313,1606984139610359965,imu_link,0.0024570475798100233,0.0008615288534201682,0.1935216635465622,-0.9810925722122192,0.0,0.0,0.0,0.0,0.0,0.0,0.0,0.0,0.0,-22.316486358642578,-0.15134485065937042,-0.2571299076080322,0.0,0.0,0.0,0.0,0.0,0.0,0.0,0.0,0.0,0.008513586595654488,-0.018015874549746513,0.05365220084786415,0.0,0.0,0.0,0.0,0.0,0.0,0.0,0.0,0.0
1606987741000891958,1435314,1606984139610416813,imu_link,0.0024570475798100233,0.0008615288534201682,0.1935216635465622,-0.9810925722122192,0.0,0.0,0.0,0.0,0.0,0.0,0.0,0.0,0.0,-22.316486358642578,-0.15134485065937042,-0.2571299076080322,0.0,0.0,0.0,0.0,0.0,0.0,0.0,0.0,0.0,0.008513586595654488,-0.018015874549746513,0.05365220084786415,0.0,0.0,0.0,0.0,0.0,0.0,0.0,0.0,0.0
1606987741011868164,1435315,1606984139610541047,imu_link,0.0024520643055438995,0.000861192645970732,0.19352075457572937,-0.9810927510261536,0.0,0.0,0.0,0.0,0.0,0.0,0.0,0.0,0.0,-22.316381454467773,-0.15119630098342896,-0.2565772831439972,0.0,0.0,0.0,0.0,0.0,0.0,0.0,0.0,0.0,0.00253876275382936,-0.013263621367514133,0.03594132140278816,0.0,0.0,0.0,0.0,0.0,0.0,0.0,0.0,0.0
1606987741011918290,1435316,1606984139610599997,imu_link,0.0024520643055438995,0.000861192645970732,0.19352075457572937,-0.9810927510261536,0.0,0.0,0.0,0.0,0.0,0.0,0.0,0.0,0.0,-22.316381454467773,-0.15119630098342896,-0.2565772831439972,0.0,0.0,0.0,0.0,0.0,0.0,0.0,0.0,0.0,0.00253876275382936,-0.013263621367514133,0.03594132140278816,0.0,0.0,0.0,0.0,0.0,0.0,0.0,0.0,0.0
1606987741011944460,1435317,1606984139610706517,imu_link,0.0024517637211829424,0.000860921514686197,0.19352132081985474,-0.9810926914215088,0.0,0.0,0.0,0.0,0.0,0.0,0.0,0.0,0.0,-22.31644630432129,-0.15115930140018463,-0.2565493583679199,0.0,0.0,0.0,0.0,0.0,0.0,0.0,0.0,0.0,0.0118081234395504,0.0022907154634594917,0.056613825261592865,0.0,0.0,0.0,0.0,0.0,0.0,0.0,0.0,0.0
1606987741011961655,1435318,1606984139610761687,imu_link,0.0024517637211829424,0.000860921514686197,0.19352132081985474,-0.9810926914215088,0.0,0.0,0.0,0.0,0.0,0.0,0.0,0.0,0.0,-22.31644630432129,-0.15115930140018463,-0.2565493583679199,0.0,0.0,0.0,0.0,0.0,0.0,0.0,0.0,0.0,0.0118081234395504,0.0022907154634594917,0.056613825261592865,0.0,0.0,0.0,0.0,0.0,0.0,0.0,0.0,0.0
1606987741011971432,1435319,1606984139610820353,imu_link,0.0024533672258257866,0.0008611170924268663,0.1935214251279831,-0.981092631816864,0.0,0.0,0.0,0.0,0.0,0.0,0.0,0.0,0.0,-22.316457748413086,-0.15121686458587646,-0.25672534108161926,0.0,0.0,0.0,0.0,0.0,0.0,0.0,0.0,0.0,0.021198265254497528,0.006392506882548332,0.06557779014110565,0.0,0.0,0.0,0.0,0.0,0.0,0.0,0.0,0.0
1606987741028701718,1435320,1606984139623960718,imu_link,0.0024533672258257866,0.0008611170924268663,0.1935214251279831,-0.981092631816864,0.0,0.0,0.0,0.0,0.0,0.0,0.0,0.0,0.0,-22.316457748413086,-0.15121686458587646,-0.25672534108161926,0.0,0.0,0.0,0.0,0.0,0.0,0.0,0.0,0.0,0.021198265254497528,0.006392506882548332,0.06557779014110565,0.0,0.0,0.0,0.0,0.0,0.0,0.0,0.0,0.0
1606987741028726821,1435321,1606984139624074189,imu_link,0.0024509273935109377,0.0008618893916718662,0.193522110581398,-0.9810924530029297,0.0,0.0,0.0,0.0,0.0,0.0,0.0,0.0,0.0,-22.316539764404297,-0.15124976634979248,-0.25643378496170044,0.0,0.0,0.0,0.0,0.0,0.0,0.0,0.0,0.0,0.024003811180591583,0.0022663134150207043,0.05804921314120293,0.0,0.0,0.0,0.0,0.0,0.0,0.0,0.0,0.0
1606987741028768768,1435322,1606984139624177961,imu_link,0.0024509273935109377,0.0008618893916718662,0.193522110581398,-0.9810924530029297,0.0,0.0,0.0,0.0,0.0,0.0,0.0,0.0,0.0,-22.316539764404297,-0.15124976634979248,-0.25643378496170044,0.0,0.0,0.0,0.0,0.0,0.0,0.0,0.0,0.0,0.024003811180591583,0.0022663134150207043,0.05804921314120293,0.0,0.0,0.0,0.0,0.0,0.0,0.0,0.0,0.0
1606987741028788355,1435323,1606984139624249767,imu_link,0.0024510447401553392,0.0008580675930716097,0.1935194432735443,-0.9810930490493774,0.0,0.0,0.0,0.0,0.0,0.0,0.0,0.0,0.0,-22.31623077392578,-0.1508220136165619,-0.2565321624279022,0.0,0.0,0.0,0.0,0.0,0.0,0.0,0.0,0.0,0.013241191394627094,0.013622710481286049,0.06540998071432114,0.0,0.0,0.0,0.0,0.0,0.0,0.0,0.0,0.0
1606987741091105256,1435324,1606984139624317528,imu_link,0.0024510447401553392,0.0008580675930716097,0.1935194432735443,-0.9810930490493774,0.0,0.0,0.0,0.0,0.0,0.0,0.0,0.0,0.0,-22.31623077392578,-0.1508220136165619,-0.2565321624279022,0.0,0.0,0.0,0.0,0.0,0.0,0.0,0.0,0.0,0.013241191394627094,0.013622710481286049,0.06540998071432114,0.0,0.0,0.0,0.0,0.0,0.0,0.0,0.0,0.0
1606987741091128016,1435325,1606984139624395208,imu_link,0.0024521942250430584,0.0008592837839387357,0.19351767003536224,-0.9810933470726013,0.0,0.0,0.0,0.0,0.0,0.0,0.0,0.0,0.0,-22.316022872924805,-0.1509837657213211,-0.2566346824169159,0.0,0.0,0.0,0.0,0.0,0.0,0.0,0.0,0.0,0.007027674466371536,0.01716643199324608,0.05859759449958801,0.0,0.0,0.0,0.0,0.0,0.0,0.0,0.0,0.0
1606987741091143072,1435326,1606984139624462331,imu_link,0.0024521942250430584,0.0008592837839387357,0.19351767003536224,-0.9810933470726013,0.0,0.0,0.0,0.0,0.0,0.0,0.0,0.0,0.0,-22.316022872924805,-0.1509837657213211,-0.2566346824169159,0.0,0.0,0.0,0.0,0.0,0.0,0.0,0.0,0.0,0.007027674466371536,0.01716643199324608,0.05859759449958801,0.0,0.0,0.0,0.0,0.0,0.0,0.0,0.0,0.0
1606987741091154116,1435327,1606984139624594653,imu_link,0.00245586852543056,0.0008593456586822867,0.19351798295974731,-0.9810933470726013,0.0,0.0,0.0,0.0,0.0,0.0,0.0,0.0,0.0,-22.316057205200195,-0.15107229351997375,-0.25704631209373474,0.0,0.0,0.0,0.0,0.0,0.0,0.0,0.0,0.0,-0.003095654770731926,0.0034281546249985695,0.033584754914045334,0.0,0.0,0.0,0.0,0.0,0.0,0.0,0.0,0.0
1606987741091210828,1435328,1606984139624660774,imu_link,0.00245586852543056,0.0008593456586822867,0.19351798295974731,-0.9810933470726013,0.0,0.0,0.0,0.0,0.0,0.0,0.0,0.0,0.0,-22.316057205200195,-0.15107229351997375,-0.25704631209373474,0.0,0.0,0.0,0.0,0.0,0.0,0.0,0.0,0.0,-0.003095654770731926,0.0034281546249985695,0.033584754914045334,0.0,0.0,0.0,0.0,0.0,0.0,0.0,0.0,0.0
1606987741097322939,1435329,1606984139624731839,imu_link,0.0024555507116019726,0.0008599897846579552,0.19351895153522491,-0.9810931086540222,0.0,0.0,0.0,0.0,0.0,0.0,0.0,0.0,0.0,-22.31616973876953,-0.15113790333271027,-0.25699615478515625,0.0,0.0,0.0,0.0,0.0,0.0,0.0,0.0,0.0,-0.010007571429014206,0.010064387694001198,0.016184087842702866,0.0,0.0,0.0,0.0,0.0,0.0,0.0,0.0,0.0
1606987741097347375,1435330,1606984139624796268,imu_link,0.0024555507116019726,0.0008599897846579552,0.19351895153522491,-0.9810931086540222,0.0,0.0,0.0,0.0,0.0,0.0,0.0,0.0,0.0,-22.31616973876953,-0.15113790333271027,-0.25699615478515625,0.0,0.0,0.0,0.0,0.0,0.0,0.0,0.0,0.0,-0.010007571429014206,0.010064387694001198,0.016184087842702866,0.0,0.0,0.0,0.0,0.0,0.0,0.0,0.0,0.0
1606987741097355444,1435331,1606984139636757221,imu_link,0.002459145151078701,0.0008611039957031608,0.19352304935455322,-0.9810922741889954,0.0,0.0,0.0,0.0,0.0,0.0,0.0,0.0,0.0,-22.316648483276367,-0.1513439565896988,-0.25737497210502625,0.0,0.0,0.0,0.0,0.0,0.0,0.0,0.0,0.0,-0.0017219041474163532,0.00826657097786665,0.026380617171525955,0.0,0.0,0.0,0.0,0.0,0.0,0.0,0.0,0.0
1606987741097367765,1435332,1606984139636871369,imu_link,0.002459145151078701,0.0008611039957031608,0.19352304935455322,-0.9810922741889954,0.0,0.0,0.0,0.0,0.0,0.0,0.0,0.0,0.0,-22.316648483276367,-0.1513439565896988,-0.25737497210502625,0.0,0.0,0.0,0.0,0.0,0.0,0.0,0.0,0.0,-0.0017219041474163532,0.00826657097786665,0.026380617171525955,0.0,0.0,0.0,0.0,0.0,0.0,0.0,0.0,0.0
1606987741100868958,1435333,1606984139636988088,imu_link,0.002460869261994958,0.0008603212190791965,0.19352450966835022,-0.9810919761657715,0.0,0.0,0.0,0.0,0.0,0.0,0.0,0.0,0.0,-22.31682014465332,-0.15129457414150238,-0.25758588314056396,0.0,0.0,0.0,0.0,0.0,0.0,0.0,0.0,0.0,0.0011930533219128847,-0.012267665937542915,0.019403593614697456,0.0,0.0,0.0,0.0,0.0,0.0,0.0,0.0,0.0
1606987741100895707,1435334,1606984139637061982,imu_link,0.002460869261994958,0.0008603212190791965,0.19352450966835022,-0.9810919761657715,0.0,0.0,0.0,0.0,0.0,0.0,0.0,0.0,0.0,-22.31682014465332,-0.15129457414150238,-0.25758588314056396,0.0,0.0,0.0,0.0,0.0,0.0,0.0,0.0,0.0,0.0011930533219128847,-0.012267665937542915,0.019403593614697456,0.0,0.0,0.0,0.0,0.0,0.0,0.0,0.0,0.0
1606987741100904060,1435335,1606984139637128464,imu_link,0.0024578371085226536,0.0008604176109656692,0.19352777302265167,-0.9810913801193237,0.0,0.0,0.0,0.0,0.0,0.0,0.0,0.0,0.0,-22.317201614379883,-0.15123902261257172,-0.257242351770401,0.0,0.0,0.0,0.0,0.0,0.0,0.0,0.0,0.0,0.007220152299851179,-0.01202659122645855,0.027549542486667633,0.0,0.0,0.0,0.0,0.0,0.0,0.0,0.0,0.0
1606987741100913897,1435336,1606984139637209548,imu_link,0.0024578371085226536,0.0008604176109656692,0.19352777302265167,-0.9810913801193237,0.0,0.0,0.0,0.0,0.0,0.0,0.0,0.0,0.0,-22.317201614379883,-0.15123902261257172,-0.257242351770401,0.0,0.0,0.0,0.0,0.0,0.0,0.0,0.0,0.0,0.007220152299851179,-0.01202659122645855,0.027549542486667633,0.0,0.0,0.0,0.0,0.0,0.0,0.0,0.0,0.0
1606987741100945948,1435337,1606984139637276315,imu_link,0.0024580517783761024,0.0008595183026045561,0.19352532923221588,-0.9810918569564819,0.0,0.0,0.0,0.0,0.0,0.0,0.0,0.0,0.0,-22.316913604736328,-0.15114204585552216,-0.25728681683540344,0.0,0.0,0.0,0.0,0.0,0.0,0.0,0.0,0.0,0.0038722886238247156,-0.015938932076096535,0.05046935752034187,0.0,0.0,0.0,0.0,0.0,0.0,0.0,0.0,0.0
1606987741104104034,1435338,1606984139637341505,imu_link,0.0024580517783761024,0.0008595183026045561,0.19352532923221588,-0.9810918569564819,0.0,0.0,0.0,0.0,0.0,0.0,0.0,0.0,0.0,-22.316913604736328,-0.15114204585552216,-0.25728681683540344,0.0,0.0,0.0,0.0,0.0,0.0,0.0,0.0,0.0,0.0038722886238247156,-0.015938932076096535,0.05046935752034187,0.0,0.0,0.0,0.0,0.0,0.0,0.0,0.0,0.0
1606987741104122783,1435339,1606984139637402928,imu_link,0.0024551833048462868,0.0008592382073402405,0.19352905452251434,-0.9810911417007446,0.0,0.0,0.0,0.0,0.0,0.0,0.0,0.0,0.0,-22.31734848022461,-0.15104791522026062,-0.2569699287414551,0.0,0.0,0.0,0.0,0.0,0.0,0.0,0.0,0.0,0.004387624561786652,-0.0022661222610622644,0.03366536647081375,0.0,0.0,0.0,0.0,0.0,0.0,0.0,0.0,0.0
