%time,field.header.seq,field.header.stamp,field.header.frame_id,field.orientation.x,field.orientation.y,field.orientation.z,field.orientation.w,field.orientation_covariance0,field.orientation_covariance1,field.orientation_covariance2,field.orientation_covariance3,field.orientation_covariance4,field.orientation_covariance5,field.orientation_covariance6,field.orientation_covariance7,field.orientation_covariance8,field.angular_velocity.x,field.angular_velocity.y,field.angular_velocity.z,field.angular_velocity_covariance0,field.angular_velocity_covariance1,field.angular_velocity_covariance2,field.angular_velocity_covariance3,field.angular_velocity_covariance4,field.angular_velocity_covariance5,field.angular_velocity_covariance6,field.angular_velocity_covariance7,field.angular_velocity_covariance8,field.linear_acceleration.x,field.linear_acceleration.y,field.linear_acceleration.z,field.linear_acceleration_covariance0,field.linear_acceleration_covariance1,field.linear_acceleration_covariance2,field.linear_acceleration_covariance3,field.linear_acceleration_covariance4,field.linear_acceleration_covariance5,field.linear_acceleration_covariance6,field.linear_acceleration_covariance7,field.linear_acceleration_covariance8
1606986841766364974,716473,1606983241053788803,imu_link,0.005530249327421188,0.01588323526084423,0.5227349400520325,0.852329432964325,0.0,0.0,0.0,0.0,0.0,0.0,0.0,0.0,0.0,63.057594299316406,1.2201364040374756,1.4920666217803955,0.0,0.0,0.0,0.0,0.0,0.0,0.0,0.0,0.0,0.0008141840226016939,0.010271001607179642,0.0425768606364727,0.0,0.0,0.0,0.0,0.0,0.0,0.0,0.0,0.0
1606986841766388070,716474,1606983241053885143,imu_link,0.005530249327421188,0.01588323526084423,0.5227349400520325,0.852329432964325,0.0,0.0,0.0,0.0,0.0,0.0,0.0,0.0,0.0,63.057594299316406,1.2201364040374756,1.4920666217803955,0.0,0.0,0.0,0.0,0.0,0.0,0.0,0.0,0.0,0.0008141840226016939,0.010271001607179642,0.0425768606364727,0.0,0.0,0.0,0.0,0.0,0.0,0.0,0.0,0.0
1606986841766416462,716475,1606983241054008131,imu_link,0.0055284141562879086,0.01588139869272709,0.5227372646331787,0.8523280024528503,0.0,0.0,0.0,0.0,0.0,0.0,0.0,0.0,0.0,63.057899475097656,1.2200628519058228,1.4917806386947632,0.0,0.0,0.0,0.0,0.0,0.0,0.0,0.0,0.0,0.01348641887307167,0.010194089263677597,0.06426049023866653,0.0,0.0,0.0,0.0,0.0,0.0,0.0,0.0,0.0
1606986841766439313,716476,1606983241054064665,imu_link,0.0055284141562879086,0.01588139869272709,0.5227372646331787,0.8523280024528503,0.0,0.0,0.0,0.0,0.0,0.0,0.0,0.0,0.0,63.057899475097656,1.2200628519058228,1.4917806386947632,0.0,0.0,0.0,0.0,0.0,0.0,0.0,0.0,0.0,0.01348641887307167,0.010194089263677597,0.06426049023866653,0.0,0.0,0.0,0.0,0.0,0.0,0.0,0.0,0.0
1606986841769698645,716477,1606983241054171274,imu_link,0.005530386231839657,0.01588055118918419,0.5227357745170593,0.8523289561271667,0.0,0.0,0.0,0.0,0.0,0.0,0.0,0.0,0.0,63.05769729614258,1.2198647260665894,1.4919202327728271,0.0,0.0,0.0,0.0,0.0,0.0,0.0,0.0,0.0,0.004091871902346611,-0.00470114778727293,0.03648119047284126,0.0,0.0,0.0,0.0,0.0,0.0,0.0,0.0,0.0
1606986841769722335,716478,1606983241054239254,imu_link,0.005530386231839657,0.01588055118918419,0.5227357745170593,0.8523289561271667,0.0,0.0,0.0,0.0,0.0,0.0,0.0,0.0,0.0,63.05769729614258,1.2198647260665894,1.4919202327728271,0.0,0.0,0.0,0.0,0.0,0.0,0.0,0.0,0.0,0.004091871902346611,-0.00470114778727293,0.03648119047284126,0.0,0.0,0.0,0.0,0.0,0.0,0.0,0.0,0.0
1606986841769735396,716479,1606983241054299551,imu_link,0.005531064700335264,0.015881234779953957,0.5227372646331787,0.8523280024528503,0.0,0.0,0.0,0.0,0.0,0.0,0.0,0.0,0.0,63.057899475097656,1.2198880910873413,1.4920296669006348,0.0,0.0,0.0,0.0,0.0,0.0,0.0,0.0,0.0,-0.017785387113690376,-0.015066245570778847,0.024635158479213715,0.0,0.0,0.0,0.0,0.0,0.0,0.0,0.0,0.0
1606986841769744018,716480,1606983241054353333,imu_link,0.005531064700335264,0.015881234779953957,0.5227372646331787,0.8523280024528503,0.0,0.0,0.0,0.0,0.0,0.0,0.0,0.0,0.0,63.057899475097656,1.2198880910873413,1.4920296669006348,0.0,0.0,0.0,0.0,0.0,0.0,0.0,0.0,0.0,-0.017785387113690376,-0.015066245570778847,0.024635158479213715,0.0,0.0,0.0,0.0,0.0,0.0,0.0,0.0,0.0
1606986841863494618,716481,1606983241054404843,imu_link,0.005529546178877354,0.01588071696460247,0.5227360725402832,0.8523287177085876,0.0,0.0,0.0,0.0,0.0,0.0,0.0,0.0,0.0,63.057735443115234,1.2199304103851318,1.4918487071990967,0.0,0.0,0.0,0.0,0.0,0.0,0.0,0.0,0.0,-0.022007502615451813,-0.011754758656024933,0.023507557809352875,0.0,0.0,0.0,0.0,0.0,0.0,0.0,0.0,0.0
1606986841863517757,716482,1606983241054454785,imu_link,0.005529546178877354,0.01588071696460247,0.5227360725402832,0.8523287177085876,0.0,0.0,0.0,0.0,0.0,0.0,0.0,0.0,0.0,63.057735443115234,1.2199304103851318,1.4918487071990967,0.0,0.0,0.0,0.0,0.0,0.0,0.0,0.0,0.0,-0.022007502615451813,-0.011754758656024933,0.023507557809352875,0.0,0.0,0.0,0.0,0.0,0.0,0.0,0.0,0.0
1606986841863532867,716483,1606983241054504503,imu_link,0.005530931055545807,0.01588190719485283,0.5227377414703369,0.8523277044296265,0.0,0.0,0.0,0.0,0.0,0.0,0.0,0.0,0.0,63.05796432495117,1.2199608087539673,1.4920575618743896,0.0,0.0,0.0,0.0,0.0,0.0,0.0,0.0,0.0,-0.006114427000284195,-0.0019389473600313067,0.002313419012352824,0.0,0.0,0.0,0.0,0.0,0.0,0.0,0.0,0.0
1606986841863540032,716484,1606983241066615176,imu_link,0.005530931055545807,0.01588190719485283,0.5227377414703369,0.8523277044296265,0.0,0.0,0.0,0.0,0.0,0.0,0.0,0.0,0.0,63.05796432495117,1.2199608087539673,1.4920575618743896,0.0,0.0,0.0,0.0,0.0,0.0,0.0,0.0,0.0,-0.006114427000284195,-0.0019389473600313067,0.002313419012352824,0.0,0.0,0.0,0.0,0.0,0.0,0.0,0.0,0.0
1606986841863547668,716485,1606983241066703956,imu_link,0.00553150475025177,0.01588001288473606,0.5227371454238892,0.8523280620574951,0.0,0.0,0.0,0.0,0.0,0.0,0.0,0.0,0.0,63.05788040161133,1.2197425365447998,1.4919992685317993,0.0,0.0,0.0,0.0,0.0,0.0,0.0,0.0,0.0,0.015243352390825748,-0.00780210318043828,0.002088976791128516,0.0,0.0,0.0,0.0,0.0,0.0,0.0,0.0,0.0
1606986841868266358,716486,1606983241066802879,imu_link,0.00553150475025177,0.01588001288473606,0.5227371454238892,0.8523280620574951,0.0,0.0,0.0,0.0,0.0,0.0,0.0,0.0,0.0,63.05788040161133,1.2197425365447998,1.4919992685317993,0.0,0.0,0.0,0.0,0.0,0.0,0.0,0.0,0.0,0.015243352390825748,-0.00780210318043828,0.002088976791128516,0.0,0.0,0.0,0.0,0.0,0.0,0.0,0.0,0.0
1606986841868284385,716487,1606983241066857354,imu_link,0.005531951319426298,0.01588067226111889,0.5227394104003906,0.8523266911506653,0.0,0.0,0.0,0.0,0.0,0.0,0.0,0.0,0.0,63.058189392089844,1.2197761535644531,1.492085576057434,0.0,0.0,0.0,0.0,0.0,0.0,0.0,0.0,0.0,0.0097094951197505,-0.010477719828486443,0.033196866512298584,0.0,0.0,0.0,0.0,0.0,0.0,0.0,0.0,0.0
1606986841868318773,716488,1606983241066905093,imu_link,0.005531951319426298,0.01588067226111889,0.5227394104003906,0.8523266911506653,0.0,0.0,0.0,0.0,0.0,0.0,0.0,0.0,0.0,63.058189392089844,1.2197761535644531,1.492085576057434,0.0,0.0,0.0,0.0,0.0,0.0,0.0,0.0,0.0,0.0097094951197505,-0.010477719828486443,0.033196866512298584,0.0,0.0,0.0,0.0,0.0,0.0,0.0,0.0,0.0
1606986841868343653,716489,1606983241067001418,imu_link,0.005533078219741583,0.01588229276239872,0.5227391123771667,0.8523268103599548,0.0,0.0,0.0,0.0,0.0,0.0,0.0,0.0,0.0,63.05815505981445,1.219867467880249,1.4922922849655151,0.0,0.0,0.0,0.0,0.0,0.0,0.0,0.0,0.0,-0.010089518502354622,0.0020135068334639072,0.04260356351733208,0.0,0.0,0.0,0.0,0.0,0.0,0.0,0.0,0.0
1606986841883224915,716490,1606983241067056168,imu_link,0.005533078219741583,0.01588229276239872,0.5227391123771667,0.8523268103599548,0.0,0.0,0.0,0.0,0.0,0.0,0.0,0.0,0.0,63.05815505981445,1.219867467880249,1.4922922849655151,0.0,0.0,0.0,0.0,0.0,0.0,0.0,0.0,0.0,-0.010089518502354622,0.0020135068334639072,0.04260356351733208,0.0,0.0,0.0,0.0,0.0,0.0,0.0,0.0,0.0
1606986841883268412,716491,1606983241067109612,imu_link,0.005533494986593723,0.01588168367743492,0.5227323174476624,0.8523309826850891,0.0,0.0,0.0,0.0,0.0,0.0,0.0,0.0,0.0,63.057247161865234,1.219794750213623,1.4922869205474854,0.0,0.0,0.0,0.0,0.0,0.0,0.0,0.0,0.0,-0.011338721960783005,0.006173413712531328,0.022239254787564278,0.0,0.0,0.0,0.0,0.0,0.0,0.0,0.0,0.0
1606986841883294570,716492,1606983241067156666,imu_link,0.005533494986593723,0.01588168367743492,0.5227323174476624,0.8523309826850891,0.0,0.0,0.0,0.0,0.0,0.0,0.0,0.0,0.0,63.057247161865234,1.219794750213623,1.4922869205474854,0.0,0.0,0.0,0.0,0.0,0.0,0.0,0.0,0.0,-0.011338721960783005,0.006173413712531328,0.022239254787564278,0.0,0.0,0.0,0.0,0.0,0.0,0.0,0.0,0.0
1606986841883313718,716493,1606983241067206393,imu_link,0.005534789524972439,0.015879753977060318,0.5227302312850952,0.8523322939872742,0.0,0.0,0.0,0.0,0.0,0.0,0.0,0.0,0.0,63.05695343017578,1.2195324897766113,1.4922947883605957,0.0,0.0,0.0,0.0,0.0,0.0,0.0,0.0,0.0,-0.012356901541352272,0.015241745859384537,0.004860871005803347,0.0,0.0,0.0,0.0,0.0,0.0,0.0,0.0,0.0
1606986841883334246,716494,1606983241080381472,imu_link,0.005534789524972439,0.015879753977060318,0.5227302312850952,0.8523322939872742,0.0,0.0,0.0,0.0,0.0,0.0,0.0,0.0,0.0,63.05695343017578,1.2195324897766113,1.4922947883605957,0.0,0.0,0.0,0.0,0.0,0.0,0.0,0.0,0.0,-0.012356901541352272,0.015241745859384537,0.004860871005803347,0.0,0.0,0.0,0.0,0.0,0.0,0.0,0.0,0.0
1606986841916136485,716495,1606983241080491134,imu_link,0.005535678006708622,0.0158781036734581,0.522723913192749,0.8523362278938293,0.0,0.0,0.0,0.0,0.0,0.0,0.0,0.0,0.0,63.05609893798828,1.2193291187286377,1.4922734498977661,0.0,0.0,0.0,0.0,0.0,0.0,0.0,0.0,0.0,-0.011703938245773315,0.009683307260274887,-0.0023230514489114285,0.0,0.0,0.0,0.0,0.0,0.0,0.0,0.0,0.0
1606986841916169702,716496,1606983241080609356,imu_link,0.005535678006708622,0.0158781036734581,0.522723913192749,0.8523362278938293,0.0,0.0,0.0,0.0,0.0,0.0,0.0,0.0,0.0,63.05609893798828,1.2193291187286377,1.4922734498977661,0.0,0.0,0.0,0.0,0.0,0.0,0.0,0.0,0.0,-0.011703938245773315,0.009683307260274887,-0.0023230514489114285,0.0,0.0,0.0,0.0,0.0,0.0,0.0,0.0,0.0
1606986841916195527,716497,1606983241080678636,imu_link,0.005534441210329533,0.01587667129933834,0.5227219462394714,0.8523374795913696,0.0,0.0,0.0,0.0,0.0,0.0,0.0,0.0,0.0,63.055824279785156,1.2192667722702026,1.4920638799667358,0.0,0.0,0.0,0.0,0.0,0.0,0.0,0.0,0.0,0.0037102915812283754,0.00452865706756711,0.017362080514431,0.0,0.0,0.0,0.0,0.0,0.0,0.0,0.0,0.0
1606986841916222793,716498,1606983241080746149,imu_link,0.005534441210329533,0.01587667129933834,0.5227219462394714,0.8523374795913696,0.0,0.0,0.0,0.0,0.0,0.0,0.0,0.0,0.0,63.055824279785156,1.2192667722702026,1.4920638799667358,0.0,0.0,0.0,0.0,0.0,0.0,0.0,0.0,0.0,0.0037102915812283754,0.00452865706756711,0.017362080514431,0.0,0.0,0.0,0.0,0.0,0.0,0.0,0.0,0.0
1606986841957166093,716499,1606983241080811740,imu_link,0.005535048898309469,0.015874288976192474,0.5227163434028625,0.8523409366607666,0.0,0.0,0.0,0.0,0.0,0.0,0.0,0.0,0.0,63.0550651550293,1.2190076112747192,1.4919723272323608,0.0,0.0,0.0,0.0,0.0,0.0,0.0,0.0,0.0,0.007423681672662497,0.012145688757300377,0.05362307280302048,0.0,0.0,0.0,0.0,0.0,0.0,0.0,0.0,0.0
1606986841957238766,716500,1606983241080902538,imu_link,0.005535048898309469,0.015874288976192474,0.5227163434028625,0.8523409366607666,0.0,0.0,0.0,0.0,0.0,0.0,0.0,0.0,0.0,63.0550651550293,1.2190076112747192,1.4919723272323608,0.0,0.0,0.0,0.0,0.0,0.0,0.0,0.0,0.0,0.007423681672662497,0.012145688757300377,0.05362307280302048,0.0,0.0,0.0,0.0,0.0,0.0,0.0,0.0,0.0
1606986841957250575,716501,1606983241080969738,imu_link,0.005536674987524748,0.015872998163104057,0.5227146148681641,0.8523419499397278,0.0,0.0,0.0,0.0,0.0,0.0,0.0,0.0,0.0,63.054840087890625,1.2187869548797607,1.4920514822006226,0.0,0.0,0.0,0.0,0.0,0.0,0.0,0.0,0.0,0.005075794644653797,-0.0012433658121153712,0.061361800879240036,0.0,0.0,0.0,0.0,0.0,0.0,0.0,0.0,0.0
1606986841957276386,716502,1606983241081034328,imu_link,0.005536674987524748,0.015872998163104057,0.5227146148681641,0.8523419499397278,0.0,0.0,0.0,0.0,0.0,0.0,0.0,0.0,0.0,63.054840087890625,1.2187869548797607,1.4920514822006226,0.0,0.0,0.0,0.0,0.0,0.0,0.0,0.0,0.0,0.005075794644653797,-0.0012433658121153712,0.061361800879240036,0.0,0.0,0.0,0.0,0.0,0.0,0.0,0.0,0.0
1606986841957304875,716503,1606983241081106791,imu_link,0.005536581855267286,0.015872767195105553,0.5227085947990417,0.8523457050323486,0.0,0.0,0.0,0.0,0.0,0.0,0.0,0.0,0.0,63.054019927978516,1.2187806367874146,1.492019772529602,0.0,0.0,0.0,0.0,0.0,0.0,0.0,0.0,0.0,0.019917059689760208,-0.02105814218521118,0.042594216763973236,0.0,0.0,0.0,0.0,0.0,0.0,0.0,0.0,0.0
1606986841961869270,716504,1606983241081178349,imu_link,0.005536581855267286,0.015872767195105553,0.5227085947990417,0.8523457050323486,0.0,0.0,0.0,0.0,0.0,0.0,0.0,0.0,0.0,63.054019927978516,1.2187806367874146,1.492019772529602,0.0,0.0,0.0,0.0,0.0,0.0,0.0,0.0,0.0,0.019917059689760208,-0.02105814218521118,0.042594216763973236,0.0,0.0,0.0,0.0,0.0,0.0,0.0,0.0,0.0
1606986841961903062,716505,1606983241093844646,imu_link,0.005535483825951815,0.01587212085723877,0.5227065682411194,0.8523469567298889,0.0,0.0,0.0,0.0,0.0,0.0,0.0,0.0,0.0,63.053749084472656,1.2187868356704712,1.4918708801269531,0.0,0.0,0.0,0.0,0.0,0.0,0.0,0.0,0.0,0.01713535189628601,-0.013507325202226639,0.031115800142288208,0.0,0.0,0.0,0.0,0.0,0.0,0.0,0.0,0.0
1606986841961917702,716506,1606983241093934663,imu_link,0.005535483825951815,0.01587212085723877,0.5227065682411194,0.8523469567298889,0.0,0.0,0.0,0.0,0.0,0.0,0.0,0.0,0.0,63.053749084472656,1.2187868356704712,1.4918708801269531,0.0,0.0,0.0,0.0,0.0,0.0,0.0,0.0,0.0,0.01713535189628601,-0.013507325202226639,0.031115800142288208,0.0,0.0,0.0,0.0,0.0,0.0,0.0,0.0,0.0
1606986841961927014,716507,1606983241094012779,imu_link,0.005535901058465242,0.015873953700065613,0.5227121114730835,0.8523435592651367,0.0,0.0,0.0,0.0,0.0,0.0,0.0,0.0,0.0,63.054500579833984,1.2189313173294067,1.4920291900634766,0.0,0.0,0.0,0.0,0.0,0.0,0.0,0.0,0.0,0.0009731814498081803,-9.004355524666607e-05,0.018605418503284454,0.0,0.0,0.0,0.0,0.0,0.0,0.0,0.0,0.0
1606986841968629931,716508,1606983241094087966,imu_link,0.005535901058465242,0.015873953700065613,0.5227121114730835,0.8523435592651367,0.0,0.0,0.0,0.0,0.0,0.0,0.0,0.0,0.0,63.054500579833984,1.2189313173294067,1.4920291900634766,0.0,0.0,0.0,0.0,0.0,0.0,0.0,0.0,0.0,0.0009731814498081803,-9.004355524666607e-05,0.018605418503284454,0.0,0.0,0.0,0.0,0.0,0.0,0.0,0.0,0.0
1606986841968670884,716509,1606983241094151813,imu_link,0.005536356009542942,0.015872642397880554,0.5227123498916626,0.8523434400558472,0.0,0.0,0.0,0.0,0.0,0.0,0.0,0.0,0.0,63.054527282714844,1.2187755107879639,1.4919954538345337,0.0,0.0,0.0,0.0,0.0,0.0,0.0,0.0,0.0,0.00238791829906404,0.009344056248664856,0.02364465780556202,0.0,0.0,0.0,0.0,0.0,0.0,0.0,0.0,0.0
1606986841968700158,716510,1606983241094220412,imu_link,0.005536356009542942,0.015872642397880554,0.5227123498916626,0.8523434400558472,0.0,0.0,0.0,0.0,0.0,0.0,0.0,0.0,0.0,63.054527282714844,1.2187755107879639,1.4919954538345337,0.0,0.0,0.0,0.0,0.0,0.0,0.0,0.0,0.0,0.00238791829906404,0.009344056248664856,0.02364465780556202,0.0,0.0,0.0,0.0,0.0,0.0,0.0,0.0,0.0
1606986841968710696,716511,1606983241094298365,imu_link,0.005537306424230337,0.015874242410063744,0.5227183103561401,0.8523396849632263,0.0,0.0,0.0,0.0,0.0,0.0,0.0,0.0,0.0,63.05533981323242,1.2188642024993896,1.4921931028366089,0.0,0.0,0.0,0.0,0.0,0.0,0.0,0.0,0.0,0.0009443798335269094,0.025279821828007698,0.02034759521484375,0.0,0.0,0.0,0.0,0.0,0.0,0.0,0.0,0.0
1606986841968731458,716512,1606983241094366799,imu_link,0.005537306424230337,0.015874242410063744,0.5227183103561401,0.8523396849632263,0.0,0.0,0.0,0.0,0.0,0.0,0.0,0.0,0.0,63.05533981323242,1.2188642024993896,1.4921931028366089,0.0,0.0,0.0,0.0,0.0,0.0,0.0,0.0,0.0,0.0009443798335269094,0.025279821828007698,0.02034759521484375,0.0,0.0,0.0,0.0,0.0,0.0,0.0,0.0,0.0
1606986841973253065,716513,1606983241094428181,imu_link,0.005537932738661766,0.015872709453105927,0.5227175354957581,0.8523402214050293,0.0,0.0,0.0,0.0,0.0,0.0,0.0,0.0,0.0,63.05522537231445,1.2186784744262695,1.4921609163284302,0.0,0.0,0.0,0.0,0.0,0.0,0.0,0.0,0.0,-0.009836452081799507,0.018113793805241585,0.014107235707342625,0.0,0.0,0.0,0.0,0.0,0.0,0.0,0.0,0.0
1606986841973285817,716514,1606983241094492394,imu_link,0.005537932738661766,0.015872709453105927,0.5227175354957581,0.8523402214050293,0.0,0.0,0.0,0.0,0.0,0.0,0.0,0.0,0.0,63.05522537231445,1.2186784744262695,1.4921609163284302,0.0,0.0,0.0,0.0,0.0,0.0,0.0,0.0,0.0,-0.009836452081799507,0.018113793805241585,0.014107235707342625,0.0,0.0,0.0,0.0,0.0,0.0,0.0,0.0,0.0
1606986841973300113,716515,1606983241094561485,imu_link,0.005535850767046213,0.015869829803705215,0.5227236151695251,0.852336585521698,0.0,0.0,0.0,0.0,0.0,0.0,0.0,0.0,0.0,63.0560302734375,1.2185114622116089,1.4917935132980347,0.0,0.0,0.0,0.0,0.0,0.0,0.0,0.0,0.0,0.0013111080043017864,0.005472064018249512,0.040102630853652954,0.0,0.0,0.0,0.0,0.0,0.0,0.0,0.0,0.0
1606986841973317104,716516,1606983241107589466,imu_link,0.005535850767046213,0.015869829803705215,0.5227236151695251,0.852336585521698,0.0,0.0,0.0,0.0,0.0,0.0,0.0,0.0,0.0,63.0560302734375,1.2185114622116089,1.4917935132980347,0.0,0.0,0.0,0.0,0.0,0.0,0.0,0.0,0.0,0.0013111080043017864,0.005472064018249512,0.040102630853652954,0.0,0.0,0.0,0.0,0.0,0.0,0.0,0.0,0.0
1606986842039636689,716517,1606983241107679547,imu_link,0.005536198150366545,0.015871675685048103,0.5227218866348267,0.8523375988006592,0.0,0.0,0.0,0.0,0.0,0.0,0.0,0.0,0.0,63.05580520629883,1.218673825263977,1.4919356107711792,0.0,0.0,0.0,0.0,0.0,0.0,0.0,0.0,0.0,0.007293336559087038,0.007567583583295345,0.0441916398704052,0.0,0.0,0.0,0.0,0.0,0.0,0.0,0.0,0.0
1606986842039654456,716518,1606983241107747893,imu_link,0.005536198150366545,0.015871675685048103,0.5227218866348267,0.8523375988006592,0.0,0.0,0.0,0.0,0.0,0.0,0.0,0.0,0.0,63.05580520629883,1.218673825263977,1.4919356107711792,0.0,0.0,0.0,0.0,0.0,0.0,0.0,0.0,0.0,0.007293336559087038,0.007567583583295345,0.0441916398704052,0.0,0.0,0.0,0.0,0.0,0.0,0.0,0.0,0.0
1606986842039722098,716519,1606983241107813597,imu_link,0.005537130869925022,0.015870435163378716,0.5227273106575012,0.8523342609405518,0.0,0.0,0.0,0.0,0.0,0.0,0.0,0.0,0.0,63.05653381347656,1.21848726272583,1.4919601678848267,0.0,0.0,0.0,0.0,0.0,0.0,0.0,0.0,0.0,-0.014173739589750767,0.013609114103019238,0.047139570116996765,0.0,0.0,0.0,0.0,0.0,0.0,0.0,0.0,0.0
1606986842039740200,716520,1606983241107885046,imu_link,0.005537130869925022,0.015870435163378716,0.5227273106575012,0.8523342609405518,0.0,0.0,0.0,0.0,0.0,0.0,0.0,0.0,0.0,63.05653381347656,1.21848726272583,1.4919601678848267,0.0,0.0,0.0,0.0,0.0,0.0,0.0,0.0,0.0,-0.014173739589750767,0.013609114103019238,0.047139570116996765,0.0,0.0,0.0,0.0,0.0,0.0,0.0,0.0,0.0
1606986842039753989,716521,1606983241107950181,imu_link,0.0055367611348629,0.015870684757828712,0.5227267146110535,0.8523345589637756,0.0,0.0,0.0,0.0,0.0,0.0,0.0,0.0,0.0,63.056461334228516,1.2185348272323608,1.4919383525848389,0.0,0.0,0.0,0.0,0.0,0.0,0.0,0.0,0.0,-0.0185727346688509,0.0046362304128706455,0.02830035425722599,0.0,0.0,0.0,0.0,0.0,0.0,0.0,0.0,0.0
1606986842046113595,716522,1606983241108025238,imu_link,0.0055367611348629,0.015870684757828712,0.5227267146110535,0.8523345589637756,0.0,0.0,0.0,0.0,0.0,0.0,0.0,0.0,0.0,63.056461334228516,1.2185348272323608,1.4919383525848389,0.0,0.0,0.0,0.0,0.0,0.0,0.0,0.0,0.0,-0.0185727346688509,0.0046362304128706455,0.02830035425722599,0.0,0.0,0.0,0.0,0.0,0.0,0.0,0.0,0.0
1606986842046141420,716523,1606983241108089411,imu_link,0.005537802819162607,0.015869474038481712,0.5227299928665161,0.8523326516151428,0.0,0.0,0.0,0.0,0.0,0.0,0.0,0.0,0.0,63.056888580322266,1.2183483839035034,1.4919722080230713,0.0,0.0,0.0,0.0,0.0,0.0,0.0,0.0,0.0,-0.005310597363859415,-0.017926853150129318,0.002228966448456049,0.0,0.0,0.0,0.0,0.0,0.0,0.0,0.0,0.0
1606986842046151305,716524,1606983241108196259,imu_link,0.005537802819162607,0.015869474038481712,0.5227299928665161,0.8523326516151428,0.0,0.0,0.0,0.0,0.0,0.0,0.0,0.0,0.0,63.056888580322266,1.2183483839035034,1.4919722080230713,0.0,0.0,0.0,0.0,0.0,0.0,0.0,0.0,0.0,-0.005310597363859415,-0.017926853150129318,0.002228966448456049,0.0,0.0,0.0,0.0,0.0,0.0,0.0,0.0,0.0
1606986842046179831,716525,1606983241108264332,imu_link,0.005538087338209152,0.015869317576289177,0.5227298736572266,0.8523327112197876,0.0,0.0,0.0,0.0,0.0,0.0,0.0,0.0,0.0,63.05687713623047,1.2183161973953247,1.4919904470443726,0.0,0.0,0.0,0.0,0.0,0.0,0.0,0.0,0.0,-0.0073124924674630165,-0.0034213929902762175,0.018595101311802864,0.0,0.0,0.0,0.0,0.0,0.0,0.0,0.0,0.0
1606986842049890312,716526,1606983241108327494,imu_link,0.005538087338209152,0.015869317576289177,0.5227298736572266,0.8523327112197876,0.0,0.0,0.0,0.0,0.0,0.0,0.0,0.0,0.0,63.05687713623047,1.2183161973953247,1.4919904470443726,0.0,0.0,0.0,0.0,0.0,0.0,0.0,0.0,0.0,-0.0073124924674630165,-0.0034213929902762175,0.018595101311802864,0.0,0.0,0.0,0.0,0.0,0.0,0.0,0.0,0.0
1606986842049913325,716527,1606983241121100418,imu_link,0.005537562072277069,0.015867922455072403,0.5227351188659668,0.8523294925689697,0.0,0.0,0.0,0.0,0.0,0.0,0.0,0.0,0.0,63.05757522583008,1.2182022333145142,1.4918628931045532,0.0,0.0,0.0,0.0,0.0,0.0,0.0,0.0,0.0,-0.009529423899948597,0.012034021317958832,0.025374550372362137,0.0,0.0,0.0,0.0,0.0,0.0,0.0,0.0,0.0
1606986842049932632,716528,1606983241121194215,imu_link,0.005537562072277069,0.015867922455072403,0.5227351188659668,0.8523294925689697,0.0,0.0,0.0,0.0,0.0,0.0,0.0,0.0,0.0,63.05757522583008,1.2182022333145142,1.4918628931045532,0.0,0.0,0.0,0.0,0.0,0.0,0.0,0.0,0.0,-0.009529423899948597,0.012034021317958832,0.025374550372362137,0.0,0.0,0.0,0.0,0.0,0.0,0.0,0.0,0.0
1606986842049942655,716529,1606983241121262582,imu_link,0.005537823308259249,0.01586754061281681,0.5227341055870056,0.8523301482200623,0.0,0.0,0.0,0.0,0.0,0.0,0.0,0.0,0.0,63.057437896728516,1.2181510925292969,1.4918640851974487,0.0,0.0,0.0,0.0,0.0,0.0,0.0,0.0,0.0,-0.0051233465783298016,0.0011510307667776942,0.030640151351690292,0.0,0.0,0.0,0.0,0.0,0.0,0.0,0.0,0.0
1606986842049958367,716530,1606983241121327737,imu_link,0.005537823308259249,0.01586754061281681,0.5227341055870056,0.8523301482200623,0.0,0.0,0.0,0.0,0.0,0.0,0.0,0.0,0.0,63.057437896728516,1.2181510925292969,1.4918640851974487,0.0,0.0,0.0,0.0,0.0,0.0,0.0,0.0,0.0,-0.0051233465783298016,0.0011510307667776942,0.030640151351690292,0.0,0.0,0.0,0.0,0.0,0.0,0.0,0.0,0.0
1606986842056479042,716531,1606983241121388886,imu_link,0.005537513177841902,0.01586703583598137,0.5227257013320923,0.8523352742195129,0.0,0.0,0.0,0.0,0.0,0.0,0.0,0.0,0.0,63.05630874633789,1.218135118484497,1.4917916059494019,0.0,0.0,0.0,0.0,0.0,0.0,0.0,0.0,0.0,0.00804934836924076,0.0013294683303683996,0.04547317326068878,0.0,0.0,0.0,0.0,0.0,0.0,0.0,0.0,0.0
1606986842056520060,716532,1606983241121466365,imu_link,0.005537513177841902,0.01586703583598137,0.5227257013320923,0.8523352742195129,0.0,0.0,0.0,0.0,0.0,0.0,0.0,0.0,0.0,63.05630874633789,1.218135118484497,1.4917916059494019,0.0,0.0,0.0,0.0,0.0,0.0,0.0,0.0,0.0,0.00804934836924076,0.0013294683303683996,0.04547317326068878,0.0,0.0,0.0,0.0,0.0,0.0,0.0,0.0,0.0
1606986842056534891,716533,1606983241121532763,imu_link,0.005538285244256258,0.01586533896625042,0.5227245688438416,0.8523359894752502,0.0,0.0,0.0,0.0,0.0,0.0,0.0,0.0,0.0,63.05615234375,1.2179250717163086,1.4917635917663574,0.0,0.0,0.0,0.0,0.0,0.0,0.0,0.0,0.0,0.012452761642634869,0.010814189910888672,0.03950004279613495,0.0,0.0,0.0,0.0,0.0,0.0,0.0,0.0,0.0
1606986842056612671,716534,1606983241121596025,imu_link,0.005538285244256258,0.01586533896625042,0.5227245688438416,0.8523359894752502,0.0,0.0,0.0,0.0,0.0,0.0,0.0,0.0,0.0,63.05615234375,1.2179250717163086,1.4917635917663574,0.0,0.0,0.0,0.0,0.0,0.0,0.0,0.0,0.0,0.012452761642634869,0.010814189910888672,0.03950004279613495,0.0,0.0,0.0,0.0,0.0,0.0,0.0,0.0,0.0
1606986842166141182,716535,1606983241121660739,imu_link,0.0055367788299918175,0.015864349901676178,0.5227159857749939,0.8523412942886353,0.0,0.0,0.0,0.0,0.0,0.0,0.0,0.0,0.0,63.05499267578125,1.2179337739944458,1.4915448427200317,0.0,0.0,0.0,0.0,0.0,0.0,0.0,0.0,0.0,-0.007425673771649599,0.006673622876405716,0.02026308700442314,0.0,0.0,0.0,0.0,0.0,0.0,0.0,0.0,0.0
1606986842166159528,716536,1606983241121730096,imu_link,0.0055367788299918175,0.015864349901676178,0.5227159857749939,0.8523412942886353,0.0,0.0,0.0,0.0,0.0,0.0,0.0,0.0,0.0,63.05499267578125,1.2179337739944458,1.4915448427200317,0.0,0.0,0.0,0.0,0.0,0.0,0.0,0.0,0.0,-0.007425673771649599,0.006673622876405716,0.02026308700442314,0.0,0.0,0.0,0.0,0.0,0.0,0.0,0.0,0.0
1606986842166167961,716537,1606983241121793868,imu_link,0.005535207688808441,0.01586303301155567,0.5227142572402954,0.852342426776886,0.0,0.0,0.0,0.0,0.0,0.0,0.0,0.0,0.0,63.054752349853516,1.217902421951294,1.4913097620010376,0.0,0.0,0.0,0.0,0.0,0.0,0.0,0.0,0.0,-0.016636455431580544,-0.012992209754884243,0.015395932830870152,0.0,0.0,0.0,0.0,0.0,0.0,0.0,0.0,0.0
1606986842166178827,716538,1606983241134126515,imu_link,0.005535207688808441,0.01586303301155567,0.5227142572402954,0.852342426776886,0.0,0.0,0.0,0.0,0.0,0.0,0.0,0.0,0.0,63.054752349853516,1.217902421951294,1.4913097620010376,0.0,0.0,0.0,0.0,0.0,0.0,0.0,0.0,0.0,-0.016636455431580544,-0.012992209754884243,0.015395932830870152,0.0,0.0,0.0,0.0,0.0,0.0,0.0,0.0,0.0
1606986842166188393,716539,1606983241134238562,imu_link,0.005536855664104223,0.015863075852394104,0.5227184295654297,0.8523398041725159,0.0,0.0,0.0,0.0,0.0,0.0,0.0,0.0,0.0,63.055320739746094,1.217800498008728,1.4914793968200684,0.0,0.0,0.0,0.0,0.0,0.0,0.0,0.0,0.0,-0.018259430304169655,-0.0010681352578103542,0.02894817665219307,0.0,0.0,0.0,0.0,0.0,0.0,0.0,0.0,0.0
1606986842171679321,716540,1606983241134365091,imu_link,0.005536855664104223,0.015863075852394104,0.5227184295654297,0.8523398041725159,0.0,0.0,0.0,0.0,0.0,0.0,0.0,0.0,0.0,63.055320739746094,1.217800498008728,1.4914793968200684,0.0,0.0,0.0,0.0,0.0,0.0,0.0,0.0,0.0,-0.018259430304169655,-0.0010681352578103542,0.02894817665219307,0.0,0.0,0.0,0.0,0.0,0.0,0.0,0.0,0.0
1606986842171704898,716541,1606983241134447510,imu_link,0.005538663826882839,0.015863530337810516,0.5227165222167969,0.8523409962654114,0.0,0.0,0.0,0.0,0.0,0.0,0.0,0.0,0.0,63.05506134033203,1.2177399396896362,1.4916805028915405,0.0,0.0,0.0,0.0,0.0,0.0,0.0,0.0,0.0,-0.0053086671978235245,0.015975940972566605,0.03233037889003754,0.0,0.0,0.0,0.0,0.0,0.0,0.0,0.0,0.0
1606986842171715617,716542,1606983241134518301,imu_link,0.005538663826882839,0.015863530337810516,0.5227165222167969,0.8523409962654114,0.0,0.0,0.0,0.0,0.0,0.0,0.0,0.0,0.0,63.05506134033203,1.2177399396896362,1.4916805028915405,0.0,0.0,0.0,0.0,0.0,0.0,0.0,0.0,0.0,-0.0053086671978235245,0.015975940972566605,0.03233037889003754,0.0,0.0,0.0,0.0,0.0,0.0,0.0,0.0,0.0
1606986842171729202,716543,1606983241134600825,imu_link,0.005538710858672857,0.015861453488469124,0.5227201581001282,0.8523387908935547,0.0,0.0,0.0,0.0,0.0,0.0,0.0,0.0,0.0,63.055545806884766,1.2175278663635254,1.4915657043457031,0.0,0.0,0.0,0.0,0.0,0.0,0.0,0.0,0.0,0.0005566008621826768,-0.004592214711010456,0.023917077109217644,0.0,0.0,0.0,0.0,0.0,0.0,0.0,0.0,0.0
1606986842175563092,716544,1606983241134670321,imu_link,0.005538710858672857,0.015861453488469124,0.5227201581001282,0.8523387908935547,0.0,0.0,0.0,0.0,0.0,0.0,0.0,0.0,0.0,63.055545806884766,1.2175278663635254,1.4915657043457031,0.0,0.0,0.0,0.0,0.0,0.0,0.0,0.0,0.0,0.0005566008621826768,-0.004592214711010456,0.023917077109217644,0.0,0.0,0.0,0.0,0.0,0.0,0.0,0.0,0.0
1606986842175588498,716545,1606983241134736751,imu_link,0.005538562778383493,0.0158616341650486,0.5227206945419312,0.8523384928703308,0.0,0.0,0.0,0.0,0.0,0.0,0.0,0.0,0.0,63.05561828613281,1.2175536155700684,1.491562843322754,0.0,0.0,0.0,0.0,0.0,0.0,0.0,0.0,0.0,-0.00016932381549850106,-0.02047133259475231,0.027161531150341034,0.0,0.0,0.0,0.0,0.0,0.0,0.0,0.0,0.0
1606986842175601311,716546,1606983241134799982,imu_link,0.005538562778383493,0.0158616341650486,0.5227206945419312,0.8523384928703308,0.0,0.0,0.0,0.0,0.0,0.0,0.0,0.0,0.0,63.05561828613281,1.2175536155700684,1.491562843322754,0.0,0.0,0.0,0.0,0.0,0.0,0.0,0.0,0.0,-0.00016932381549850106,-0.02047133259475231,0.027161531150341034,0.0,0.0,0.0,0.0,0.0,0.0,0.0,0.0,0.0
1606986842175607340,716547,1606983241134863488,imu_link,0.0055427816696465015,0.015863729640841484,0.5227148532867432,0.8523420095443726,0.0,0.0,0.0,0.0,0.0,0.0,0.0,0.0,0.0,63.054840087890625,1.2175155878067017,1.4920923709869385,0.0,0.0,0.0,0.0,0.0,0.0,0.0,0.0,0.0,0.001828968059271574,-0.008561380207538605,0.04127111658453941,0.0,0.0,0.0,0.0,0.0,0.0,0.0,0.0,0.0
1606986842182352266,716548,1606983241147886940,imu_link,0.0055427816696465015,0.015863729640841484,0.5227148532867432,0.8523420095443726,0.0,0.0,0.0,0.0,0.0,0.0,0.0,0.0,0.0,63.054840087890625,1.2175155878067017,1.4920923709869385,0.0,0.0,0.0,0.0,0.0,0.0,0.0,0.0,0.0,0.001828968059271574,-0.008561380207538605,0.04127111658453941,0.0,0.0,0.0,0.0,0.0,0.0,0.0,0.0,0.0
1606986842182378682,716549,1606983241148002460,imu_link,0.005540503654628992,0.015864960849285126,0.5227147340774536,0.8523420691490173,0.0,0.0,0.0,0.0,0.0,0.0,0.0,0.0,0.0,63.05482864379883,1.2177724838256836,1.491943597793579,0.0,0.0,0.0,0.0,0.0,0.0,0.0,0.0,0.0,-0.014300447888672352,0.0030476588290184736,0.04574892669916153,0.0,0.0,0.0,0.0,0.0,0.0,0.0,0.0,0.0
1606986842182393995,716550,1606983241148134229,imu_link,0.005540503654628992,0.015864960849285126,0.5227147340774536,0.8523420691490173,0.0,0.0,0.0,0.0,0.0,0.0,0.0,0.0,0.0,63.05482864379883,1.2177724838256836,1.491943597793579,0.0,0.0,0.0,0.0,0.0,0.0,0.0,0.0,0.0,-0.014300447888672352,0.0030476588290184736,0.04574892669916153,0.0,0.0,0.0,0.0,0.0,0.0,0.0,0.0,0.0
1606986842182409015,716551,1606983241148213288,imu_link,0.005542032886296511,0.015861626714468002,0.5227081775665283,0.8523461222648621,0.0,0.0,0.0,0.0,0.0,0.0,0.0,0.0,0.0,63.05393981933594,1.2173666954040527,1.4918835163116455,0.0,0.0,0.0,0.0,0.0,0.0,0.0,0.0,0.0,-0.009379577822983265,-0.0024999906308948994,0.013741890899837017,0.0,0.0,0.0,0.0,0.0,0.0,0.0,0.0,0.0
1606986842182418141,716552,1606983241148286133,imu_link,0.005542032886296511,0.015861626714468002,0.5227081775665283,0.8523461222648621,0.0,0.0,0.0,0.0,0.0,0.0,0.0,0.0,0.0,63.05393981933594,1.2173666954040527,1.4918835163116455,0.0,0.0,0.0,0.0,0.0,0.0,0.0,0.0,0.0,-0.009379577822983265,-0.0024999906308948994,0.013741890899837017,0.0,0.0,0.0,0.0,0.0,0.0,0.0,0.0,0.0
1606986842219424495,716553,1606983241148350766,imu_link,0.005541753489524126,0.015860719606280327,0.5227087140083313,0.8523457050323486,0.0,0.0,0.0,0.0,0.0,0.0,0.0,0.0,0.0,63.05401611328125,1.2172937393188477,1.4918028116226196,0.0,0.0,0.0,0.0,0.0,0.0,0.0,0.0,0.0,0.0022384768817573786,-0.01510730478912592,0.01946229673922062,0.0,0.0,0.0,0.0,0.0,0.0,0.0,0.0,0.0
1606986842219456084,716554,1606983241148432435,imu_link,0.005541753489524126,0.015860719606280327,0.5227087140083313,0.8523457050323486,0.0,0.0,0.0,0.0,0.0,0.0,0.0,0.0,0.0,63.05401611328125,1.2172937393188477,1.4918028116226196,0.0,0.0,0.0,0.0,0.0,0.0,0.0,0.0,0.0,0.0022384768817573786,-0.01510730478912592,0.01946229673922062,0.0,0.0,0.0,0.0,0.0,0.0,0.0,0.0,0.0
1606986842219466261,716555,1606983241148505408,imu_link,0.0055423276498913765,0.015863489359617233,0.5227097272872925,0.8523451685905457,0.0,0.0,0.0,0.0,0.0,0.0,0.0,0.0,0.0,63.05414962768555,1.2175283432006836,1.4920262098312378,0.0,0.0,0.0,0.0,0.0,0.0,0.0,0.0,0.0,0.00603209063410759,-0.003985058981925249,0.03383847698569298,0.0,0.0,0.0,0.0,0.0,0.0,0.0,0.0,0.0
1606986842219477245,716556,1606983241148601234,imu_link,0.0055423276498913765,0.015863489359617233,0.5227097272872925,0.8523451685905457,0.0,0.0,0.0,0.0,0.0,0.0,0.0,0.0,0.0,63.05414962768555,1.2175283432006836,1.4920262098312378,0.0,0.0,0.0,0.0,0.0,0.0,0.0,0.0,0.0,0.00603209063410759,-0.003985058981925249,0.03383847698569298,0.0,0.0,0.0,0.0,0.0,0.0,0.0,0.0,0.0
1606986842223225291,716557,1606983241148668040,imu_link,0.005541414953768253,0.015863806009292603,0.5227084159851074,0.8523459434509277,0.0,0.0,0.0,0.0,0.0,0.0,0.0,0.0,0.0,63.05397415161133,1.2176162004470825,1.4919542074203491,0.0,0.0,0.0,0.0,0.0,0.0,0.0,0.0,0.0,0.00010636389197316021,0.01952696591615677,-0.0023164688609540462,0.0,0.0,0.0,0.0,0.0,0.0,0.0,0.0,0.0
1606986842223240718,716558,1606983241148729459,imu_link,0.005541414953768253,0.015863806009292603,0.5227084159851074,0.8523459434509277,0.0,0.0,0.0,0.0,0.0,0.0,0.0,0.0,0.0,63.05397415161133,1.2176162004470825,1.4919542074203491,0.0,0.0,0.0,0.0,0.0,0.0,0.0,0.0,0.0,0.00010636389197316021,0.01952696591615677,-0.0023164688609540462,0.0,0.0,0.0,0.0,0.0,0.0,0.0,0.0,0.0
1606986842223247459,716559,1606983241161379849,imu_link,0.005538207478821278,0.015863053500652313,0.5227099061012268,0.8523450493812561,0.0,0.0,0.0,0.0,0.0,0.0,0.0,0.0,0.0,63.05417251586914,1.217732310295105,1.491598129272461,0.0,0.0,0.0,0.0,0.0,0.0,0.0,0.0,0.0,-0.007497318089008331,0.019881494343280792,-0.010639104060828686,0.0,0.0,0.0,0.0,0.0,0.0,0.0,0.0,0.0
1606986842223252190,716560,1606983241161494723,imu_link,0.005538207478821278,0.015863053500652313,0.5227099061012268,0.8523450493812561,0.0,0.0,0.0,0.0,0.0,0.0,0.0,0.0,0.0,63.05417251586914,1.217732310295105,1.491598129272461,0.0,0.0,0.0,0.0,0.0,0.0,0.0,0.0,0.0,-0.007497318089008331,0.019881494343280792,-0.010639104060828686,0.0,0.0,0.0,0.0,0.0,0.0,0.0,0.0,0.0
1606986842223301576,716561,1606983241161639623,imu_link,0.005539257079362869,0.01586265303194523,0.5227091312408447,0.8523455262184143,0.0,0.0,0.0,0.0,0.0,0.0,0.0,0.0,0.0,63.05406951904297,1.2176315784454346,1.4916753768920898,0.0,0.0,0.0,0.0,0.0,0.0,0.0,0.0,0.0,-0.009817803278565407,0.004174198489636183,-0.0019043018110096455,0.0,0.0,0.0,0.0,0.0,0.0,0.0,0.0,0.0
1606986842232622730,716562,1606983241161719415,imu_link,0.005539257079362869,0.01586265303194523,0.5227091312408447,0.8523455262184143,0.0,0.0,0.0,0.0,0.0,0.0,0.0,0.0,0.0,63.05406951904297,1.2176315784454346,1.4916753768920898,0.0,0.0,0.0,0.0,0.0,0.0,0.0,0.0,0.0,-0.009817803278565407,0.004174198489636183,-0.0019043018110096455,0.0,0.0,0.0,0.0,0.0,0.0,0.0,0.0,0.0
1606986842232661173,716563,1606983241161856733,imu_link,0.005538706202059984,0.015864919871091843,0.5227089524269104,0.8523455858230591,0.0,0.0,0.0,0.0,0.0,0.0,0.0,0.0,0.0,63.05405044555664,1.217886209487915,1.4917571544647217,0.0,0.0,0.0,0.0,0.0,0.0,0.0,0.0,0.0,-0.01105652004480362,-5.6779885198920965e-05,0.012662536464631557,0.0,0.0,0.0,0.0,0.0,0.0,0.0,0.0,0.0
1606986842232674692,716564,1606983241161924041,imu_link,0.005538706202059984,0.015864919871091843,0.5227089524269104,0.8523455858230591,0.0,0.0,0.0,0.0,0.0,0.0,0.0,0.0,0.0,63.05405044555664,1.217886209487915,1.4917571544647217,0.0,0.0,0.0,0.0,0.0,0.0,0.0,0.0,0.0,-0.01105652004480362,-5.6779885198920965e-05,0.012662536464631557,0.0,0.0,0.0,0.0,0.0,0.0,0.0,0.0,0.0
1606986842232683328,716565,1606983241162007349,imu_link,0.005539807956665754,0.015865128487348557,0.522708535194397,0.8523458242416382,0.0,0.0,0.0,0.0,0.0,0.0,0.0,0.0,0.0,63.053993225097656,1.217841386795044,1.4918768405914307,0.0,0.0,0.0,0.0,0.0,0.0,0.0,0.0,0.0,-0.00858212262392044,0.000388116342946887,0.026237186044454575,0.0,0.0,0.0,0.0,0.0,0.0,0.0,0.0,0.0
1606986842236068672,716566,1606983241162073763,imu_link,0.005539807956665754,0.015865128487348557,0.522708535194397,0.8523458242416382,0.0,0.0,0.0,0.0,0.0,0.0,0.0,0.0,0.0,63.053993225097656,1.217841386795044,1.4918768405914307,0.0,0.0,0.0,0.0,0.0,0.0,0.0,0.0,0.0,-0.00858212262392044,0.000388116342946887,0.026237186044454575,0.0,0.0,0.0,0.0,0.0,0.0,0.0,0.0,0.0
1606986842236087365,716567,1606983241162138188,imu_link,0.005538246128708124,0.01586446352303028,0.5227091312408447,0.8523454666137695,0.0,0.0,0.0,0.0,0.0,0.0,0.0,0.0,0.0,63.05406951904297,1.2178689241409302,1.491685152053833,0.0,0.0,0.0,0.0,0.0,0.0,0.0,0.0,0.0,-0.0015397474635392427,-0.010530941188335419,0.029198041185736656,0.0,0.0,0.0,0.0,0.0,0.0,0.0,0.0,0.0
1606986842236100712,716568,1606983241162203796,imu_link,0.005538246128708124,0.01586446352303028,0.5227091312408447,0.8523454666137695,0.0,0.0,0.0,0.0,0.0,0.0,0.0,0.0,0.0,63.05406951904297,1.2178689241409302,1.491685152053833,0.0,0.0,0.0,0.0,0.0,0.0,0.0,0.0,0.0,-0.0015397474635392427,-0.010530941188335419,0.029198041185736656,0.0,0.0,0.0,0.0,0.0,0.0,0.0,0.0,0.0
1606986842236114606,716569,1606983241162267985,imu_link,0.005536631681025028,0.015865420922636986,0.5227104425430298,0.8523446321487427,0.0,0.0,0.0,0.0,0.0,0.0,0.0,0.0,0.0,63.05425262451172,1.2180569171905518,1.4915869235992432,0.0,0.0,0.0,0.0,0.0,0.0,0.0,0.0,0.0,0.0024771089665591717,-0.010619343258440495,0.0257570743560791,0.0,0.0,0.0,0.0,0.0,0.0,0.0,0.0,0.0
1606986842236123645,716570,1606983241175120048,imu_link,0.005536631681025028,0.015865420922636986,0.5227104425430298,0.8523446321487427,0.0,0.0,0.0,0.0,0.0,0.0,0.0,0.0,0.0,63.05425262451172,1.2180569171905518,1.4915869235992432,0.0,0.0,0.0,0.0,0.0,0.0,0.0,0.0,0.0,0.0024771089665591717,-0.010619343258440495,0.0257570743560791,0.0,0.0,0.0,0.0,0.0,0.0,0.0,0.0,0.0
1606986842346695196,716571,1606983241175209066,imu_link,0.005537373945116997,0.015864700078964233,0.5227112174034119,0.852344274520874,0.0,0.0,0.0,0.0,0.0,0.0,0.0,0.0,0.0,63.05434799194336,1.2179408073425293,1.4916170835494995,0.0,0.0,0.0,0.0,0.0,0.0,0.0,0.0,0.0,-0.009200887754559517,0.003589991480112076,0.010203368030488491,0.0,0.0,0.0,0.0,0.0,0.0,0.0,0.0,0.0
1606986842346710645,716572,1606983241175280227,imu_link,0.005537373945116997,0.015864700078964233,0.5227112174034119,0.852344274520874,0.0,0.0,0.0,0.0,0.0,0.0,0.0,0.0,0.0,63.05434799194336,1.2179408073425293,1.4916170835494995,0.0,0.0,0.0,0.0,0.0,0.0,0.0,0.0,0.0,-0.009200887754559517,0.003589991480112076,0.010203368030488491,0.0,0.0,0.0,0.0,0.0,0.0,0.0,0.0,0.0
1606986842346717707,716573,1606983241175345907,imu_link,0.005536317825317383,0.015865815803408623,0.5227109789848328,0.8523443341255188,0.0,0.0,0.0,0.0,0.0,0.0,0.0,0.0,0.0,63.0543212890625,1.2181134223937988,1.491580605506897,0.0,0.0,0.0,0.0,0.0,0.0,0.0,0.0,0.0,-0.0003243100945837796,0.004106178879737854,0.01847139187157154,0.0,0.0,0.0,0.0,0.0,0.0,0.0,0.0,0.0
1606986842346737799,716574,1606983241175415023,imu_link,0.005536317825317383,0.015865815803408623,0.5227109789848328,0.8523443341255188,0.0,0.0,0.0,0.0,0.0,0.0,0.0,0.0,0.0,63.0543212890625,1.2181134223937988,1.491580605506897,0.0,0.0,0.0,0.0,0.0,0.0,0.0,0.0,0.0,-0.0003243100945837796,0.004106178879737854,0.01847139187157154,0.0,0.0,0.0,0.0,0.0,0.0,0.0,0.0,0.0
1606986842352820785,716575,1606983241175479207,imu_link,0.005535338073968887,0.015864593908190727,0.5227137804031372,0.8523426651954651,0.0,0.0,0.0,0.0,0.0,0.0,0.0,0.0,0.0,63.0546989440918,1.218047857284546,1.4914155006408691,0.0,0.0,0.0,0.0,0.0,0.0,0.0,0.0,0.0,0.014789686538279057,0.007038779556751251,0.01441110484302044,0.0,0.0,0.0,0.0,0.0,0.0,0.0,0.0,0.0
1606986842352834976,716576,1606983241175561678,imu_link,0.005535338073968887,0.015864593908190727,0.5227137804031372,0.8523426651954651,0.0,0.0,0.0,0.0,0.0,0.0,0.0,0.0,0.0,63.0546989440918,1.218047857284546,1.4914155006408691,0.0,0.0,0.0,0.0,0.0,0.0,0.0,0.0,0.0,0.014789686538279057,0.007038779556751251,0.01441110484302044,0.0,0.0,0.0,0.0,0.0,0.0,0.0,0.0,0.0
1606986842352846935,716577,1606983241175628425,imu_link,0.005536292213946581,0.015863975510001183,0.5227137804031372,0.8523427248001099,0.0,0.0,0.0,0.0,0.0,0.0,0.0,0.0,0.0,63.054691314697266,1.2179303169250488,1.4914716482162476,0.0,0.0,0.0,0.0,0.0,0.0,0.0,0.0,0.0,0.0005062904092483222,0.015000073239207268,-0.005000089295208454,0.0,0.0,0.0,0.0,0.0,0.0,0.0,0.0,0.0
1606986842352866505,716578,1606983241175733660,imu_link,0.005536292213946581,0.015863975510001183,0.5227137804031372,0.8523427248001099,0.0,0.0,0.0,0.0,0.0,0.0,0.0,0.0,0.0,63.054691314697266,1.2179303169250488,1.4914716482162476,0.0,0.0,0.0,0.0,0.0,0.0,0.0,0.0,0.0,0.0005062904092483222,0.015000073239207268,-0.005000089295208454,0.0,0.0,0.0,0.0,0.0,0.0,0.0,0.0,0.0
1606986842352876259,716579,1606983241175802287,imu_link,0.005533096846193075,0.01586352474987507,0.5227165222167969,0.8523409962654114,0.0,0.0,0.0,0.0,0.0,0.0,0.0,0.0,0.0,63.05506134033203,1.2180728912353516,1.4911364316940308,0.0,0.0,0.0,0.0,0.0,0.0,0.0,0.0,0.0,0.004791089799255133,0.02879144623875618,-0.005297448020428419,0.0,0.0,0.0,0.0,0.0,0.0,0.0,0.0,0.0
1606986842363863392,716580,1606983241175860714,imu_link,0.005533096846193075,0.01586352474987507,0.5227165222167969,0.8523409962654114,0.0,0.0,0.0,0.0,0.0,0.0,0.0,0.0,0.0,63.05506134033203,1.2180728912353516,1.4911364316940308,0.0,0.0,0.0,0.0,0.0,0.0,0.0,0.0,0.0,0.004791089799255133,0.02879144623875618,-0.005297448020428419,0.0,0.0,0.0,0.0,0.0,0.0,0.0,0.0,0.0
1606986842363886734,716581,1606983241188637225,imu_link,0.005531324073672295,0.015863224864006042,0.522717297077179,0.8523405194282532,0.0,0.0,0.0,0.0,0.0,0.0,0.0,0.0,0.0,63.05516052246094,1.2181484699249268,1.4909461736679077,0.0,0.0,0.0,0.0,0.0,0.0,0.0,0.0,0.0,0.013854697346687317,0.023415016010403633,0.02274954505264759,0.0,0.0,0.0,0.0,0.0,0.0,0.0,0.0,0.0
1606986842363893738,716582,1606983241188749156,imu_link,0.005531324073672295,0.015863224864006042,0.522717297077179,0.8523405194282532,0.0,0.0,0.0,0.0,0.0,0.0,0.0,0.0,0.0,63.05516052246094,1.2181484699249268,1.4909461736679077,0.0,0.0,0.0,0.0,0.0,0.0,0.0,0.0,0.0,0.013854697346687317,0.023415016010403633,0.02274954505264759,0.0,0.0,0.0,0.0,0.0,0.0,0.0,0.0,0.0
1606986842363899907,716583,1606983241188909419,imu_link,0.00552703533321619,0.01586299017071724,0.5227206945419312,0.8523384928703308,0.0,0.0,0.0,0.0,0.0,0.0,0.0,0.0,0.0,63.05561828613281,1.218376636505127,1.4905182123184204,0.0,0.0,0.0,0.0,0.0,0.0,0.0,0.0,0.0,0.007221652194857597,0.014690817333757877,0.032751843333244324,0.0,0.0,0.0,0.0,0.0,0.0,0.0,0.0,0.0
1606986842367603958,716584,1606983241188981762,imu_link,0.00552703533321619,0.01586299017071724,0.5227206945419312,0.8523384928703308,0.0,0.0,0.0,0.0,0.0,0.0,0.0,0.0,0.0,63.05561828613281,1.218376636505127,1.4905182123184204,0.0,0.0,0.0,0.0,0.0,0.0,0.0,0.0,0.0,0.007221652194857597,0.014690817333757877,0.032751843333244324,0.0,0.0,0.0,0.0,0.0,0.0,0.0,0.0,0.0
1606986842367637888,716585,1606983241189099383,imu_link,0.00552703533321619,0.01586299017071724,0.5227206945419312,0.8523384928703308,0.0,0.0,0.0,0.0,0.0,0.0,0.0,0.0,0.0,63.05561828613281,1.218376636505127,1.4905182123184204,0.0,0.0,0.0,0.0,0.0,0.0,0.0,0.0,0.0,0.006521573290228844,0.03168370574712753,0.019682954996824265,0.0,0.0,0.0,0.0,0.0,0.0,0.0,0.0,0.0
1606986842367651613,716586,1606983241189187126,imu_link,0.00552703533321619,0.01586299017071724,0.5227206945419312,0.8523384928703308,0.0,0.0,0.0,0.0,0.0,0.0,0.0,0.0,0.0,63.05561828613281,1.218376636505127,1.4905182123184204,0.0,0.0,0.0,0.0,0.0,0.0,0.0,0.0,0.0,0.006521573290228844,0.03168370574712753,0.019682954996824265,0.0,0.0,0.0,0.0,0.0,0.0,0.0,0.0,0.0
1606986842367682837,716587,1606983241189249494,imu_link,0.005521357990801334,0.015862880274653435,0.5227258801460266,0.8523353934288025,0.0,0.0,0.0,0.0,0.0,0.0,0.0,0.0,0.0,63.05630874633789,1.218697190284729,1.489964246749878,0.0,0.0,0.0,0.0,0.0,0.0,0.0,0.0,0.0,0.0051679350435733795,0.020237339660525322,0.03215755522251129,0.0,0.0,0.0,0.0,0.0,0.0,0.0,0.0,0.0
1606986842367714848,716588,1606983241189320791,imu_link,0.005521357990801334,0.015862880274653435,0.5227258801460266,0.8523353934288025,0.0,0.0,0.0,0.0,0.0,0.0,0.0,0.0,0.0,63.05630874633789,1.218697190284729,1.489964246749878,0.0,0.0,0.0,0.0,0.0,0.0,0.0,0.0,0.0,0.0051679350435733795,0.020237339660525322,0.03215755522251129,0.0,0.0,0.0,0.0,0.0,0.0,0.0,0.0,0.0
1606986842427707920,716589,1606983241189385144,imu_link,0.005522405728697777,0.015864374116063118,0.5227259397506714,0.8523352742195129,0.0,0.0,0.0,0.0,0.0,0.0,0.0,0.0,0.0,63.05632400512695,1.2187800407409668,1.4901565313339233,0.0,0.0,0.0,0.0,0.0,0.0,0.0,0.0,0.0,0.012154691852629185,-0.002285429509356618,0.05145248770713806,0.0,0.0,0.0,0.0,0.0,0.0,0.0,0.0,0.0
1606986842427735420,716590,1606983241189448194,imu_link,0.005522405728697777,0.015864374116063118,0.5227259397506714,0.8523352742195129,0.0,0.0,0.0,0.0,0.0,0.0,0.0,0.0,0.0,63.05632400512695,1.2187800407409668,1.4901565313339233,0.0,0.0,0.0,0.0,0.0,0.0,0.0,0.0,0.0,0.012154691852629185,-0.002285429509356618,0.05145248770713806,0.0,0.0,0.0,0.0,0.0,0.0,0.0,0.0,0.0
1606986842427744685,716591,1606983241189513453,imu_link,0.005521879065781832,0.015866141766309738,0.5227329730987549,0.8523309230804443,0.0,0.0,0.0,0.0,0.0,0.0,0.0,0.0,0.0,63.057273864746094,1.2189719676971436,1.4902210235595703,0.0,0.0,0.0,0.0,0.0,0.0,0.0,0.0,0.0,0.006611169781535864,-0.014356120489537716,0.03905104100704193,0.0,0.0,0.0,0.0,0.0,0.0,0.0,0.0,0.0
1606986842427755905,716592,1606983241201627487,imu_link,0.005521879065781832,0.015866141766309738,0.5227329730987549,0.8523309230804443,0.0,0.0,0.0,0.0,0.0,0.0,0.0,0.0,0.0,63.057273864746094,1.2189719676971436,1.4902210235595703,0.0,0.0,0.0,0.0,0.0,0.0,0.0,0.0,0.0,0.006611169781535864,-0.014356120489537716,0.03905104100704193,0.0,0.0,0.0,0.0,0.0,0.0,0.0,0.0,0.0
1606986842433433651,716593,1606983241201749453,imu_link,0.005520336329936981,0.015867117792367935,0.5227325558662415,0.8523312211036682,0.0,0.0,0.0,0.0,0.0,0.0,0.0,0.0,0.0,63.05721664428711,1.219160556793213,1.4901280403137207,0.0,0.0,0.0,0.0,0.0,0.0,0.0,0.0,0.0,-0.006388750392943621,-0.003654277650639415,0.02425999566912651,0.0,0.0,0.0,0.0,0.0,0.0,0.0,0.0,0.0
1606986842433485723,716594,1606983241201889524,imu_link,0.005520336329936981,0.015867117792367935,0.5227325558662415,0.8523312211036682,0.0,0.0,0.0,0.0,0.0,0.0,0.0,0.0,0.0,63.05721664428711,1.219160556793213,1.4901280403137207,0.0,0.0,0.0,0.0,0.0,0.0,0.0,0.0,0.0,-0.006388750392943621,-0.003654277650639415,0.02425999566912651,0.0,0.0,0.0,0.0,0.0,0.0,0.0,0.0,0.0
1606986842433502433,716595,1606983241201967967,imu_link,0.00552059942856431,0.015867680311203003,0.5227338671684265,0.8523303270339966,0.0,0.0,0.0,0.0,0.0,0.0,0.0,0.0,0.0,63.057395935058594,1.2191972732543945,1.4901896715164185,0.0,0.0,0.0,0.0,0.0,0.0,0.0,0.0,0.0,0.004464162513613701,0.012170233763754368,0.04772000014781952,0.0,0.0,0.0,0.0,0.0,0.0,0.0,0.0,0.0
1606986842433516399,716596,1606983241202036771,imu_link,0.00552059942856431,0.015867680311203003,0.5227338671684265,0.8523303270339966,0.0,0.0,0.0,0.0,0.0,0.0,0.0,0.0,0.0,63.057395935058594,1.2191972732543945,1.4901896715164185,0.0,0.0,0.0,0.0,0.0,0.0,0.0,0.0,0.0,0.004464162513613701,0.012170233763754368,0.04772000014781952,0.0,0.0,0.0,0.0,0.0,0.0,0.0,0.0,0.0
1606986842433532088,716597,1606983241202138090,imu_link,0.0055192927829921246,0.01586662419140339,0.5227338671684265,0.8523304462432861,0.0,0.0,0.0,0.0,0.0,0.0,0.0,0.0,0.0,63.05738830566406,1.2191725969314575,1.4899985790252686,0.0,0.0,0.0,0.0,0.0,0.0,0.0,0.0,0.0,0.0027554412372410297,0.004930191673338413,0.0438089519739151,0.0,0.0,0.0,0.0,0.0,0.0,0.0,0.0,0.0
1606986842440532756,716598,1606983241202218235,imu_link,0.0055192927829921246,0.01586662419140339,0.5227338671684265,0.8523304462432861,0.0,0.0,0.0,0.0,0.0,0.0,0.0,0.0,0.0,63.05738830566406,1.2191725969314575,1.4899985790252686,0.0,0.0,0.0,0.0,0.0,0.0,0.0,0.0,0.0,0.0027554412372410297,0.004930191673338413,0.0438089519739151,0.0,0.0,0.0,0.0,0.0,0.0,0.0,0.0,0.0
1606986842440563728,716599,1606983241202290056,imu_link,0.005518351681530476,0.01586666889488697,0.5227361917495728,0.8523290157318115,0.0,0.0,0.0,0.0,0.0,0.0,0.0,0.0,0.0,63.05770492553711,1.2192292213439941,1.4899126291275024,0.0,0.0,0.0,0.0,0.0,0.0,0.0,0.0,0.0,-0.0145998764783144,0.0010809014784172177,0.02745441533625126,0.0,0.0,0.0,0.0,0.0,0.0,0.0,0.0,0.0
1606986842440577696,716600,1606983241202367572,imu_link,0.005518351681530476,0.01586666889488697,0.5227361917495728,0.8523290157318115,0.0,0.0,0.0,0.0,0.0,0.0,0.0,0.0,0.0,63.05770492553711,1.2192292213439941,1.4899126291275024,0.0,0.0,0.0,0.0,0.0,0.0,0.0,0.0,0.0,-0.0145998764783144,0.0010809014784172177,0.02745441533625126,0.0,0.0,0.0,0.0,0.0,0.0,0.0,0.0,0.0
1606986842440594355,716601,1606983241202439562,imu_link,0.005518505349755287,0.015867436304688454,0.5227351784706116,0.8523296117782593,0.0,0.0,0.0,0.0,0.0,0.0,0.0,0.0,0.0,63.05756759643555,1.2192966938018799,1.4899721145629883,0.0,0.0,0.0,0.0,0.0,0.0,0.0,0.0,0.0,-0.0033240974880754948,0.0021421806886792183,0.0325123630464077,0.0,0.0,0.0,0.0,0.0,0.0,0.0,0.0,0.0
1606986842456294065,716602,1606983241215359591,imu_link,0.005518505349755287,0.015867436304688454,0.5227351784706116,0.8523296117782593,0.0,0.0,0.0,0.0,0.0,0.0,0.0,0.0,0.0,63.05756759643555,1.2192966938018799,1.4899721145629883,0.0,0.0,0.0,0.0,0.0,0.0,0.0,0.0,0.0,-0.0033240974880754948,0.0021421806886792183,0.0325123630464077,0.0,0.0,0.0,0.0,0.0,0.0,0.0,0.0,0.0
1606986842456322382,716603,1606983241215490182,imu_link,0.005516621749848127,0.015866372734308243,0.5227347612380981,0.8523299098014832,0.0,0.0,0.0,0.0,0.0,0.0,0.0,0.0,0.0,63.0575065612793,1.219306468963623,1.4897236824035645,0.0,0.0,0.0,0.0,0.0,0.0,0.0,0.0,0.0,-0.013918247073888779,-0.004245246294885874,0.03372393175959587,0.0,0.0,0.0,0.0,0.0,0.0,0.0,0.0,0.0
1606986842456329565,716604,1606983241215618867,imu_link,0.005516621749848127,0.015866372734308243,0.5227347612380981,0.8523299098014832,0.0,0.0,0.0,0.0,0.0,0.0,0.0,0.0,0.0,63.0575065612793,1.219306468963623,1.4897236824035645,0.0,0.0,0.0,0.0,0.0,0.0,0.0,0.0,0.0,-0.013918247073888779,-0.004245246294885874,0.03372393175959587,0.0,0.0,0.0,0.0,0.0,0.0,0.0,0.0,0.0
1606986842456338265,716605,1606983241215705516,imu_link,0.005516501609236002,0.01586790196597576,0.5227338671684265,0.8523304462432861,0.0,0.0,0.0,0.0,0.0,0.0,0.0,0.0,0.0,63.05738830566406,1.219464659690857,1.489802360534668,0.0,0.0,0.0,0.0,0.0,0.0,0.0,0.0,0.0,-0.02182060480117798,-0.005322027485817671,0.035863246768713,0.0,0.0,0.0,0.0,0.0,0.0,0.0,0.0,0.0
1606986842456355155,716606,1606983241215780177,imu_link,0.005516501609236002,0.01586790196597576,0.5227338671684265,0.8523304462432861,0.0,0.0,0.0,0.0,0.0,0.0,0.0,0.0,0.0,63.05738830566406,1.219464659690857,1.489802360534668,0.0,0.0,0.0,0.0,0.0,0.0,0.0,0.0,0.0,-0.02182060480117798,-0.005322027485817671,0.035863246768713,0.0,0.0,0.0,0.0,0.0,0.0,0.0,0.0,0.0
1606986842524336995,716607,1606983241215854661,imu_link,0.005519804544746876,0.015867237001657486,0.5227320194244385,0.8523315191268921,0.0,0.0,0.0,0.0,0.0,0.0,0.0,0.0,0.0,63.05714416503906,1.2192047834396362,1.4900827407836914,0.0,0.0,0.0,0.0,0.0,0.0,0.0,0.0,0.0,0.007628192193806171,-0.008724543265998363,0.013620465993881226,0.0,0.0,0.0,0.0,0.0,0.0,0.0,0.0,0.0
1606986842524367565,716608,1606983241215952220,imu_link,0.005519804544746876,0.015867237001657486,0.5227320194244385,0.8523315191268921,0.0,0.0,0.0,0.0,0.0,0.0,0.0,0.0,0.0,63.05714416503906,1.2192047834396362,1.4900827407836914,0.0,0.0,0.0,0.0,0.0,0.0,0.0,0.0,0.0,0.007628192193806171,-0.008724543265998363,0.013620465993881226,0.0,0.0,0.0,0.0,0.0,0.0,0.0,0.0,0.0
1606986842524383179,716609,1606983241216023996,imu_link,0.005519530735909939,0.015868689864873886,0.5227324366569519,0.8523311614990234,0.0,0.0,0.0,0.0,0.0,0.0,0.0,0.0,0.0,63.057212829589844,1.2193622589111328,1.490143895149231,0.0,0.0,0.0,0.0,0.0,0.0,0.0,0.0,0.0,0.015694092959165573,0.0007092266459949315,0.005966562312096357,0.0,0.0,0.0,0.0,0.0,0.0,0.0,0.0,0.0
1606986842524404604,716610,1606983241216104346,imu_link,0.005519530735909939,0.015868689864873886,0.5227324366569519,0.8523311614990234,0.0,0.0,0.0,0.0,0.0,0.0,0.0,0.0,0.0,63.057212829589844,1.2193622589111328,1.490143895149231,0.0,0.0,0.0,0.0,0.0,0.0,0.0,0.0,0.0,0.015694092959165573,0.0007092266459949315,0.005966562312096357,0.0,0.0,0.0,0.0,0.0,0.0,0.0,0.0,0.0
1606986842527307862,716611,1606983241216168543,imu_link,0.00551973981782794,0.015868503600358963,0.5227358937263489,0.8523291945457458,0.0,0.0,0.0,0.0,0.0,0.0,0.0,0.0,0.0,63.05767059326172,1.2193257808685303,1.4901578426361084,0.0,0.0,0.0,0.0,0.0,0.0,0.0,0.0,0.0,0.009392335079610348,0.0036666677333414555,0.03505360335111618,0.0,0.0,0.0,0.0,0.0,0.0,0.0,0.0,0.0
1606986842527352156,716612,1606983241216241289,imu_link,0.00551973981782794,0.015868503600358963,0.5227358937263489,0.8523291945457458,0.0,0.0,0.0,0.0,0.0,0.0,0.0,0.0,0.0,63.05767059326172,1.2193257808685303,1.4901578426361084,0.0,0.0,0.0,0.0,0.0,0.0,0.0,0.0,0.0,0.009392335079610348,0.0036666677333414555,0.03505360335111618,0.0,0.0,0.0,0.0,0.0,0.0,0.0,0.0,0.0
1606986842527393291,716613,1606983241229020906,imu_link,0.005519657861441374,0.01586807146668434,0.5227354764938354,0.852329432964325,0.0,0.0,0.0,0.0,0.0,0.0,0.0,0.0,0.0,63.057613372802734,1.2192891836166382,1.4901232719421387,0.0,0.0,0.0,0.0,0.0,0.0,0.0,0.0,0.0,0.017582781612873077,-0.005652746185660362,0.03853629529476166,0.0,0.0,0.0,0.0,0.0,0.0,0.0,0.0,0.0
1606986842527406073,716614,1606983241229144949,imu_link,0.005519657861441374,0.01586807146668434,0.5227354764938354,0.852329432964325,0.0,0.0,0.0,0.0,0.0,0.0,0.0,0.0,0.0,63.057613372802734,1.2192891836166382,1.4901232719421387,0.0,0.0,0.0,0.0,0.0,0.0,0.0,0.0,0.0,0.017582781612873077,-0.005652746185660362,0.03853629529476166,0.0,0.0,0.0,0.0,0.0,0.0,0.0,0.0,0.0
1606986842527420442,716615,1606983241229282204,imu_link,0.005518624559044838,0.015871098265051842,0.5227365493774414,0.8523287177085876,0.0,0.0,0.0,0.0,0.0,0.0,0.0,0.0,0.0,63.05776596069336,1.2196447849273682,1.4902055263519287,0.0,0.0,0.0,0.0,0.0,0.0,0.0,0.0,0.0,0.02491004765033722,0.005919691175222397,0.03824828565120697,0.0,0.0,0.0,0.0,0.0,0.0,0.0,0.0,0.0
1606986842537693145,716616,1606983241229368800,imu_link,0.005518624559044838,0.015871098265051842,0.5227365493774414,0.8523287177085876,0.0,0.0,0.0,0.0,0.0,0.0,0.0,0.0,0.0,63.05776596069336,1.2196447849273682,1.4902055263519287,0.0,0.0,0.0,0.0,0.0,0.0,0.0,0.0,0.0,0.02491004765033722,0.005919691175222397,0.03824828565120697,0.0,0.0,0.0,0.0,0.0,0.0,0.0,0.0,0.0
1606986842537720612,716617,1606983241229447881,imu_link,0.0055201794020831585,0.015870049595832825,0.5227335691452026,0.8523305654525757,0.0,0.0,0.0,0.0,0.0,0.0,0.0,0.0,0.0,63.0573616027832,1.2194545269012451,1.4902901649475098,0.0,0.0,0.0,0.0,0.0,0.0,0.0,0.0,0.0,0.021381262689828873,0.007297899574041367,0.04327181726694107,0.0,0.0,0.0,0.0,0.0,0.0,0.0,0.0,0.0
1606986842537736614,716618,1606983241229520792,imu_link,0.0055201794020831585,0.015870049595832825,0.5227335691452026,0.8523305654525757,0.0,0.0,0.0,0.0,0.0,0.0,0.0,0.0,0.0,63.0573616027832,1.2194545269012451,1.4902901649475098,0.0,0.0,0.0,0.0,0.0,0.0,0.0,0.0,0.0,0.021381262689828873,0.007297899574041367,0.04327181726694107,0.0,0.0,0.0,0.0,0.0,0.0,0.0,0.0,0.0
1606986842537751975,716619,1606983241229618552,imu_link,0.005518442019820213,0.015872107818722725,0.5227276682853699,0.8523340225219727,0.0,0.0,0.0,0.0,0.0,0.0,0.0,0.0,0.0,63.056583404541016,1.2197697162628174,1.4902355670928955,0.0,0.0,0.0,0.0,0.0,0.0,0.0,0.0,0.0,0.0034674350172281265,-0.0005009151063859463,0.049488406628370285,0.0,0.0,0.0,0.0,0.0,0.0,0.0,0.0,0.0
1606986842541158982,716620,1606983241229693361,imu_link,0.005518442019820213,0.015872107818722725,0.5227276682853699,0.8523340225219727,0.0,0.0,0.0,0.0,0.0,0.0,0.0,0.0,0.0,63.056583404541016,1.2197697162628174,1.4902355670928955,0.0,0.0,0.0,0.0,0.0,0.0,0.0,0.0,0.0,0.0034674350172281265,-0.0005009151063859463,0.049488406628370285,0.0,0.0,0.0,0.0,0.0,0.0,0.0,0.0,0.0
1606986842541183131,716621,1606983241229765549,imu_link,0.005518942605704069,0.015873126685619354,0.5227274298667908,0.8523342609405518,0.0,0.0,0.0,0.0,0.0,0.0,0.0,0.0,0.0,63.056541442871094,1.2198396921157837,1.4903450012207031,0.0,0.0,0.0,0.0,0.0,0.0,0.0,0.0,0.0,-0.00480284309014678,0.0024725121911615133,0.04648962989449501,0.0,0.0,0.0,0.0,0.0,0.0,0.0,0.0,0.0
1606986842541207575,716622,1606983241229837623,imu_link,0.005518942605704069,0.015873126685619354,0.5227274298667908,0.8523342609405518,0.0,0.0,0.0,0.0,0.0,0.0,0.0,0.0,0.0,63.056541442871094,1.2198396921157837,1.4903450012207031,0.0,0.0,0.0,0.0,0.0,0.0,0.0,0.0,0.0,-0.00480284309014678,0.0024725121911615133,0.04648962989449501,0.0,0.0,0.0,0.0,0.0,0.0,0.0,0.0,0.0
1606986842541215460,716623,1606983241229911576,imu_link,0.005519496276974678,0.015871793031692505,0.5227169990539551,0.8523406982421875,0.0,0.0,0.0,0.0,0.0,0.0,0.0,0.0,0.0,63.05514144897461,1.2196946144104004,1.4903043508529663,0.0,0.0,0.0,0.0,0.0,0.0,0.0,0.0,0.0,0.005549389868974686,0.008090291172266006,0.02989577129483223,0.0,0.0,0.0,0.0,0.0,0.0,0.0,0.0,0.0
1606986842596339251,716624,1606983241242845300,imu_link,0.005519496276974678,0.015871793031692505,0.5227169990539551,0.8523406982421875,0.0,0.0,0.0,0.0,0.0,0.0,0.0,0.0,0.0,63.05514144897461,1.2196946144104004,1.4903043508529663,0.0,0.0,0.0,0.0,0.0,0.0,0.0,0.0,0.0,0.005549389868974686,0.008090291172266006,0.02989577129483223,0.0,0.0,0.0,0.0,0.0,0.0,0.0,0.0,0.0
1606986842596359348,716625,1606983241243028817,imu_link,0.005517872516065836,0.015874160453677177,0.5227158665657043,0.85234135389328,0.0,0.0,0.0,0.0,0.0,0.0,0.0,0.0,0.0,63.05499267578125,1.2200251817703247,1.4902859926223755,0.0,0.0,0.0,0.0,0.0,0.0,0.0,0.0,0.0,0.012979509308934212,-0.002362337429076433,0.023484326899051666,0.0,0.0,0.0,0.0,0.0,0.0,0.0,0.0,0.0
1606986842596368623,716626,1606983241243121798,imu_link,0.005517872516065836,0.015874160453677177,0.5227158665657043,0.85234135389328,0.0,0.0,0.0,0.0,0.0,0.0,0.0,0.0,0.0,63.05499267578125,1.2200251817703247,1.4902859926223755,0.0,0.0,0.0,0.0,0.0,0.0,0.0,0.0,0.0,0.012979509308934212,-0.002362337429076433,0.023484326899051666,0.0,0.0,0.0,0.0,0.0,0.0,0.0,0.0,0.0
1606986842596378349,716627,1606983241243201248,imu_link,0.005518101155757904,0.015874117612838745,0.5227183103561401,0.8523398637771606,0.0,0.0,0.0,0.0,0.0,0.0,0.0,0.0,0.0,63.055320739746094,1.2200031280517578,1.4903093576431274,0.0,0.0,0.0,0.0,0.0,0.0,0.0,0.0,0.0,0.01770949922502041,0.009569474495947361,0.030965620651841164,0.0,0.0,0.0,0.0,0.0,0.0,0.0,0.0,0.0
1606986842596389453,716628,1606983241243295337,imu_link,0.005518101155757904,0.015874117612838745,0.5227183103561401,0.8523398637771606,0.0,0.0,0.0,0.0,0.0,0.0,0.0,0.0,0.0,63.055320739746094,1.2200031280517578,1.4903093576431274,0.0,0.0,0.0,0.0,0.0,0.0,0.0,0.0,0.0,0.01770949922502041,0.009569474495947361,0.030965620651841164,0.0,0.0,0.0,0.0,0.0,0.0,0.0,0.0,0.0
1606986842599588333,716629,1606983241243392509,imu_link,0.005516524892300367,0.015876153483986855,0.5227185487747192,0.8523396849632263,0.0,0.0,0.0,0.0,0.0,0.0,0.0,0.0,0.0,63.05535888671875,1.220295786857605,1.4902777671813965,0.0,0.0,0.0,0.0,0.0,0.0,0.0,0.0,0.0,0.015006148256361485,0.024848470464348793,0.035850394517183304,0.0,0.0,0.0,0.0,0.0,0.0,0.0,0.0,0.0
1606986842599612968,716630,1606983241243464542,imu_link,0.005516524892300367,0.015876153483986855,0.5227185487747192,0.8523396849632263,0.0,0.0,0.0,0.0,0.0,0.0,0.0,0.0,0.0,63.05535888671875,1.220295786857605,1.4902777671813965,0.0,0.0,0.0,0.0,0.0,0.0,0.0,0.0,0.0,0.015006148256361485,0.024848470464348793,0.035850394517183304,0.0,0.0,0.0,0.0,0.0,0.0,0.0,0.0,0.0
1606986842599624176,716631,1606983241243542362,imu_link,0.005508778151124716,0.01587603986263275,0.5227190852165222,0.8523393869400024,0.0,0.0,0.0,0.0,0.0,0.0,0.0,0.0,0.0,63.055423736572266,1.2207480669021606,1.4895148277282715,0.0,0.0,0.0,0.0,0.0,0.0,0.0,0.0,0.0,0.007143418770283461,0.019070234149694443,0.035610198974609375,0.0,0.0,0.0,0.0,0.0,0.0,0.0,0.0,0.0
1606986842599656697,716632,1606983241243619194,imu_link,0.005508778151124716,0.01587603986263275,0.5227190852165222,0.8523393869400024,0.0,0.0,0.0,0.0,0.0,0.0,0.0,0.0,0.0,63.055423736572266,1.2207480669021606,1.4895148277282715,0.0,0.0,0.0,0.0,0.0,0.0,0.0,0.0,0.0,0.007143418770283461,0.019070234149694443,0.035610198974609375,0.0,0.0,0.0,0.0,0.0,0.0,0.0,0.0,0.0
1606986842613187013,716633,1606983241243693627,imu_link,0.005508663132786751,0.015875719487667084,0.5227217078208923,0.8523377776145935,0.0,0.0,0.0,0.0,0.0,0.0,0.0,0.0,0.0,63.05577850341797,1.2207189798355103,1.4894882440567017,0.0,0.0,0.0,0.0,0.0,0.0,0.0,0.0,0.0,0.011297357268631458,0.01634463295340538,0.027432655915617943,0.0,0.0,0.0,0.0,0.0,0.0,0.0,0.0,0.0
1606986842613207861,716634,1606983241243758556,imu_link,0.005508663132786751,0.015875719487667084,0.5227217078208923,0.8523377776145935,0.0,0.0,0.0,0.0,0.0,0.0,0.0,0.0,0.0,63.05577850341797,1.2207189798355103,1.4894882440567017,0.0,0.0,0.0,0.0,0.0,0.0,0.0,0.0,0.0,0.011297357268631458,0.01634463295340538,0.027432655915617943,0.0,0.0,0.0,0.0,0.0,0.0,0.0,0.0,0.0
1606986842613233183,716635,1606983241255734770,imu_link,0.00550733832642436,0.015873290598392487,0.522717297077179,0.852340579032898,0.0,0.0,0.0,0.0,0.0,0.0,0.0,0.0,0.0,63.05517578125,1.2205688953399658,1.4892066717147827,0.0,0.0,0.0,0.0,0.0,0.0,0.0,0.0,0.0,0.006867814343422651,-0.009346576407551765,0.009441982954740524,0.0,0.0,0.0,0.0,0.0,0.0,0.0,0.0,0.0
1606986842613244104,716636,1606983241255858946,imu_link,0.00550733832642436,0.015873290598392487,0.522717297077179,0.852340579032898,0.0,0.0,0.0,0.0,0.0,0.0,0.0,0.0,0.0,63.05517578125,1.2205688953399658,1.4892066717147827,0.0,0.0,0.0,0.0,0.0,0.0,0.0,0.0,0.0,0.006867814343422651,-0.009346576407551765,0.009441982954740524,0.0,0.0,0.0,0.0,0.0,0.0,0.0,0.0,0.0
1606986842613263416,716637,1606983241255994951,imu_link,0.0055082086473703384,0.015872804448008537,0.5227181911468506,0.8523399829864502,0.0,0.0,0.0,0.0,0.0,0.0,0.0,0.0,0.0,63.0552978515625,1.2204678058624268,1.4892640113830566,0.0,0.0,0.0,0.0,0.0,0.0,0.0,0.0,0.0,-0.015079187229275703,-0.01663988083600998,0.030927561223506927,0.0,0.0,0.0,0.0,0.0,0.0,0.0,0.0,0.0
1606986842616647219,716638,1606983241256079973,imu_link,0.0055082086473703384,0.015872804448008537,0.5227181911468506,0.8523399829864502,0.0,0.0,0.0,0.0,0.0,0.0,0.0,0.0,0.0,63.0552978515625,1.2204678058624268,1.4892640113830566,0.0,0.0,0.0,0.0,0.0,0.0,0.0,0.0,0.0,-0.015079187229275703,-0.01663988083600998,0.030927561223506927,0.0,0.0,0.0,0.0,0.0,0.0,0.0,0.0,0.0
1606986842616668711,716639,1606983241256149833,imu_link,0.005513031966984272,0.01587136648595333,0.5227116942405701,0.8523439764976501,0.0,0.0,0.0,0.0,0.0,0.0,0.0,0.0,0.0,63.05442428588867,1.2200496196746826,1.4896395206451416,0.0,0.0,0.0,0.0,0.0,0.0,0.0,0.0,0.0,-0.01709078811109066,-0.006755211390554905,0.04038374871015549,0.0,0.0,0.0,0.0,0.0,0.0,0.0,0.0,0.0
1606986842616678010,716640,1606983241256243235,imu_link,0.005513031966984272,0.01587136648595333,0.5227116942405701,0.8523439764976501,0.0,0.0,0.0,0.0,0.0,0.0,0.0,0.0,0.0,63.05442428588867,1.2200496196746826,1.4896395206451416,0.0,0.0,0.0,0.0,0.0,0.0,0.0,0.0,0.0,-0.01709078811109066,-0.006755211390554905,0.04038374871015549,0.0,0.0,0.0,0.0,0.0,0.0,0.0,0.0,0.0
1606986842616689907,716641,1606983241256325395,imu_link,0.005510909948498011,0.015872536227107048,0.5227107405662537,0.8523445129394531,0.0,0.0,0.0,0.0,0.0,0.0,0.0,0.0,0.0,63.05430221557617,1.2202926874160767,1.4895012378692627,0.0,0.0,0.0,0.0,0.0,0.0,0.0,0.0,0.0,-0.0051325163803994656,-0.01188131794333458,0.023924177512526512,0.0,0.0,0.0,0.0,0.0,0.0,0.0,0.0,0.0
1606986842711964347,716642,1606983241256402520,imu_link,0.005510909948498011,0.015872536227107048,0.5227107405662537,0.8523445129394531,0.0,0.0,0.0,0.0,0.0,0.0,0.0,0.0,0.0,63.05430221557617,1.2202926874160767,1.4895012378692627,0.0,0.0,0.0,0.0,0.0,0.0,0.0,0.0,0.0,-0.0051325163803994656,-0.01188131794333458,0.023924177512526512,0.0,0.0,0.0,0.0,0.0,0.0,0.0,0.0,0.0
1606986842711981053,716643,1606983241256474959,imu_link,0.005511745344847441,0.01587236113846302,0.5227150321006775,0.852341890335083,0.0,0.0,0.0,0.0,0.0,0.0,0.0,0.0,0.0,63.054874420166016,1.2202179431915283,1.4895786046981812,0.0,0.0,0.0,0.0,0.0,0.0,0.0,0.0,0.0,0.004006677772849798,-0.001973115373402834,0.02685464546084404,0.0,0.0,0.0,0.0,0.0,0.0,0.0,0.0,0.0
1606986842711988917,716644,1606983241256546822,imu_link,0.005511745344847441,0.01587236113846302,0.5227150321006775,0.852341890335083,0.0,0.0,0.0,0.0,0.0,0.0,0.0,0.0,0.0,63.054874420166016,1.2202179431915283,1.4895786046981812,0.0,0.0,0.0,0.0,0.0,0.0,0.0,0.0,0.0,0.004006677772849798,-0.001973115373402834,0.02685464546084404,0.0,0.0,0.0,0.0,0.0,0.0,0.0,0.0,0.0
1606986842711997379,716645,1606983241269006677,imu_link,0.0055123199708759785,0.015871355310082436,0.5227149724960327,0.8523419499397278,0.0,0.0,0.0,0.0,0.0,0.0,0.0,0.0,0.0,63.05486297607422,1.2200853824615479,1.4895743131637573,0.0,0.0,0.0,0.0,0.0,0.0,0.0,0.0,0.0,-0.015765829011797905,0.022188812494277954,0.02489762380719185,0.0,0.0,0.0,0.0,0.0,0.0,0.0,0.0,0.0
1606986842712019114,716646,1606983241269110614,imu_link,0.0055123199708759785,0.015871355310082436,0.5227149724960327,0.8523419499397278,0.0,0.0,0.0,0.0,0.0,0.0,0.0,0.0,0.0,63.05486297607422,1.2200853824615479,1.4895743131637573,0.0,0.0,0.0,0.0,0.0,0.0,0.0,0.0,0.0,-0.015765829011797905,0.022188812494277954,0.02489762380719185,0.0,0.0,0.0,0.0,0.0,0.0,0.0,0.0,0.0
1606986842715601630,716647,1606983241269188008,imu_link,0.00551192881539464,0.015867702662944794,0.5227224230766296,0.8523374795913696,0.0,0.0,0.0,0.0,0.0,0.0,0.0,0.0,0.0,63.055850982666016,1.2197390794754028,1.489327311515808,0.0,0.0,0.0,0.0,0.0,0.0,0.0,0.0,0.0,-0.03146776929497719,0.018421031534671783,0.029895195737481117,0.0,0.0,0.0,0.0,0.0,0.0,0.0,0.0,0.0
1606986842715617260,716648,1606983241269269031,imu_link,0.00551192881539464,0.015867702662944794,0.5227224230766296,0.8523374795913696,0.0,0.0,0.0,0.0,0.0,0.0,0.0,0.0,0.0,63.055850982666016,1.2197390794754028,1.489327311515808,0.0,0.0,0.0,0.0,0.0,0.0,0.0,0.0,0.0,-0.03146776929497719,0.018421031534671783,0.029895195737481117,0.0,0.0,0.0,0.0,0.0,0.0,0.0,0.0,0.0
1606986842715623917,716649,1606983241269343813,imu_link,0.005511735565960407,0.01586669497191906,0.5227224230766296,0.8523374795913696,0.0,0.0,0.0,0.0,0.0,0.0,0.0,0.0,0.0,63.05584716796875,1.2196522951126099,1.4892481565475464,0.0,0.0,0.0,0.0,0.0,0.0,0.0,0.0,0.0,-0.00898982584476471,0.0008520011906512082,0.036647628992795944,0.0,0.0,0.0,0.0,0.0,0.0,0.0,0.0,0.0
1606986842715632703,716650,1606983241269426163,imu_link,0.005511735565960407,0.01586669497191906,0.5227224230766296,0.8523374795913696,0.0,0.0,0.0,0.0,0.0,0.0,0.0,0.0,0.0,63.05584716796875,1.2196522951126099,1.4892481565475464,0.0,0.0,0.0,0.0,0.0,0.0,0.0,0.0,0.0,-0.00898982584476471,0.0008520011906512082,0.036647628992795944,0.0,0.0,0.0,0.0,0.0,0.0,0.0,0.0,0.0
1606986842741627957,716651,1606983241269511186,imu_link,0.005514262709766626,0.01586834155023098,0.5227260589599609,0.8523352146148682,0.0,0.0,0.0,0.0,0.0,0.0,0.0,0.0,0.0,63.05634307861328,1.2196552753448486,1.4895989894866943,0.0,0.0,0.0,0.0,0.0,0.0,0.0,0.0,0.0,0.007379250600934029,0.008923407644033432,0.025912148877978325,0.0,0.0,0.0,0.0,0.0,0.0,0.0,0.0,0.0
1606986842741649311,716652,1606983241269585317,imu_link,0.005514262709766626,0.01586834155023098,0.5227260589599609,0.8523352146148682,0.0,0.0,0.0,0.0,0.0,0.0,0.0,0.0,0.0,63.05634307861328,1.2196552753448486,1.4895989894866943,0.0,0.0,0.0,0.0,0.0,0.0,0.0,0.0,0.0,0.007379250600934029,0.008923407644033432,0.025912148877978325,0.0,0.0,0.0,0.0,0.0,0.0,0.0,0.0,0.0
1606986842741660550,716653,1606983241269656429,imu_link,0.005514040123671293,0.015868904069066048,0.522726833820343,0.8523346781730652,0.0,0.0,0.0,0.0,0.0,0.0,0.0,0.0,0.0,63.056453704833984,1.2197221517562866,1.489612102508545,0.0,0.0,0.0,0.0,0.0,0.0,0.0,0.0,0.0,-0.007242496125400066,0.015099767595529556,0.04645570367574692,0.0,0.0,0.0,0.0,0.0,0.0,0.0,0.0,0.0
1606986842741668962,716654,1606983241269732396,imu_link,0.005514040123671293,0.015868904069066048,0.522726833820343,0.8523346781730652,0.0,0.0,0.0,0.0,0.0,0.0,0.0,0.0,0.0,63.056453704833984,1.2197221517562866,1.489612102508545,0.0,0.0,0.0,0.0,0.0,0.0,0.0,0.0,0.0,-0.007242496125400066,0.015099767595529556,0.04645570367574692,0.0,0.0,0.0,0.0,0.0,0.0,0.0,0.0,0.0
1606986842741692697,716655,1606983241269802185,imu_link,0.005512092262506485,0.015866875648498535,0.5227311253547668,0.8523321151733398,0.0,0.0,0.0,0.0,0.0,0.0,0.0,0.0,0.0,63.0570182800293,1.2196334600448608,1.4893062114715576,0.0,0.0,0.0,0.0,0.0,0.0,0.0,0.0,0.0,-0.009521069936454296,0.0061225732788443565,0.06226016953587532,0.0,0.0,0.0,0.0,0.0,0.0,0.0,0.0,0.0
1606986842745331180,716656,1606983241282848562,imu_link,0.005512092262506485,0.015866875648498535,0.5227311253547668,0.8523321151733398,0.0,0.0,0.0,0.0,0.0,0.0,0.0,0.0,0.0,63.0570182800293,1.2196334600448608,1.4893062114715576,0.0,0.0,0.0,0.0,0.0,0.0,0.0,0.0,0.0,-0.009521069936454296,0.0061225732788443565,0.06226016953587532,0.0,0.0,0.0,0.0,0.0,0.0,0.0,0.0,0.0
1606986842745354916,716657,1606983241283032565,imu_link,0.005512092262506485,0.015866875648498535,0.5227311253547668,0.8523321151733398,0.0,0.0,0.0,0.0,0.0,0.0,0.0,0.0,0.0,63.0570182800293,1.2196334600448608,1.4893062114715576,0.0,0.0,0.0,0.0,0.0,0.0,0.0,0.0,0.0,0.001574175781570375,0.011103663593530655,0.041924864053726196,0.0,0.0,0.0,0.0,0.0,0.0,0.0,0.0,0.0
1606986842745369576,716658,1606983241283115981,imu_link,0.005512092262506485,0.015866875648498535,0.5227311253547668,0.8523321151733398,0.0,0.0,0.0,0.0,0.0,0.0,0.0,0.0,0.0,63.0570182800293,1.2196334600448608,1.4893062114715576,0.0,0.0,0.0,0.0,0.0,0.0,0.0,0.0,0.0,0.001574175781570375,0.011103663593530655,0.041924864053726196,0.0,0.0,0.0,0.0,0.0,0.0,0.0,0.0,0.0
1606986842745382874,716659,1606983241283228668,imu_link,0.0055079213343560696,0.015865271911025047,0.5227334499359131,0.85233074426651,0.0,0.0,0.0,0.0,0.0,0.0,0.0,0.0,0.0,63.05732727050781,1.2197226285934448,1.4888060092926025,0.0,0.0,0.0,0.0,0.0,0.0,0.0,0.0,0.0,-0.011087272316217422,3.77782853320241e-05,0.03237786144018173,0.0,0.0,0.0,0.0,0.0,0.0,0.0,0.0,0.0
1606986842818018232,716660,1606983241283304555,imu_link,0.0055079213343560696,0.015865271911025047,0.5227334499359131,0.85233074426651,0.0,0.0,0.0,0.0,0.0,0.0,0.0,0.0,0.0,63.05732727050781,1.2197226285934448,1.4888060092926025,0.0,0.0,0.0,0.0,0.0,0.0,0.0,0.0,0.0,-0.011087272316217422,3.77782853320241e-05,0.03237786144018173,0.0,0.0,0.0,0.0,0.0,0.0,0.0,0.0,0.0
1606986842818041104,716661,1606983241283432233,imu_link,0.005506282672286034,0.015865104272961617,0.5227329730987549,0.8523310422897339,0.0,0.0,0.0,0.0,0.0,0.0,0.0,0.0,0.0,63.05725860595703,1.219805121421814,1.4886351823806763,0.0,0.0,0.0,0.0,0.0,0.0,0.0,0.0,0.0,-0.0032766445074230433,-0.01342198345810175,0.015197169035673141,0.0,0.0,0.0,0.0,0.0,0.0,0.0,0.0,0.0
1606986842818053999,716662,1606983241283570678,imu_link,0.005506282672286034,0.015865104272961617,0.5227329730987549,0.8523310422897339,0.0,0.0,0.0,0.0,0.0,0.0,0.0,0.0,0.0,63.05725860595703,1.219805121421814,1.4886351823806763,0.0,0.0,0.0,0.0,0.0,0.0,0.0,0.0,0.0,-0.0032766445074230433,-0.01342198345810175,0.015197169035673141,0.0,0.0,0.0,0.0,0.0,0.0,0.0,0.0,0.0
1606986842818059811,716663,1606983241283670633,imu_link,0.005509254988282919,0.015863362699747086,0.5227353572845459,0.852329671382904,0.0,0.0,0.0,0.0,0.0,0.0,0.0,0.0,0.0,63.05757522583008,1.2194530963897705,1.4888243675231934,0.0,0.0,0.0,0.0,0.0,0.0,0.0,0.0,0.0,0.013787411153316498,-0.002001961460337043,0.01152803748846054,0.0,0.0,0.0,0.0,0.0,0.0,0.0,0.0,0.0
1606986842818065676,716664,1606983241283749411,imu_link,0.005509254988282919,0.015863362699747086,0.5227353572845459,0.852329671382904,0.0,0.0,0.0,0.0,0.0,0.0,0.0,0.0,0.0,63.05757522583008,1.2194530963897705,1.4888243675231934,0.0,0.0,0.0,0.0,0.0,0.0,0.0,0.0,0.0,0.013787411153316498,-0.002001961460337043,0.01152803748846054,0.0,0.0,0.0,0.0,0.0,0.0,0.0,0.0,0.0
1606986842821695241,716665,1606983241283820549,imu_link,0.005509928334504366,0.015863003209233284,0.5227367281913757,0.8523288369178772,0.0,0.0,0.0,0.0,0.0,0.0,0.0,0.0,0.0,63.05775833129883,1.2193751335144043,1.4888705015182495,0.0,0.0,0.0,0.0,0.0,0.0,0.0,0.0,0.0,0.01069680042564869,0.01195257343351841,0.010550841689109802,0.0,0.0,0.0,0.0,0.0,0.0,0.0,0.0,0.0
1606986842821708576,716666,1606983241283892271,imu_link,0.005509928334504366,0.015863003209233284,0.5227367281913757,0.8523288369178772,0.0,0.0,0.0,0.0,0.0,0.0,0.0,0.0,0.0,63.05775833129883,1.2193751335144043,1.4888705015182495,0.0,0.0,0.0,0.0,0.0,0.0,0.0,0.0,0.0,0.01069680042564869,0.01195257343351841,0.010550841689109802,0.0,0.0,0.0,0.0,0.0,0.0,0.0,0.0,0.0
1606986842821722950,716667,1606983241296426663,imu_link,0.005506882444024086,0.01586298458278179,0.5227400660514832,0.8523267507553101,0.0,0.0,0.0,0.0,0.0,0.0,0.0,0.0,0.0,63.05820846557617,1.2195498943328857,1.488576889038086,0.0,0.0,0.0,0.0,0.0,0.0,0.0,0.0,0.0,-0.007165887393057346,0.028381071984767914,9.557756129652262e-05,0.0,0.0,0.0,0.0,0.0,0.0,0.0,0.0,0.0
1606986842821734046,716668,1606983241296561643,imu_link,0.005506882444024086,0.01586298458278179,0.5227400660514832,0.8523267507553101,0.0,0.0,0.0,0.0,0.0,0.0,0.0,0.0,0.0,63.05820846557617,1.2195498943328857,1.488576889038086,0.0,0.0,0.0,0.0,0.0,0.0,0.0,0.0,0.0,-0.007165887393057346,0.028381071984767914,9.557756129652262e-05,0.0,0.0,0.0,0.0,0.0,0.0,0.0,0.0,0.0
1606986842830935412,716669,1606983241296693245,imu_link,0.005505945533514023,0.015864310786128044,0.5227392315864563,0.852327287197113,0.0,0.0,0.0,0.0,0.0,0.0,0.0,0.0,0.0,63.0580940246582,1.21973717212677,1.4885635375976562,0.0,0.0,0.0,0.0,0.0,0.0,0.0,0.0,0.0,-0.008366996422410011,0.03303351625800133,0.02301812171936035,0.0,0.0,0.0,0.0,0.0,0.0,0.0,0.0,0.0
1606986842830953901,716670,1606983241296774500,imu_link,0.005505945533514023,0.015864310786128044,0.5227392315864563,0.852327287197113,0.0,0.0,0.0,0.0,0.0,0.0,0.0,0.0,0.0,63.0580940246582,1.21973717212677,1.4885635375976562,0.0,0.0,0.0,0.0,0.0,0.0,0.0,0.0,0.0,-0.008366996422410011,0.03303351625800133,0.02301812171936035,0.0,0.0,0.0,0.0,0.0,0.0,0.0,0.0,0.0
1606986842830973218,716671,1606983241296897606,imu_link,0.005499584134668112,0.01586020365357399,0.5227450728416443,0.8523238301277161,0.0,0.0,0.0,0.0,0.0,0.0,0.0,0.0,0.0,63.05886459350586,1.2197070121765137,1.4877040386199951,0.0,0.0,0.0,0.0,0.0,0.0,0.0,0.0,0.0,0.008610856719315052,0.026321526616811752,0.026613736525177956,0.0,0.0,0.0,0.0,0.0,0.0,0.0,0.0,0.0
1606986842830977989,716672,1606983241296973645,imu_link,0.005499584134668112,0.01586020365357399,0.5227450728416443,0.8523238301277161,0.0,0.0,0.0,0.0,0.0,0.0,0.0,0.0,0.0,63.05886459350586,1.2197070121765137,1.4877040386199951,0.0,0.0,0.0,0.0,0.0,0.0,0.0,0.0,0.0,0.008610856719315052,0.026321526616811752,0.026613736525177956,0.0,0.0,0.0,0.0,0.0,0.0,0.0,0.0,0.0
1606986842830982067,716673,1606983241297071319,imu_link,0.00549508910626173,0.015861254185438156,0.5227432250976562,0.8523249626159668,0.0,0.0,0.0,0.0,0.0,0.0,0.0,0.0,0.0,63.058616638183594,1.22008216381073,1.4873254299163818,0.0,0.0,0.0,0.0,0.0,0.0,0.0,0.0,0.0,0.009073648601770401,0.014391878619790077,0.012122290208935738,0.0,0.0,0.0,0.0,0.0,0.0,0.0,0.0,0.0
1606986842834100100,716674,1606983241297143202,imu_link,0.00549508910626173,0.015861254185438156,0.5227432250976562,0.8523249626159668,0.0,0.0,0.0,0.0,0.0,0.0,0.0,0.0,0.0,63.058616638183594,1.22008216381073,1.4873254299163818,0.0,0.0,0.0,0.0,0.0,0.0,0.0,0.0,0.0,0.009073648601770401,0.014391878619790077,0.012122290208935738,0.0,0.0,0.0,0.0,0.0,0.0,0.0,0.0,0.0
1606986842834113812,716675,1606983241297222554,imu_link,0.005493295378983021,0.01586250774562359,0.5227364897727966,0.8523290753364563,0.0,0.0,0.0,0.0,0.0,0.0,0.0,0.0,0.0,63.057708740234375,1.2203240394592285,1.4872156381607056,0.0,0.0,0.0,0.0,0.0,0.0,0.0,0.0,0.0,0.005672308150678873,0.01006969902664423,0.02516418881714344,0.0,0.0,0.0,0.0,0.0,0.0,0.0,0.0,0.0
1606986842834125927,716676,1606983241297293011,imu_link,0.005493295378983021,0.01586250774562359,0.5227364897727966,0.8523290753364563,0.0,0.0,0.0,0.0,0.0,0.0,0.0,0.0,0.0,63.057708740234375,1.2203240394592285,1.4872156381607056,0.0,0.0,0.0,0.0,0.0,0.0,0.0,0.0,0.0,0.005672308150678873,0.01006969902664423,0.02516418881714344,0.0,0.0,0.0,0.0,0.0,0.0,0.0,0.0,0.0
1606986842834133601,716677,1606983241297362296,imu_link,0.0054946462623775005,0.01586131379008293,0.5227358937263489,0.852329432964325,0.0,0.0,0.0,0.0,0.0,0.0,0.0,0.0,0.0,63.05763626098633,1.2201273441314697,1.4872753620147705,0.0,0.0,0.0,0.0,0.0,0.0,0.0,0.0,0.0,-0.008609455078840256,0.0011591562069952488,0.031089402735233307,0.0,0.0,0.0,0.0,0.0,0.0,0.0,0.0,0.0
1606986842928396820,716678,1606983241310154361,imu_link,0.0054946462623775005,0.01586131379008293,0.5227358937263489,0.852329432964325,0.0,0.0,0.0,0.0,0.0,0.0,0.0,0.0,0.0,63.05763626098633,1.2201273441314697,1.4872753620147705,0.0,0.0,0.0,0.0,0.0,0.0,0.0,0.0,0.0,-0.008609455078840256,0.0011591562069952488,0.031089402735233307,0.0,0.0,0.0,0.0,0.0,0.0,0.0,0.0,0.0
1606986842928431393,716679,1606983241310294921,imu_link,0.005495396908372641,0.015860073268413544,0.5227306485176086,0.8523326516151428,0.0,0.0,0.0,0.0,0.0,0.0,0.0,0.0,0.0,63.056922912597656,1.219970464706421,1.4872667789459229,0.0,0.0,0.0,0.0,0.0,0.0,0.0,0.0,0.0,-0.017145130783319473,-0.005643535405397415,0.01972336135804653,0.0,0.0,0.0,0.0,0.0,0.0,0.0,0.0,0.0
1606986842928444658,716680,1606983241310398902,imu_link,0.005495396908372641,0.015860073268413544,0.5227306485176086,0.8523326516151428,0.0,0.0,0.0,0.0,0.0,0.0,0.0,0.0,0.0,63.056922912597656,1.219970464706421,1.4872667789459229,0.0,0.0,0.0,0.0,0.0,0.0,0.0,0.0,0.0,-0.017145130783319473,-0.005643535405397415,0.01972336135804653,0.0,0.0,0.0,0.0,0.0,0.0,0.0,0.0,0.0
1606986842928459632,716681,1606983241310487377,imu_link,0.005495517514646053,0.015861885622143745,0.5227301716804504,0.8523328900337219,0.0,0.0,0.0,0.0,0.0,0.0,0.0,0.0,0.0,63.05686950683594,1.220140814781189,1.4873865842819214,0.0,0.0,0.0,0.0,0.0,0.0,0.0,0.0,0.0,-0.016710171476006508,0.005671776365488768,0.02118976227939129,0.0,0.0,0.0,0.0,0.0,0.0,0.0,0.0,0.0
1606986842928473482,716682,1606983241310581926,imu_link,0.005495517514646053,0.015861885622143745,0.5227301716804504,0.8523328900337219,0.0,0.0,0.0,0.0,0.0,0.0,0.0,0.0,0.0,63.05686950683594,1.220140814781189,1.4873865842819214,0.0,0.0,0.0,0.0,0.0,0.0,0.0,0.0,0.0,-0.016710171476006508,0.005671776365488768,0.02118976227939129,0.0,0.0,0.0,0.0,0.0,0.0,0.0,0.0,0.0
1606986842931582984,716683,1606983241310689460,imu_link,0.00549572566524148,0.015858542174100876,0.522731602191925,0.8523321151733398,0.0,0.0,0.0,0.0,0.0,0.0,0.0,0.0,0.0,63.05704879760742,1.219799518585205,1.4872082471847534,0.0,0.0,0.0,0.0,0.0,0.0,0.0,0.0,0.0,0.003073856234550476,-0.003223998472094536,0.04683590307831764,0.0,0.0,0.0,0.0,0.0,0.0,0.0,0.0,0.0
1606986842931624724,716684,1606983241310775193,imu_link,0.00549572566524148,0.015858542174100876,0.522731602191925,0.8523321151733398,0.0,0.0,0.0,0.0,0.0,0.0,0.0,0.0,0.0,63.05704879760742,1.219799518585205,1.4872082471847534,0.0,0.0,0.0,0.0,0.0,0.0,0.0,0.0,0.0,0.003073856234550476,-0.003223998472094536,0.04683590307831764,0.0,0.0,0.0,0.0,0.0,0.0,0.0,0.0,0.0
1606986842931638500,716685,1606983241310854537,imu_link,0.005496124736964703,0.015859056264162064,0.5227309465408325,0.8523325324058533,0.0,0.0,0.0,0.0,0.0,0.0,0.0,0.0,0.0,63.05695724487305,1.2198270559310913,1.4872771501541138,0.0,0.0,0.0,0.0,0.0,0.0,0.0,0.0,0.0,0.0021804459393024445,-0.025275034829974174,0.037019032984972,0.0,0.0,0.0,0.0,0.0,0.0,0.0,0.0,0.0
1606986842931652756,716686,1606983241310933489,imu_link,0.005496124736964703,0.015859056264162064,0.5227309465408325,0.8523325324058533,0.0,0.0,0.0,0.0,0.0,0.0,0.0,0.0,0.0,63.05695724487305,1.2198270559310913,1.4872771501541138,0.0,0.0,0.0,0.0,0.0,0.0,0.0,0.0,0.0,0.0021804459393024445,-0.025275034829974174,0.037019032984972,0.0,0.0,0.0,0.0,0.0,0.0,0.0,0.0,0.0
1606986842937822693,716687,1606983241311054690,imu_link,0.005500616040080786,0.015861863270401955,0.5227344036102295,0.852330207824707,0.0,0.0,0.0,0.0,0.0,0.0,0.0,0.0,0.0,63.05744171142578,1.2198256254196167,1.4878895282745361,0.0,0.0,0.0,0.0,0.0,0.0,0.0,0.0,0.0,-0.00424541998654604,-0.011199083179235458,0.02435729280114174,0.0,0.0,0.0,0.0,0.0,0.0,0.0,0.0,0.0
1606986842937855473,716688,1606983241311139120,imu_link,0.005500616040080786,0.015861863270401955,0.5227344036102295,0.852330207824707,0.0,0.0,0.0,0.0,0.0,0.0,0.0,0.0,0.0,63.05744171142578,1.2198256254196167,1.4878895282745361,0.0,0.0,0.0,0.0,0.0,0.0,0.0,0.0,0.0,-0.00424541998654604,-0.011199083179235458,0.02435729280114174,0.0,0.0,0.0,0.0,0.0,0.0,0.0,0.0,0.0
1606986842937869749,716689,1606983241319088903,imu_link,0.005502423737198114,0.015861866995692253,0.522733747959137,0.8523306846618652,0.0,0.0,0.0,0.0,0.0,0.0,0.0,0.0,0.0,63.05734634399414,1.2197190523147583,1.4880650043487549,0.0,0.0,0.0,0.0,0.0,0.0,0.0,0.0,0.0,-0.00020729374955408275,0.012870991602540016,0.011119410395622253,0.0,0.0,0.0,0.0,0.0,0.0,0.0,0.0,0.0
1606986842937882442,716690,1606983241319198121,imu_link,0.005502423737198114,0.015861866995692253,0.522733747959137,0.8523306846618652,0.0,0.0,0.0,0.0,0.0,0.0,0.0,0.0,0.0,63.05734634399414,1.2197190523147583,1.4880650043487549,0.0,0.0,0.0,0.0,0.0,0.0,0.0,0.0,0.0,-0.00020729374955408275,0.012870991602540016,0.011119410395622253,0.0,0.0,0.0,0.0,0.0,0.0,0.0,0.0,0.0
1606986842946110880,716691,1606983241319288124,imu_link,0.0055017960257828236,0.01585927978157997,0.5227266550064087,0.8523350954055786,0.0,0.0,0.0,0.0,0.0,0.0,0.0,0.0,0.0,63.056392669677734,1.219516396522522,1.487838625907898,0.0,0.0,0.0,0.0,0.0,0.0,0.0,0.0,0.0,-0.00581811647862196,0.006332803517580032,-0.005875294096767902,0.0,0.0,0.0,0.0,0.0,0.0,0.0,0.0,0.0
1606986842946147021,716692,1606983241319552546,imu_link,0.0055017960257828236,0.01585927978157997,0.5227266550064087,0.8523350954055786,0.0,0.0,0.0,0.0,0.0,0.0,0.0,0.0,0.0,63.056392669677734,1.219516396522522,1.487838625907898,0.0,0.0,0.0,0.0,0.0,0.0,0.0,0.0,0.0,-0.00581811647862196,0.006332803517580032,-0.005875294096767902,0.0,0.0,0.0,0.0,0.0,0.0,0.0,0.0,0.0
1606986842946230381,716693,1606983241319634757,imu_link,0.005501203238964081,0.01585829257965088,0.5227258801460266,0.8523356318473816,0.0,0.0,0.0,0.0,0.0,0.0,0.0,0.0,0.0,63.05628204345703,1.2194570302963257,1.487720251083374,0.0,0.0,0.0,0.0,0.0,0.0,0.0,0.0,0.0,-0.0010072619188576937,-0.004676825366914272,0.03860820084810257,0.0,0.0,0.0,0.0,0.0,0.0,0.0,0.0,0.0
1606986842946242637,716694,1606983241319731250,imu_link,0.005501203238964081,0.01585829257965088,0.5227258801460266,0.8523356318473816,0.0,0.0,0.0,0.0,0.0,0.0,0.0,0.0,0.0,63.05628204345703,1.2194570302963257,1.487720251083374,0.0,0.0,0.0,0.0,0.0,0.0,0.0,0.0,0.0,-0.0010072619188576937,-0.004676825366914272,0.03860820084810257,0.0,0.0,0.0,0.0,0.0,0.0,0.0,0.0,0.0
1606986842946271210,716695,1606983241319811000,imu_link,0.00550190731883049,0.015857651829719543,0.522719144821167,0.8523397445678711,0.0,0.0,0.0,0.0,0.0,0.0,0.0,0.0,0.0,63.05537414550781,1.219363808631897,1.4877409934997559,0.0,0.0,0.0,0.0,0.0,0.0,0.0,0.0,0.0,-0.00014319538604468107,-0.01712675206363201,0.057641055434942245,0.0,0.0,0.0,0.0,0.0,0.0,0.0,0.0,0.0
1606986842984300013,716696,1606983241332923726,imu_link,0.00550190731883049,0.015857651829719543,0.522719144821167,0.8523397445678711,0.0,0.0,0.0,0.0,0.0,0.0,0.0,0.0,0.0,63.05537414550781,1.219363808631897,1.4877409934997559,0.0,0.0,0.0,0.0,0.0,0.0,0.0,0.0,0.0,-0.00014319538604468107,-0.01712675206363201,0.057641055434942245,0.0,0.0,0.0,0.0,0.0,0.0,0.0,0.0,0.0
1606986842984315912,716697,1606983241333056268,imu_link,0.0055016521364450455,0.015857001766562462,0.5227181315422058,0.8523402810096741,0.0,0.0,0.0,0.0,0.0,0.0,0.0,0.0,0.0,63.05524444580078,1.2193171977996826,1.4876757860183716,0.0,0.0,0.0,0.0,0.0,0.0,0.0,0.0,0.0,-0.006182636599987745,-0.012962497770786285,0.023217735812067986,0.0,0.0,0.0,0.0,0.0,0.0,0.0,0.0,0.0
1606986842984322517,716698,1606983241333188414,imu_link,0.0055016521364450455,0.015857001766562462,0.5227181315422058,0.8523402810096741,0.0,0.0,0.0,0.0,0.0,0.0,0.0,0.0,0.0,63.05524444580078,1.2193171977996826,1.4876757860183716,0.0,0.0,0.0,0.0,0.0,0.0,0.0,0.0,0.0,-0.006182636599987745,-0.012962497770786285,0.023217735812067986,0.0,0.0,0.0,0.0,0.0,0.0,0.0,0.0,0.0
1606986842984334127,716699,1606983241333271807,imu_link,0.005504649598151445,0.015859724953770638,0.5227078199386597,0.8523465991020203,0.0,0.0,0.0,0.0,0.0,0.0,0.0,0.0,0.0,63.053855895996094,1.219421625137329,1.488116979598999,0.0,0.0,0.0,0.0,0.0,0.0,0.0,0.0,0.0,-0.028172636404633522,-0.0026839962229132652,-0.0012324631679803133,0.0,0.0,0.0,0.0,0.0,0.0,0.0,0.0,0.0
1606986842990210384,716700,1606983241333362341,imu_link,0.005504649598151445,0.015859724953770638,0.5227078199386597,0.8523465991020203,0.0,0.0,0.0,0.0,0.0,0.0,0.0,0.0,0.0,63.053855895996094,1.219421625137329,1.488116979598999,0.0,0.0,0.0,0.0,0.0,0.0,0.0,0.0,0.0,-0.028172636404633522,-0.0026839962229132652,-0.0012324631679803133,0.0,0.0,0.0,0.0,0.0,0.0,0.0,0.0,0.0
1606986842990241665,716701,1606983241333450611,imu_link,0.005503165535628796,0.01586046628654003,0.5227065086364746,0.8523474335670471,0.0,0.0,0.0,0.0,0.0,0.0,0.0,0.0,0.0,63.053688049316406,1.2195854187011719,1.488014578819275,0.0,0.0,0.0,0.0,0.0,0.0,0.0,0.0,0.0,-0.0294834915548563,-0.009710382670164108,0.005972730927169323,0.0,0.0,0.0,0.0,0.0,0.0,0.0,0.0,0.0
1606986842990253213,716702,1606983241333556501,imu_link,0.005503165535628796,0.01586046628654003,0.5227065086364746,0.8523474335670471,0.0,0.0,0.0,0.0,0.0,0.0,0.0,0.0,0.0,63.053688049316406,1.2195854187011719,1.488014578819275,0.0,0.0,0.0,0.0,0.0,0.0,0.0,0.0,0.0,-0.0294834915548563,-0.009710382670164108,0.005972730927169323,0.0,0.0,0.0,0.0,0.0,0.0,0.0,0.0,0.0
1606986842990304944,716703,1606983241333642139,imu_link,0.005508604925125837,0.01585719920694828,0.5226947665214539,0.8523546457290649,0.0,0.0,0.0,0.0,0.0,0.0,0.0,0.0,0.0,63.052101135253906,1.2189610004425049,1.4883331060409546,0.0,0.0,0.0,0.0,0.0,0.0,0.0,0.0,0.0,0.000774031737819314,-0.010524993762373924,0.026579437777400017,0.0,0.0,0.0,0.0,0.0,0.0,0.0,0.0,0.0
1606986842990315322,716704,1606983241333775112,imu_link,0.005508604925125837,0.01585719920694828,0.5226947665214539,0.8523546457290649,0.0,0.0,0.0,0.0,0.0,0.0,0.0,0.0,0.0,63.052101135253906,1.2189610004425049,1.4883331060409546,0.0,0.0,0.0,0.0,0.0,0.0,0.0,0.0,0.0,0.000774031737819314,-0.010524993762373924,0.026579437777400017,0.0,0.0,0.0,0.0,0.0,0.0,0.0,0.0,0.0
1606986843003207123,716705,1606983241333858705,imu_link,0.005509446375072002,0.015858978033065796,0.5226926207542419,0.8523558974266052,0.0,0.0,0.0,0.0,0.0,0.0,0.0,0.0,0.0,63.051822662353516,1.219087839126587,1.488519310951233,0.0,0.0,0.0,0.0,0.0,0.0,0.0,0.0,0.0,0.012986259534955025,-0.029246861115098,0.017104417085647583,0.0,0.0,0.0,0.0,0.0,0.0,0.0,0.0,0.0
1606986843003233981,716706,1606983241333939938,imu_link,0.005509446375072002,0.015858978033065796,0.5226926207542419,0.8523558974266052,0.0,0.0,0.0,0.0,0.0,0.0,0.0,0.0,0.0,63.051822662353516,1.219087839126587,1.488519310951233,0.0,0.0,0.0,0.0,0.0,0.0,0.0,0.0,0.0,0.012986259534955025,-0.029246861115098,0.017104417085647583,0.0,0.0,0.0,0.0,0.0,0.0,0.0,0.0,0.0
1606986843003245340,716707,1606983241346303421,imu_link,0.005510581657290459,0.015865446999669075,0.522688627243042,0.8523582816123962,0.0,0.0,0.0,0.0,0.0,0.0,0.0,0.0,0.0,63.05130386352539,1.2196587324142456,1.4890122413635254,0.0,0.0,0.0,0.0,0.0,0.0,0.0,0.0,0.0,0.008562740869820118,-0.033570192754268646,0.013236469589173794,0.0,0.0,0.0,0.0,0.0,0.0,0.0,0.0,0.0
1606986843003326648,716708,1606983241346419124,imu_link,0.005510581657290459,0.015865446999669075,0.522688627243042,0.8523582816123962,0.0,0.0,0.0,0.0,0.0,0.0,0.0,0.0,0.0,63.05130386352539,1.2196587324142456,1.4890122413635254,0.0,0.0,0.0,0.0,0.0,0.0,0.0,0.0,0.0,0.008562740869820118,-0.033570192754268646,0.013236469589173794,0.0,0.0,0.0,0.0,0.0,0.0,0.0,0.0,0.0
1606986843007466092,716709,1606983241346503274,imu_link,0.005513501353561878,0.01586334779858589,0.5226864218711853,0.8523595333099365,0.0,0.0,0.0,0.0,0.0,0.0,0.0,0.0,0.0,63.05101013183594,1.2192822694778442,1.4891685247421265,0.0,0.0,0.0,0.0,0.0,0.0,0.0,0.0,0.0,0.011222220957279205,-0.007200469262897968,0.018349094316363335,0.0,0.0,0.0,0.0,0.0,0.0,0.0,0.0,0.0
1606986843007521722,716710,1606983241346590525,imu_link,0.005513501353561878,0.01586334779858589,0.5226864218711853,0.8523595333099365,0.0,0.0,0.0,0.0,0.0,0.0,0.0,0.0,0.0,63.05101013183594,1.2192822694778442,1.4891685247421265,0.0,0.0,0.0,0.0,0.0,0.0,0.0,0.0,0.0,0.011222220957279205,-0.007200469262897968,0.018349094316363335,0.0,0.0,0.0,0.0,0.0,0.0,0.0,0.0,0.0
1606986843007556426,716711,1606983241346669714,imu_link,0.005512460600584745,0.01586717739701271,0.5226839184761047,0.8523610830307007,0.0,0.0,0.0,0.0,0.0,0.0,0.0,0.0,0.0,63.05067443847656,1.2197232246398926,1.4892927408218384,0.0,0.0,0.0,0.0,0.0,0.0,0.0,0.0,0.0,0.00969295296818018,0.009702551178634167,0.021652989089488983,0.0,0.0,0.0,0.0,0.0,0.0,0.0,0.0,0.0
1606986843007621662,716712,1606983241346750360,imu_link,0.005512460600584745,0.01586717739701271,0.5226839184761047,0.8523610830307007,0.0,0.0,0.0,0.0,0.0,0.0,0.0,0.0,0.0,63.05067443847656,1.2197232246398926,1.4892927408218384,0.0,0.0,0.0,0.0,0.0,0.0,0.0,0.0,0.0,0.00969295296818018,0.009702551178634167,0.021652989089488983,0.0,0.0,0.0,0.0,0.0,0.0,0.0,0.0,0.0
1606986843007636883,716713,1606983241346845731,imu_link,0.005512742325663567,0.015866780653595924,0.5226819515228271,0.8523622751235962,0.0,0.0,0.0,0.0,0.0,0.0,0.0,0.0,0.0,63.0504150390625,1.2196710109710693,1.4892936944961548,0.0,0.0,0.0,0.0,0.0,0.0,0.0,0.0,0.0,-0.0036882981657981873,0.01192473154515028,0.03267107158899307,0.0,0.0,0.0,0.0,0.0,0.0,0.0,0.0,0.0
1606986843118919049,716714,1606983241346926388,imu_link,0.005512742325663567,0.015866780653595924,0.5226819515228271,0.8523622751235962,0.0,0.0,0.0,0.0,0.0,0.0,0.0,0.0,0.0,63.0504150390625,1.2196710109710693,1.4892936944961548,0.0,0.0,0.0,0.0,0.0,0.0,0.0,0.0,0.0,-0.0036882981657981873,0.01192473154515028,0.03267107158899307,0.0,0.0,0.0,0.0,0.0,0.0,0.0,0.0,0.0
1606986843118945054,716715,1606983241347066647,imu_link,0.005512619856745005,0.015864761546254158,0.5226829051971436,0.8523617386817932,0.0,0.0,0.0,0.0,0.0,0.0,0.0,0.0,0.0,63.050533294677734,1.2194796800613403,1.4891622066497803,0.0,0.0,0.0,0.0,0.0,0.0,0.0,0.0,0.0,-0.0013893588911741972,0.005718247964978218,0.054967619478702545,0.0,0.0,0.0,0.0,0.0,0.0,0.0,0.0,0.0
1606986843118973181,716716,1606983241347152596,imu_link,0.005512619856745005,0.015864761546254158,0.5226829051971436,0.8523617386817932,0.0,0.0,0.0,0.0,0.0,0.0,0.0,0.0,0.0,63.050533294677734,1.2194796800613403,1.4891622066497803,0.0,0.0,0.0,0.0,0.0,0.0,0.0,0.0,0.0,-0.0013893588911741972,0.005718247964978218,0.054967619478702545,0.0,0.0,0.0,0.0,0.0,0.0,0.0,0.0,0.0
1606986843118983886,716717,1606983241347257188,imu_link,0.0055138771422207355,0.015866290777921677,0.5226849913597107,0.8523604869842529,0.0,0.0,0.0,0.0,0.0,0.0,0.0,0.0,0.0,63.050811767578125,1.2195500135421753,1.4893795251846313,0.0,0.0,0.0,0.0,0.0,0.0,0.0,0.0,0.0,0.008158924989402294,0.009439472109079361,0.05463334172964096,0.0,0.0,0.0,0.0,0.0,0.0,0.0,0.0,0.0
1606986843122592695,716718,1606983241360120904,imu_link,0.0055138771422207355,0.015866290777921677,0.5226849913597107,0.8523604869842529,0.0,0.0,0.0,0.0,0.0,0.0,0.0,0.0,0.0,63.050811767578125,1.2195500135421753,1.4893795251846313,0.0,0.0,0.0,0.0,0.0,0.0,0.0,0.0,0.0,0.008158924989402294,0.009439472109079361,0.05463334172964096,0.0,0.0,0.0,0.0,0.0,0.0,0.0,0.0,0.0
1606986843122622020,716719,1606983241360234827,imu_link,0.005510606802999973,0.015866098925471306,0.5226848125457764,0.8523605465888977,0.0,0.0,0.0,0.0,0.0,0.0,0.0,0.0,0.0,63.0507926940918,1.2197272777557373,1.4890484809875488,0.0,0.0,0.0,0.0,0.0,0.0,0.0,0.0,0.0,-0.004603555426001549,0.013695891946554184,0.02254818007349968,0.0,0.0,0.0,0.0,0.0,0.0,0.0,0.0,0.0
1606986843122633294,716720,1606983241360320155,imu_link,0.005510606802999973,0.015866098925471306,0.5226848125457764,0.8523605465888977,0.0,0.0,0.0,0.0,0.0,0.0,0.0,0.0,0.0,63.0507926940918,1.2197272777557373,1.4890484809875488,0.0,0.0,0.0,0.0,0.0,0.0,0.0,0.0,0.0,-0.004603555426001549,0.013695891946554184,0.02254818007349968,0.0,0.0,0.0,0.0,0.0,0.0,0.0,0.0,0.0
1606986843122647765,716721,1606983241360409983,imu_link,0.005509168840944767,0.0158656295388937,0.5226837396621704,0.8523612022399902,0.0,0.0,0.0,0.0,0.0,0.0,0.0,0.0,0.0,63.0506477355957,1.2197695970535278,1.4888782501220703,0.0,0.0,0.0,0.0,0.0,0.0,0.0,0.0,0.0,0.00668041268363595,0.0006364247528836131,0.042482294142246246,0.0,0.0,0.0,0.0,0.0,0.0,0.0,0.0,0.0
1606986843122665689,716722,1606983241360489126,imu_link,0.005509168840944767,0.0158656295388937,0.5226837396621704,0.8523612022399902,0.0,0.0,0.0,0.0,0.0,0.0,0.0,0.0,0.0,63.0506477355957,1.2197695970535278,1.4888782501220703,0.0,0.0,0.0,0.0,0.0,0.0,0.0,0.0,0.0,0.00668041268363595,0.0006364247528836131,0.042482294142246246,0.0,0.0,0.0,0.0,0.0,0.0,0.0,0.0,0.0
1606986843132357959,716723,1606983241360588215,imu_link,0.005508844740688801,0.015868576243519783,0.5226835608482361,0.852361261844635,0.0,0.0,0.0,0.0,0.0,0.0,0.0,0.0,0.0,63.05063247680664,1.2200770378112793,1.489023208618164,0.0,0.0,0.0,0.0,0.0,0.0,0.0,0.0,0.0,0.024445928633213043,-0.0046022674068808556,0.047916918992996216,0.0,0.0,0.0,0.0,0.0,0.0,0.0,0.0,0.0
1606986843132380335,716724,1606983241360671754,imu_link,0.005508844740688801,0.015868576243519783,0.5226835608482361,0.852361261844635,0.0,0.0,0.0,0.0,0.0,0.0,0.0,0.0,0.0,63.05063247680664,1.2200770378112793,1.489023208618164,0.0,0.0,0.0,0.0,0.0,0.0,0.0,0.0,0.0,0.024445928633213043,-0.0046022674068808556,0.047916918992996216,0.0,0.0,0.0,0.0,0.0,0.0,0.0,0.0,0.0
1606986843132390531,716725,1606983241360791160,imu_link,0.005510034970939159,0.015868255868554115,0.5226834416389465,0.8523613214492798,0.0,0.0,0.0,0.0,0.0,0.0,0.0,0.0,0.0,63.05061340332031,1.2199747562408447,1.4891198873519897,0.0,0.0,0.0,0.0,0.0,0.0,0.0,0.0,0.0,0.006029117852449417,0.01097211055457592,0.028722457587718964,0.0,0.0,0.0,0.0,0.0,0.0,0.0,0.0,0.0
1606986843132423071,716726,1606983241360873014,imu_link,0.005510034970939159,0.015868255868554115,0.5226834416389465,0.8523613214492798,0.0,0.0,0.0,0.0,0.0,0.0,0.0,0.0,0.0,63.05061340332031,1.2199747562408447,1.4891198873519897,0.0,0.0,0.0,0.0,0.0,0.0,0.0,0.0,0.0,0.006029117852449417,0.01097211055457592,0.028722457587718964,0.0,0.0,0.0,0.0,0.0,0.0,0.0,0.0,0.0
1606986843138035382,716727,1606983241360953686,imu_link,0.005507381167262793,0.015867941081523895,0.5226843357086182,0.8523608446121216,0.0,0.0,0.0,0.0,0.0,0.0,0.0,0.0,0.0,63.05072784423828,1.2201013565063477,1.4888430833816528,0.0,0.0,0.0,0.0,0.0,0.0,0.0,0.0,0.0,-0.010824887081980705,0.0074338726699352264,0.035408757627010345,0.0,0.0,0.0,0.0,0.0,0.0,0.0,0.0,0.0
1606986843138074249,716728,1606983241361035460,imu_link,0.005507381167262793,0.015867941081523895,0.5226843357086182,0.8523608446121216,0.0,0.0,0.0,0.0,0.0,0.0,0.0,0.0,0.0,63.05072784423828,1.2201013565063477,1.4888430833816528,0.0,0.0,0.0,0.0,0.0,0.0,0.0,0.0,0.0,-0.010824887081980705,0.0074338726699352264,0.035408757627010345,0.0,0.0,0.0,0.0,0.0,0.0,0.0,0.0,0.0
1606986843138091559,716729,1606983241373362138,imu_link,0.005506859160959721,0.015869060531258583,0.5226846933364868,0.8523606061935425,0.0,0.0,0.0,0.0,0.0,0.0,0.0,0.0,0.0,63.050777435302734,1.2202414274215698,1.4888596534729004,0.0,0.0,0.0,0.0,0.0,0.0,0.0,0.0,0.0,-0.013351176865398884,-0.0026279212906956673,0.035649821162223816,0.0,0.0,0.0,0.0,0.0,0.0,0.0,0.0,0.0
1606986843138101570,716730,1606983241373508833,imu_link,0.005506859160959721,0.015869060531258583,0.5226846933364868,0.8523606061935425,0.0,0.0,0.0,0.0,0.0,0.0,0.0,0.0,0.0,63.050777435302734,1.2202414274215698,1.4888596534729004,0.0,0.0,0.0,0.0,0.0,0.0,0.0,0.0,0.0,-0.013351176865398884,-0.0026279212906956673,0.035649821162223816,0.0,0.0,0.0,0.0,0.0,0.0,0.0,0.0,0.0
1606986843138134554,716731,1606983241373606704,imu_link,0.005507996771484613,0.015869557857513428,0.5226907730102539,0.8523568511009216,0.0,0.0,0.0,0.0,0.0,0.0,0.0,0.0,0.0,63.051605224609375,1.220211148262024,1.4890093803405762,0.0,0.0,0.0,0.0,0.0,0.0,0.0,0.0,0.0,-0.01727432571351528,-0.007923531346023083,0.02009011246263981,0.0,0.0,0.0,0.0,0.0,0.0,0.0,0.0,0.0
1606986843214551432,716732,1606983241373691164,imu_link,0.005507996771484613,0.015869557857513428,0.5226907730102539,0.8523568511009216,0.0,0.0,0.0,0.0,0.0,0.0,0.0,0.0,0.0,63.051605224609375,1.220211148262024,1.4890093803405762,0.0,0.0,0.0,0.0,0.0,0.0,0.0,0.0,0.0,-0.01727432571351528,-0.007923531346023083,0.02009011246263981,0.0,0.0,0.0,0.0,0.0,0.0,0.0,0.0,0.0
1606986843214564236,716733,1606983241373782591,imu_link,0.005509746726602316,0.01586957834661007,0.5226902961730957,0.8523571491241455,0.0,0.0,0.0,0.0,0.0,0.0,0.0,0.0,0.0,63.051536560058594,1.220109224319458,1.4891808032989502,0.0,0.0,0.0,0.0,0.0,0.0,0.0,0.0,0.0,-0.017578771337866783,-0.012861482799053192,0.018054578453302383,0.0,0.0,0.0,0.0,0.0,0.0,0.0,0.0,0.0
1606986843214571578,716734,1606983241373882773,imu_link,0.005509746726602316,0.01586957834661007,0.5226902961730957,0.8523571491241455,0.0,0.0,0.0,0.0,0.0,0.0,0.0,0.0,0.0,63.051536560058594,1.220109224319458,1.4891808032989502,0.0,0.0,0.0,0.0,0.0,0.0,0.0,0.0,0.0,-0.017578771337866783,-0.012861482799053192,0.018054578453302383,0.0,0.0,0.0,0.0,0.0,0.0,0.0,0.0,0.0
1606986843214581470,716735,1606983241373965003,imu_link,0.0055145081132650375,0.01586822047829628,0.5226948261260986,0.8523543477058411,0.0,0.0,0.0,0.0,0.0,0.0,0.0,0.0,0.0,63.05214309692383,1.219683289527893,1.4895710945129395,0.0,0.0,0.0,0.0,0.0,0.0,0.0,0.0,0.0,0.010165113024413586,-0.009386577643454075,0.00034130545100197196,0.0,0.0,0.0,0.0,0.0,0.0,0.0,0.0,0.0
1606986843218315603,716736,1606983241374047755,imu_link,0.0055145081132650375,0.01586822047829628,0.5226948261260986,0.8523543477058411,0.0,0.0,0.0,0.0,0.0,0.0,0.0,0.0,0.0,63.05214309692383,1.219683289527893,1.4895710945129395,0.0,0.0,0.0,0.0,0.0,0.0,0.0,0.0,0.0,0.010165113024413586,-0.009386577643454075,0.00034130545100197196,0.0,0.0,0.0,0.0,0.0,0.0,0.0,0.0,0.0
1606986843218326372,716737,1606983241374128707,imu_link,0.005512501113116741,0.015870504081249237,0.5226945281028748,0.8523544669151306,0.0,0.0,0.0,0.0,0.0,0.0,0.0,0.0,0.0,63.05211639404297,1.2200270891189575,1.4895117282867432,0.0,0.0,0.0,0.0,0.0,0.0,0.0,0.0,0.0,0.018338482826948166,-0.01580878533422947,0.004621467553079128,0.0,0.0,0.0,0.0,0.0,0.0,0.0,0.0,0.0
1606986843218352216,716738,1606983241374207274,imu_link,0.005512501113116741,0.015870504081249237,0.5226945281028748,0.8523544669151306,0.0,0.0,0.0,0.0,0.0,0.0,0.0,0.0,0.0,63.05211639404297,1.2200270891189575,1.4895117282867432,0.0,0.0,0.0,0.0,0.0,0.0,0.0,0.0,0.0,0.018338482826948166,-0.01580878533422947,0.004621467553079128,0.0,0.0,0.0,0.0,0.0,0.0,0.0,0.0,0.0
1606986843218358893,716739,1606983241386519924,imu_link,0.0055136727169156075,0.015875613316893578,0.5226798057556152,0.8523634672164917,0.0,0.0,0.0,0.0,0.0,0.0,0.0,0.0,0.0,63.050148010253906,1.2204817533493042,1.4899111986160278,0.0,0.0,0.0,0.0,0.0,0.0,0.0,0.0,0.0,-0.006289969198405743,-0.0015818943502381444,0.04339727759361267,0.0,0.0,0.0,0.0,0.0,0.0,0.0,0.0,0.0
1606986843218369824,716740,1606983241386659963,imu_link,0.0055136727169156075,0.015875613316893578,0.5226798057556152,0.8523634672164917,0.0,0.0,0.0,0.0,0.0,0.0,0.0,0.0,0.0,63.050148010253906,1.2204817533493042,1.4899111986160278,0.0,0.0,0.0,0.0,0.0,0.0,0.0,0.0,0.0,-0.006289969198405743,-0.0015818943502381444,0.04339727759361267,0.0,0.0,0.0,0.0,0.0,0.0,0.0,0.0,0.0
1606986843230387026,716741,1606983241386760927,imu_link,0.005514218006283045,0.01587478071451187,0.5226802229881287,0.8523632287979126,0.0,0.0,0.0,0.0,0.0,0.0,0.0,0.0,0.0,63.05019760131836,1.2203670740127563,1.489915132522583,0.0,0.0,0.0,0.0,0.0,0.0,0.0,0.0,0.0,-0.018246717751026154,0.019489839673042297,0.03738442063331604,0.0,0.0,0.0,0.0,0.0,0.0,0.0,0.0,0.0
1606986843230403849,716742,1606983241386851070,imu_link,0.005514218006283045,0.01587478071451187,0.5226802229881287,0.8523632287979126,0.0,0.0,0.0,0.0,0.0,0.0,0.0,0.0,0.0,63.05019760131836,1.2203670740127563,1.489915132522583,0.0,0.0,0.0,0.0,0.0,0.0,0.0,0.0,0.0,-0.018246717751026154,0.019489839673042297,0.03738442063331604,0.0,0.0,0.0,0.0,0.0,0.0,0.0,0.0,0.0
1606986843230410682,716743,1606983241386936558,imu_link,0.005511790979653597,0.015872640535235405,0.5226679444313049,0.8523707985877991,0.0,0.0,0.0,0.0,0.0,0.0,0.0,0.0,0.0,63.04854202270508,1.220324993133545,1.4895321130752563,0.0,0.0,0.0,0.0,0.0,0.0,0.0,0.0,0.0,-0.019854744896292686,0.010541400872170925,0.019112268462777138,0.0,0.0,0.0,0.0,0.0,0.0,0.0,0.0,0.0
1606986843230416966,716744,1606983241387074302,imu_link,0.005511790979653597,0.015872640535235405,0.5226679444313049,0.8523707985877991,0.0,0.0,0.0,0.0,0.0,0.0,0.0,0.0,0.0,63.04854202270508,1.220324993133545,1.4895321130752563,0.0,0.0,0.0,0.0,0.0,0.0,0.0,0.0,0.0,-0.019854744896292686,0.010541400872170925,0.019112268462777138,0.0,0.0,0.0,0.0,0.0,0.0,0.0,0.0,0.0
1606986843234517897,716745,1606983241387179967,imu_link,0.005512215197086334,0.015872443094849586,0.5226672291755676,0.8523712754249573,0.0,0.0,0.0,0.0,0.0,0.0,0.0,0.0,0.0,63.04844284057617,1.2202814817428589,1.489560604095459,0.0,0.0,0.0,0.0,0.0,0.0,0.0,0.0,0.0,-0.01249865535646677,-0.012698686681687832,0.0321502611041069,0.0,0.0,0.0,0.0,0.0,0.0,0.0,0.0,0.0
1606986843234539799,716746,1606983241387263330,imu_link,0.005512215197086334,0.015872443094849586,0.5226672291755676,0.8523712754249573,0.0,0.0,0.0,0.0,0.0,0.0,0.0,0.0,0.0,63.04844284057617,1.2202814817428589,1.489560604095459,0.0,0.0,0.0,0.0,0.0,0.0,0.0,0.0,0.0,-0.01249865535646677,-0.012698686681687832,0.0321502611041069,0.0,0.0,0.0,0.0,0.0,0.0,0.0,0.0,0.0
1606986843234550857,716747,1606983241387345039,imu_link,0.005516661796718836,0.015870722010731697,0.5226646065711975,0.8523728251457214,0.0,0.0,0.0,0.0,0.0,0.0,0.0,0.0,0.0,63.048091888427734,1.2198513746261597,1.4898884296417236,0.0,0.0,0.0,0.0,0.0,0.0,0.0,0.0,0.0,-0.00450331624597311,-0.003329153172671795,0.04659443348646164,0.0,0.0,0.0,0.0,0.0,0.0,0.0,0.0,0.0
1606986843234630285,716748,1606983241387426728,imu_link,0.005516661796718836,0.015870722010731697,0.5226646065711975,0.8523728251457214,0.0,0.0,0.0,0.0,0.0,0.0,0.0,0.0,0.0,63.048091888427734,1.2198513746261597,1.4898884296417236,0.0,0.0,0.0,0.0,0.0,0.0,0.0,0.0,0.0,-0.00450331624597311,-0.003329153172671795,0.04659443348646164,0.0,0.0,0.0,0.0,0.0,0.0,0.0,0.0,0.0
1606986843234717757,716749,1606983241387507419,imu_link,0.005517119076102972,0.01587212271988392,0.5226651430130005,0.8523724675178528,0.0,0.0,0.0,0.0,0.0,0.0,0.0,0.0,0.0,63.04816818237305,1.2199599742889404,1.4900176525115967,0.0,0.0,0.0,0.0,0.0,0.0,0.0,0.0,0.0,0.0003529933746904135,0.027551403269171715,0.042758140712976456,0.0,0.0,0.0,0.0,0.0,0.0,0.0,0.0,0.0
1606986843362040278,716750,1606983241400281317,imu_link,0.005517119076102972,0.01587212271988392,0.5226651430130005,0.8523724675178528,0.0,0.0,0.0,0.0,0.0,0.0,0.0,0.0,0.0,63.04816818237305,1.2199599742889404,1.4900176525115967,0.0,0.0,0.0,0.0,0.0,0.0,0.0,0.0,0.0,0.0003529933746904135,0.027551403269171715,0.042758140712976456,0.0,0.0,0.0,0.0,0.0,0.0,0.0,0.0,0.0
1606986843362058837,716751,1606983241400398092,imu_link,0.005511264782398939,0.015869293361902237,0.5226619839668274,0.8523744940757751,0.0,0.0,0.0,0.0,0.0,0.0,0.0,0.0,0.0,63.0477294921875,1.220039963722229,1.4892712831497192,0.0,0.0,0.0,0.0,0.0,0.0,0.0,0.0,0.0,-0.0015140357427299023,0.02100585773587227,0.03327518701553345,0.0,0.0,0.0,0.0,0.0,0.0,0.0,0.0,0.0
1606986843362068195,716752,1606983241400486622,imu_link,0.005511264782398939,0.015869293361902237,0.5226619839668274,0.8523744940757751,0.0,0.0,0.0,0.0,0.0,0.0,0.0,0.0,0.0,63.0477294921875,1.220039963722229,1.4892712831497192,0.0,0.0,0.0,0.0,0.0,0.0,0.0,0.0,0.0,-0.0015140357427299023,0.02100585773587227,0.03327518701553345,0.0,0.0,0.0,0.0,0.0,0.0,0.0,0.0,0.0
1606986843362074962,716753,1606983241400576771,imu_link,0.005510688293725252,0.015867307782173157,0.5226615071296692,0.852374792098999,0.0,0.0,0.0,0.0,0.0,0.0,0.0,0.0,0.0,63.047664642333984,1.2198811769485474,1.489095687866211,0.0,0.0,0.0,0.0,0.0,0.0,0.0,0.0,0.0,0.005386353936046362,0.015106857754290104,0.021608803421258926,0.0,0.0,0.0,0.0,0.0,0.0,0.0,0.0,0.0
1606986843369728724,716754,1606983241400655804,imu_link,0.005510688293725252,0.015867307782173157,0.5226615071296692,0.852374792098999,0.0,0.0,0.0,0.0,0.0,0.0,0.0,0.0,0.0,63.047664642333984,1.2198811769485474,1.489095687866211,0.0,0.0,0.0,0.0,0.0,0.0,0.0,0.0,0.0,0.005386353936046362,0.015106857754290104,0.021608803421258926,0.0,0.0,0.0,0.0,0.0,0.0,0.0,0.0,0.0
1606986843369764663,716755,1606983241400738615,imu_link,0.005507489666342735,0.015868933871388435,0.5226634740829468,0.8523735404014587,0.0,0.0,0.0,0.0,0.0,0.0,0.0,0.0,0.0,63.047935485839844,1.2202281951904297,1.4888836145401,0.0,0.0,0.0,0.0,0.0,0.0,0.0,0.0,0.0,-0.0076089883223176,0.0056500681675970554,0.027257265523076057,0.0,0.0,0.0,0.0,0.0,0.0,0.0,0.0,0.0
1606986843369816773,716756,1606983241400835475,imu_link,0.005507489666342735,0.015868933871388435,0.5226634740829468,0.8523735404014587,0.0,0.0,0.0,0.0,0.0,0.0,0.0,0.0,0.0,63.047935485839844,1.2202281951904297,1.4888836145401,0.0,0.0,0.0,0.0,0.0,0.0,0.0,0.0,0.0,-0.0076089883223176,0.0056500681675970554,0.027257265523076057,0.0,0.0,0.0,0.0,0.0,0.0,0.0,0.0,0.0
1606986843369892707,716757,1606983241400918457,imu_link,0.005507349502295256,0.015868663787841797,0.5226631164550781,0.8523738980293274,0.0,0.0,0.0,0.0,0.0,0.0,0.0,0.0,0.0,63.047874450683594,1.220211148262024,1.488852620124817,0.0,0.0,0.0,0.0,0.0,0.0,0.0,0.0,0.0,-4.408010863699019e-05,-0.005686240736395121,0.020329410210251808,0.0,0.0,0.0,0.0,0.0,0.0,0.0,0.0,0.0
1606986843369927750,716758,1606983241400998893,imu_link,0.005507349502295256,0.015868663787841797,0.5226631164550781,0.8523738980293274,0.0,0.0,0.0,0.0,0.0,0.0,0.0,0.0,0.0,63.047874450683594,1.220211148262024,1.488852620124817,0.0,0.0,0.0,0.0,0.0,0.0,0.0,0.0,0.0,-4.408010863699019e-05,-0.005686240736395121,0.020329410210251808,0.0,0.0,0.0,0.0,0.0,0.0,0.0,0.0,0.0
1606986843377884751,716759,1606983241401079810,imu_link,0.005508337635546923,0.015869684517383575,0.5226638913154602,0.8523733615875244,0.0,0.0,0.0,0.0,0.0,0.0,0.0,0.0,0.0,63.0479850769043,1.220250129699707,1.4890117645263672,0.0,0.0,0.0,0.0,0.0,0.0,0.0,0.0,0.0,0.012552804313600063,-0.014845669269561768,0.024484839290380478,0.0,0.0,0.0,0.0,0.0,0.0,0.0,0.0,0.0
1606986843377907474,716760,1606983241401177140,imu_link,0.005508337635546923,0.015869684517383575,0.5226638913154602,0.8523733615875244,0.0,0.0,0.0,0.0,0.0,0.0,0.0,0.0,0.0,63.0479850769043,1.220250129699707,1.4890117645263672,0.0,0.0,0.0,0.0,0.0,0.0,0.0,0.0,0.0,0.012552804313600063,-0.014845669269561768,0.024484839290380478,0.0,0.0,0.0,0.0,0.0,0.0,0.0,0.0,0.0
1606986843377918059,716761,1606983241413732302,imu_link,0.005506943911314011,0.015869082883000374,0.522663414478302,0.8523736596107483,0.0,0.0,0.0,0.0,0.0,0.0,0.0,0.0,0.0,63.04792404174805,1.2202757596969604,1.488838791847229,0.0,0.0,0.0,0.0,0.0,0.0,0.0,0.0,0.0,0.007867387495934963,-0.011211344040930271,0.03505115956068039,0.0,0.0,0.0,0.0,0.0,0.0,0.0,0.0,0.0
1606986843377933339,716762,1606983241413847739,imu_link,0.005506943911314011,0.015869082883000374,0.522663414478302,0.8523736596107483,0.0,0.0,0.0,0.0,0.0,0.0,0.0,0.0,0.0,63.04792404174805,1.2202757596969604,1.488838791847229,0.0,0.0,0.0,0.0,0.0,0.0,0.0,0.0,0.0,0.007867387495934963,-0.011211344040930271,0.03505115956068039,0.0,0.0,0.0,0.0,0.0,0.0,0.0,0.0,0.0
1606986843381512899,716763,1606983241413931778,imu_link,0.0055089183151721954,0.015874261036515236,0.5226662755012512,0.8523718118667603,0.0,0.0,0.0,0.0,0.0,0.0,0.0,0.0,0.0,63.048316955566406,1.2206581830978394,1.4893462657928467,0.0,0.0,0.0,0.0,0.0,0.0,0.0,0.0,0.0,0.03307513892650604,0.015455429442226887,0.023095492273569107,0.0,0.0,0.0,0.0,0.0,0.0,0.0,0.0,0.0
1606986843381560253,716764,1606983241414020834,imu_link,0.0055089183151721954,0.015874261036515236,0.5226662755012512,0.8523718118667603,0.0,0.0,0.0,0.0,0.0,0.0,0.0,0.0,0.0,63.048316955566406,1.2206581830978394,1.4893462657928467,0.0,0.0,0.0,0.0,0.0,0.0,0.0,0.0,0.0,0.03307513892650604,0.015455429442226887,0.023095492273569107,0.0,0.0,0.0,0.0,0.0,0.0,0.0,0.0,0.0
1606986843381576964,716765,1606983241414101446,imu_link,0.005509159993380308,0.01587500423192978,0.5226649045944214,0.8523726463317871,0.0,0.0,0.0,0.0,0.0,0.0,0.0,0.0,0.0,63.04814147949219,1.2207186222076416,1.489412546157837,0.0,0.0,0.0,0.0,0.0,0.0,0.0,0.0,0.0,0.024823714047670364,0.015473985113203526,0.015121310018002987,0.0,0.0,0.0,0.0,0.0,0.0,0.0,0.0,0.0
1606986843381594648,716766,1606983241414192647,imu_link,0.005509159993380308,0.01587500423192978,0.5226649045944214,0.8523726463317871,0.0,0.0,0.0,0.0,0.0,0.0,0.0,0.0,0.0,63.04814147949219,1.2207186222076416,1.489412546157837,0.0,0.0,0.0,0.0,0.0,0.0,0.0,0.0,0.0,0.024823714047670364,0.015473985113203526,0.015121310018002987,0.0,0.0,0.0,0.0,0.0,0.0,0.0,0.0,0.0
1606986843428193694,716767,1606983241414289566,imu_link,0.005501639097929001,0.015878403559327126,0.5226653218269348,0.852372407913208,0.0,0.0,0.0,0.0,0.0,0.0,0.0,0.0,0.0,63.048194885253906,1.2215006351470947,1.488882064819336,0.0,0.0,0.0,0.0,0.0,0.0,0.0,0.0,0.0,0.0031234959606081247,0.019182654097676277,0.003113889368250966,0.0,0.0,0.0,0.0,0.0,0.0,0.0,0.0,0.0
1606986843428209710,716768,1606983241414375049,imu_link,0.005501639097929001,0.015878403559327126,0.5226653218269348,0.852372407913208,0.0,0.0,0.0,0.0,0.0,0.0,0.0,0.0,0.0,63.048194885253906,1.2215006351470947,1.488882064819336,0.0,0.0,0.0,0.0,0.0,0.0,0.0,0.0,0.0,0.0031234959606081247,0.019182654097676277,0.003113889368250966,0.0,0.0,0.0,0.0,0.0,0.0,0.0,0.0,0.0
1606986843428217532,716769,1606983241414453791,imu_link,0.0055025918409228325,0.01587810181081295,0.5226641893386841,0.852372944355011,0.0,0.0,0.0,0.0,0.0,0.0,0.0,0.0,0.0,63.048057556152344,1.2214157581329346,1.4889558553695679,0.0,0.0,0.0,0.0,0.0,0.0,0.0,0.0,0.0,-0.004898870829492807,0.008182463236153126,0.014806152321398258,0.0,0.0,0.0,0.0,0.0,0.0,0.0,0.0,0.0
1606986843428222456,716770,1606983241414537651,imu_link,0.0055025918409228325,0.01587810181081295,0.5226641893386841,0.852372944355011,0.0,0.0,0.0,0.0,0.0,0.0,0.0,0.0,0.0,63.048057556152344,1.2214157581329346,1.4889558553695679,0.0,0.0,0.0,0.0,0.0,0.0,0.0,0.0,0.0,-0.004898870829492807,0.008182463236153126,0.014806152321398258,0.0,0.0,0.0,0.0,0.0,0.0,0.0,0.0,0.0
1606986843428235751,716771,1606983241414616227,imu_link,0.005501133389770985,0.015877319499850273,0.5226665139198303,0.8523715734481812,0.0,0.0,0.0,0.0,0.0,0.0,0.0,0.0,0.0,63.04835891723633,1.221422791481018,1.4887698888778687,0.0,0.0,0.0,0.0,0.0,0.0,0.0,0.0,0.0,-0.004920777399092913,-0.010530836880207062,0.034260865300893784,0.0,0.0,0.0,0.0,0.0,0.0,0.0,0.0,0.0
1606986843433420630,716772,1606983241427545409,imu_link,0.005501133389770985,0.015877319499850273,0.5226665139198303,0.8523715734481812,0.0,0.0,0.0,0.0,0.0,0.0,0.0,0.0,0.0,63.04835891723633,1.221422791481018,1.4887698888778687,0.0,0.0,0.0,0.0,0.0,0.0,0.0,0.0,0.0,-0.004920777399092913,-0.010530836880207062,0.034260865300893784,0.0,0.0,0.0,0.0,0.0,0.0,0.0,0.0,0.0
1606986843433437106,716773,1606983241427662576,imu_link,0.005497640930116177,0.01587790623307228,0.5226643085479736,0.8523730635643005,0.0,0.0,0.0,0.0,0.0,0.0,0.0,0.0,0.0,63.048057556152344,1.2216933965682983,1.4884603023529053,0.0,0.0,0.0,0.0,0.0,0.0,0.0,0.0,0.0,0.0035099927335977554,-0.011543001979589462,0.041305799037218094,0.0,0.0,0.0,0.0,0.0,0.0,0.0,0.0,0.0
1606986843433447787,716774,1606983241427745878,imu_link,0.005497640930116177,0.01587790623307228,0.5226643085479736,0.8523730635643005,0.0,0.0,0.0,0.0,0.0,0.0,0.0,0.0,0.0,63.048057556152344,1.2216933965682983,1.4884603023529053,0.0,0.0,0.0,0.0,0.0,0.0,0.0,0.0,0.0,0.0035099927335977554,-0.011543001979589462,0.041305799037218094,0.0,0.0,0.0,0.0,0.0,0.0,0.0,0.0,0.0
1606986843433458952,716775,1606983241427835556,imu_link,0.005500609986484051,0.01588115282356739,0.5226666927337646,0.8523713946342468,0.0,0.0,0.0,0.0,0.0,0.0,0.0,0.0,0.0,63.04840087890625,1.2218282222747803,1.4889485836029053,0.0,0.0,0.0,0.0,0.0,0.0,0.0,0.0,0.0,-0.003314842702820897,-0.004100766032934189,0.04301554337143898,0.0,0.0,0.0,0.0,0.0,0.0,0.0,0.0,0.0
1606986843440026074,716776,1606983241427916859,imu_link,0.005500609986484051,0.01588115282356739,0.5226666927337646,0.8523713946342468,0.0,0.0,0.0,0.0,0.0,0.0,0.0,0.0,0.0,63.04840087890625,1.2218282222747803,1.4889485836029053,0.0,0.0,0.0,0.0,0.0,0.0,0.0,0.0,0.0,-0.003314842702820897,-0.004100766032934189,0.04301554337143898,0.0,0.0,0.0,0.0,0.0,0.0,0.0,0.0,0.0
1606986843440047508,716777,1606983241428031745,imu_link,0.005499579012393951,0.015882158651947975,0.5226678252220154,0.8523707985877991,0.0,0.0,0.0,0.0,0.0,0.0,0.0,0.0,0.0,63.04854202270508,1.2219862937927246,1.4889098405838013,0.0,0.0,0.0,0.0,0.0,0.0,0.0,0.0,0.0,0.0014180934522300959,-0.005407802294939756,-0.003938977140933275,0.0,0.0,0.0,0.0,0.0,0.0,0.0,0.0,0.0
1606986843440061114,716778,1606983241428113188,imu_link,0.005499579012393951,0.015882158651947975,0.5226678252220154,0.8523707985877991,0.0,0.0,0.0,0.0,0.0,0.0,0.0,0.0,0.0,63.04854202270508,1.2219862937927246,1.4889098405838013,0.0,0.0,0.0,0.0,0.0,0.0,0.0,0.0,0.0,0.0014180934522300959,-0.005407802294939756,-0.003938977140933275,0.0,0.0,0.0,0.0,0.0,0.0,0.0,0.0,0.0
1606986843440074946,716779,1606983241428249845,imu_link,0.005502796731889248,0.015882380306720734,0.5226713418960571,0.8523685932159424,0.0,0.0,0.0,0.0,0.0,0.0,0.0,0.0,0.0,63.04902267456055,1.2218091487884521,1.489242434501648,0.0,0.0,0.0,0.0,0.0,0.0,0.0,0.0,0.0,0.005169432610273361,-0.010830064304172993,-0.02284134179353714,0.0,0.0,0.0,0.0,0.0,0.0,0.0,0.0,0.0
1606986843440081544,716780,1606983241428333393,imu_link,0.005502796731889248,0.015882380306720734,0.5226713418960571,0.8523685932159424,0.0,0.0,0.0,0.0,0.0,0.0,0.0,0.0,0.0,63.04902267456055,1.2218091487884521,1.489242434501648,0.0,0.0,0.0,0.0,0.0,0.0,0.0,0.0,0.0,0.005169432610273361,-0.010830064304172993,-0.02284134179353714,0.0,0.0,0.0,0.0,0.0,0.0,0.0,0.0,0.0
1606986843445261257,716781,1606983241428416350,imu_link,0.0055025131441652775,0.015880897641181946,0.5226708054542542,0.852368950843811,0.0,0.0,0.0,0.0,0.0,0.0,0.0,0.0,0.0,63.048946380615234,1.2216821908950806,1.4891250133514404,0.0,0.0,0.0,0.0,0.0,0.0,0.0,0.0,0.0,-0.004805209580808878,0.003036122303456068,-0.01388203352689743,0.0,0.0,0.0,0.0,0.0,0.0,0.0,0.0,0.0
1606986843445278945,716782,1606983241428495724,imu_link,0.0055025131441652775,0.015880897641181946,0.5226708054542542,0.852368950843811,0.0,0.0,0.0,0.0,0.0,0.0,0.0,0.0,0.0,63.048946380615234,1.2216821908950806,1.4891250133514404,0.0,0.0,0.0,0.0,0.0,0.0,0.0,0.0,0.0,-0.004805209580808878,0.003036122303456068,-0.01388203352689743,0.0,0.0,0.0,0.0,0.0,0.0,0.0,0.0,0.0
1606986843445289554,716783,1606983241440575731,imu_link,0.00550260953605175,0.015879465267062187,0.5226742029190063,0.8523668050765991,0.0,0.0,0.0,0.0,0.0,0.0,0.0,0.0,0.0,63.04940414428711,1.2215304374694824,1.48905348777771,0.0,0.0,0.0,0.0,0.0,0.0,0.0,0.0,0.0,-0.01173078641295433,0.00286742951720953,0.009440661408007145,0.0,0.0,0.0,0.0,0.0,0.0,0.0,0.0,0.0
1606986843445304582,716784,1606983241440741740,imu_link,0.00550260953605175,0.015879465267062187,0.5226742029190063,0.8523668050765991,0.0,0.0,0.0,0.0,0.0,0.0,0.0,0.0,0.0,63.04940414428711,1.2215304374694824,1.48905348777771,0.0,0.0,0.0,0.0,0.0,0.0,0.0,0.0,0.0,-0.01173078641295433,0.00286742951720953,0.009440661408007145,0.0,0.0,0.0,0.0,0.0,0.0,0.0,0.0,0.0
1606986843478769893,716785,1606983241440840553,imu_link,0.005501174367964268,0.01588108204305172,0.5226745009422302,0.8523666858673096,0.0,0.0,0.0,0.0,0.0,0.0,0.0,0.0,0.0,63.0494384765625,1.2217739820480347,1.4890108108520508,0.0,0.0,0.0,0.0,0.0,0.0,0.0,0.0,0.0,-0.011274786666035652,-0.01885995827615261,0.020527692511677742,0.0,0.0,0.0,0.0,0.0,0.0,0.0,0.0,0.0
1606986843478784887,716786,1606983241440927755,imu_link,0.005501174367964268,0.01588108204305172,0.5226745009422302,0.8523666858673096,0.0,0.0,0.0,0.0,0.0,0.0,0.0,0.0,0.0,63.0494384765625,1.2217739820480347,1.4890108108520508,0.0,0.0,0.0,0.0,0.0,0.0,0.0,0.0,0.0,-0.011274786666035652,-0.01885995827615261,0.020527692511677742,0.0,0.0,0.0,0.0,0.0,0.0,0.0,0.0,0.0
1606986843478817836,716787,1606983241441017152,imu_link,0.005507119465619326,0.015881851315498352,0.5226768255233765,0.8523651957511902,0.0,0.0,0.0,0.0,0.0,0.0,0.0,0.0,0.0,63.04975891113281,1.2214888334274292,1.4896409511566162,0.0,0.0,0.0,0.0,0.0,0.0,0.0,0.0,0.0,-0.004106931854039431,-0.020980950444936752,0.0018301702803000808,0.0,0.0,0.0,0.0,0.0,0.0,0.0,0.0,0.0
1606986843478828217,716788,1606983241441118983,imu_link,0.005507119465619326,0.015881851315498352,0.5226768255233765,0.8523651957511902,0.0,0.0,0.0,0.0,0.0,0.0,0.0,0.0,0.0,63.04975891113281,1.2214888334274292,1.4896409511566162,0.0,0.0,0.0,0.0,0.0,0.0,0.0,0.0,0.0,-0.004106931854039431,-0.020980950444936752,0.0018301702803000808,0.0,0.0,0.0,0.0,0.0,0.0,0.0,0.0,0.0
1606986843478836195,716789,1606983241441201965,imu_link,0.005504058673977852,0.01587977260351181,0.5226771831512451,0.8523650169372559,0.0,0.0,0.0,0.0,0.0,0.0,0.0,0.0,0.0,63.049808502197266,1.221468448638916,1.489217758178711,0.0,0.0,0.0,0.0,0.0,0.0,0.0,0.0,0.0,-0.009681961499154568,-0.008329297415912151,0.015251685865223408,0.0,0.0,0.0,0.0,0.0,0.0,0.0,0.0,0.0
1606986843482469019,716790,1606983241441283759,imu_link,0.005504058673977852,0.01587977260351181,0.5226771831512451,0.8523650169372559,0.0,0.0,0.0,0.0,0.0,0.0,0.0,0.0,0.0,63.049808502197266,1.221468448638916,1.489217758178711,0.0,0.0,0.0,0.0,0.0,0.0,0.0,0.0,0.0,-0.009681961499154568,-0.008329297415912151,0.015251685865223408,0.0,0.0,0.0,0.0,0.0,0.0,0.0,0.0,0.0
1606986843482499794,716791,1606983241441365258,imu_link,0.005505979526787996,0.015881676226854324,0.5226794481277466,0.8523635864257812,0.0,0.0,0.0,0.0,0.0,0.0,0.0,0.0,0.0,63.050113677978516,1.2215354442596436,1.489522933959961,0.0,0.0,0.0,0.0,0.0,0.0,0.0,0.0,0.0,-0.019289741292595863,-0.007876702584326267,0.016160989180207253,0.0,0.0,0.0,0.0,0.0,0.0,0.0,0.0,0.0
1606986843482512459,716792,1606983241441448841,imu_link,0.005505979526787996,0.015881676226854324,0.5226794481277466,0.8523635864257812,0.0,0.0,0.0,0.0,0.0,0.0,0.0,0.0,0.0,63.050113677978516,1.2215354442596436,1.489522933959961,0.0,0.0,0.0,0.0,0.0,0.0,0.0,0.0,0.0,-0.019289741292595863,-0.007876702584326267,0.016160989180207253,0.0,0.0,0.0,0.0,0.0,0.0,0.0,0.0,0.0
1606986843482521238,716793,1606983241453890595,imu_link,0.00550495833158493,0.015881787985563278,0.5226811766624451,0.8523625135421753,0.0,0.0,0.0,0.0,0.0,0.0,0.0,0.0,0.0,63.05034637451172,1.2216044664382935,1.4894322156906128,0.0,0.0,0.0,0.0,0.0,0.0,0.0,0.0,0.0,-0.028277965262532234,-0.011021612212061882,0.007720706984400749,0.0,0.0,0.0,0.0,0.0,0.0,0.0,0.0,0.0
1606986843492133610,716794,1606983241454011069,imu_link,0.00550495833158493,0.015881787985563278,0.5226811766624451,0.8523625135421753,0.0,0.0,0.0,0.0,0.0,0.0,0.0,0.0,0.0,63.05034637451172,1.2216044664382935,1.4894322156906128,0.0,0.0,0.0,0.0,0.0,0.0,0.0,0.0,0.0,-0.028277965262532234,-0.011021612212061882,0.007720706984400749,0.0,0.0,0.0,0.0,0.0,0.0,0.0,0.0,0.0
1606986843492155825,716795,1606983241454095244,imu_link,0.005508924834430218,0.015876777470111847,0.522678792476654,0.8523640632629395,0.0,0.0,0.0,0.0,0.0,0.0,0.0,0.0,0.0,63.050010681152344,1.220881700515747,1.489515781402588,0.0,0.0,0.0,0.0,0.0,0.0,0.0,0.0,0.0,-0.0255887508392334,-0.00287920911796391,0.0199953131377697,0.0,0.0,0.0,0.0,0.0,0.0,0.0,0.0,0.0
1606986843492163044,716796,1606983241454187116,imu_link,0.005508924834430218,0.015876777470111847,0.522678792476654,0.8523640632629395,0.0,0.0,0.0,0.0,0.0,0.0,0.0,0.0,0.0,63.050010681152344,1.220881700515747,1.489515781402588,0.0,0.0,0.0,0.0,0.0,0.0,0.0,0.0,0.0,-0.0255887508392334,-0.00287920911796391,0.0199953131377697,0.0,0.0,0.0,0.0,0.0,0.0,0.0,0.0,0.0
1606986843492170004,716797,1606983241454266751,imu_link,0.005511706229299307,0.01587769202888012,0.5226789116859436,0.8523639440536499,0.0,0.0,0.0,0.0,0.0,0.0,0.0,0.0,0.0,63.05003356933594,1.2208040952682495,1.4898425340652466,0.0,0.0,0.0,0.0,0.0,0.0,0.0,0.0,0.0,-0.012995242141187191,0.008201773278415203,0.01802235282957554,0.0,0.0,0.0,0.0,0.0,0.0,0.0,0.0,0.0
1606986843492212402,716798,1606983241454349592,imu_link,0.005511706229299307,0.01587769202888012,0.5226789116859436,0.8523639440536499,0.0,0.0,0.0,0.0,0.0,0.0,0.0,0.0,0.0,63.05003356933594,1.2208040952682495,1.4898425340652466,0.0,0.0,0.0,0.0,0.0,0.0,0.0,0.0,0.0,-0.012995242141187191,0.008201773278415203,0.01802235282957554,0.0,0.0,0.0,0.0,0.0,0.0,0.0,0.0,0.0
1606986843498208827,716799,1606983241454445419,imu_link,0.005510951392352581,0.01587696187198162,0.5226758122444153,0.8523658514022827,0.0,0.0,0.0,0.0,0.0,0.0,0.0,0.0,0.0,63.049617767333984,1.2207833528518677,1.4897205829620361,0.0,0.0,0.0,0.0,0.0,0.0,0.0,0.0,0.0,0.003646641271188855,0.009591483511030674,0.011748328804969788,0.0,0.0,0.0,0.0,0.0,0.0,0.0,0.0,0.0
