%time,field.header.seq,field.header.stamp,field.header.frame_id,field.orientation.x,field.orientation.y,field.orientation.z,field.orientation.w,field.orientation_covariance0,field.orientation_covariance1,field.orientation_covariance2,field.orientation_covariance3,field.orientation_covariance4,field.orientation_covariance5,field.orientation_covariance6,field.orientation_covariance7,field.orientation_covariance8,field.angular_velocity.x,field.angular_velocity.y,field.angular_velocity.z,field.angular_velocity_covariance0,field.angular_velocity_covariance1,field.angular_velocity_covariance2,field.angular_velocity_covariance3,field.angular_velocity_covariance4,field.angular_velocity_covariance5,field.angular_velocity_covariance6,field.angular_velocity_covariance7,field.angular_velocity_covariance8,field.linear_acceleration.x,field.linear_acceleration.y,field.linear_acceleration.z,field.linear_acceleration_covariance0,field.linear_acceleration_covariance1,field.linear_acceleration_covariance2,field.linear_acceleration_covariance3,field.linear_acceleration_covariance4,field.linear_acceleration_covariance5,field.linear_acceleration_covariance6,field.linear_acceleration_covariance7,field.linear_acceleration_covariance8
1606987178756984850,986161,1606983578161314750,imu_link,0.001600995659828186,0.005666652694344521,-0.8698773980140686,0.4932328164577484,0.0,0.0,0.0,0.0,0.0,0.0,0.0,0.0,0.0,-120.89427185058594,0.4798748195171356,-0.47438862919807434,0.0,0.0,0.0,0.0,0.0,0.0,0.0,0.0,0.0,-0.015232359059154987,-0.009581664577126503,-0.02403898350894451,0.0,0.0,0.0,0.0,0.0,0.0,0.0,0.0,0.0
1606987178757018040,986162,1606983578161380971,imu_link,0.001600995659828186,0.005666652694344521,-0.8698773980140686,0.4932328164577484,0.0,0.0,0.0,0.0,0.0,0.0,0.0,0.0,0.0,-120.89427185058594,0.4798748195171356,-0.47438862919807434,0.0,0.0,0.0,0.0,0.0,0.0,0.0,0.0,0.0,-0.015232359059154987,-0.009581664577126503,-0.02403898350894451,0.0,0.0,0.0,0.0,0.0,0.0,0.0,0.0,0.0
1606987178757026908,986163,1606983578161442217,imu_link,0.0015992685221135616,0.005663329269737005,-0.8698756098747253,0.4932360053062439,0.0,0.0,0.0,0.0,0.0,0.0,0.0,0.0,0.0,-120.89385986328125,0.47951656579971313,-0.47415316104888916,0.0,0.0,0.0,0.0,0.0,0.0,0.0,0.0,0.0,-0.009417898952960968,-0.02681315690279007,-0.023998310789465904,0.0,0.0,0.0,0.0,0.0,0.0,0.0,0.0,0.0
1606987178757039867,986164,1606983578161501859,imu_link,0.0015992685221135616,0.005663329269737005,-0.8698756098747253,0.4932360053062439,0.0,0.0,0.0,0.0,0.0,0.0,0.0,0.0,0.0,-120.89385986328125,0.47951656579971313,-0.47415316104888916,0.0,0.0,0.0,0.0,0.0,0.0,0.0,0.0,0.0,-0.009417898952960968,-0.02681315690279007,-0.023998310789465904,0.0,0.0,0.0,0.0,0.0,0.0,0.0,0.0,0.0
1606987178757051172,986165,1606983578161563157,imu_link,0.0015979676973074675,0.0056619890965521336,-0.8698763251304626,0.4932348430156708,0.0,0.0,0.0,0.0,0.0,0.0,0.0,0.0,0.0,-120.89401245117188,0.4793105125427246,-0.4740937650203705,0.0,0.0,0.0,0.0,0.0,0.0,0.0,0.0,0.0,-0.007259056903421879,-0.019855713471770287,0.0138779291883111,0.0,0.0,0.0,0.0,0.0,0.0,0.0,0.0,0.0
1606987178760546109,986166,1606983578174613443,imu_link,0.0015979676973074675,0.0056619890965521336,-0.8698763251304626,0.4932348430156708,0.0,0.0,0.0,0.0,0.0,0.0,0.0,0.0,0.0,-120.89401245117188,0.4793105125427246,-0.4740937650203705,0.0,0.0,0.0,0.0,0.0,0.0,0.0,0.0,0.0,-0.007259056903421879,-0.019855713471770287,0.0138779291883111,0.0,0.0,0.0,0.0,0.0,0.0,0.0,0.0,0.0
1606987178761749477,986167,1606983578174737744,imu_link,0.0016015144065022469,0.005659076385200024,-0.8698750734329224,0.49323707818984985,0.0,0.0,0.0,0.0,0.0,0.0,0.0,0.0,0.0,-120.89371490478516,0.4795006513595581,-0.47360172867774963,0.0,0.0,0.0,0.0,0.0,0.0,0.0,0.0,0.0,-0.02011057361960411,-0.008695835247635841,0.017046349123120308,0.0,0.0,0.0,0.0,0.0,0.0,0.0,0.0,0.0
1606987178761763349,986168,1606983578174825302,imu_link,0.0016015144065022469,0.005659076385200024,-0.8698750734329224,0.49323707818984985,0.0,0.0,0.0,0.0,0.0,0.0,0.0,0.0,0.0,-120.89371490478516,0.4795006513595581,-0.47360172867774963,0.0,0.0,0.0,0.0,0.0,0.0,0.0,0.0,0.0,-0.02011057361960411,-0.008695835247635841,0.017046349123120308,0.0,0.0,0.0,0.0,0.0,0.0,0.0,0.0,0.0
1606987178761768660,986169,1606983578174901301,imu_link,0.001601245952770114,0.0056587872095406055,-0.869875967502594,0.4932354688644409,0.0,0.0,0.0,0.0,0.0,0.0,0.0,0.0,0.0,-120.8939208984375,0.47945669293403625,-0.4735889732837677,0.0,0.0,0.0,0.0,0.0,0.0,0.0,0.0,0.0,-0.010274992324411869,0.0014050749596208334,0.0036337694618850946,0.0,0.0,0.0,0.0,0.0,0.0,0.0,0.0,0.0
1606987178761775753,986170,1606983578175032947,imu_link,0.001601245952770114,0.0056587872095406055,-0.869875967502594,0.4932354688644409,0.0,0.0,0.0,0.0,0.0,0.0,0.0,0.0,0.0,-120.8939208984375,0.47945669293403625,-0.4735889732837677,0.0,0.0,0.0,0.0,0.0,0.0,0.0,0.0,0.0,-0.010274992324411869,0.0014050749596208334,0.0036337694618850946,0.0,0.0,0.0,0.0,0.0,0.0,0.0,0.0,0.0
1606987178764759597,986171,1606983578175117423,imu_link,0.0015990399988368154,0.005658559035509825,-0.8698732256889343,0.4932403862476349,0.0,0.0,0.0,0.0,0.0,0.0,0.0,0.0,0.0,-120.89327239990234,0.4792265295982361,-0.47368815541267395,0.0,0.0,0.0,0.0,0.0,0.0,0.0,0.0,0.0,0.01669047586619854,0.008382140658795834,0.035803452134132385,0.0,0.0,0.0,0.0,0.0,0.0,0.0,0.0,0.0
1606987178764774822,986172,1606983578175212759,imu_link,0.0015990399988368154,0.005658559035509825,-0.8698732256889343,0.4932403862476349,0.0,0.0,0.0,0.0,0.0,0.0,0.0,0.0,0.0,-120.89327239990234,0.4792265295982361,-0.47368815541267395,0.0,0.0,0.0,0.0,0.0,0.0,0.0,0.0,0.0,0.01669047586619854,0.008382140658795834,0.035803452134132385,0.0,0.0,0.0,0.0,0.0,0.0,0.0,0.0,0.0
1606987178764781685,986173,1606983578175291911,imu_link,0.0016002178890630603,0.005659204442054033,-0.8698716759681702,0.49324309825897217,0.0,0.0,0.0,0.0,0.0,0.0,0.0,0.0,0.0,-120.8929214477539,0.4793819189071655,-0.4736844301223755,0.0,0.0,0.0,0.0,0.0,0.0,0.0,0.0,0.0,0.026121143251657486,0.005901264026761055,0.03239123523235321,0.0,0.0,0.0,0.0,0.0,0.0,0.0,0.0,0.0
1606987178764794536,986174,1606983578175359952,imu_link,0.0016002178890630603,0.005659204442054033,-0.8698716759681702,0.49324309825897217,0.0,0.0,0.0,0.0,0.0,0.0,0.0,0.0,0.0,-120.8929214477539,0.4793819189071655,-0.4736844301223755,0.0,0.0,0.0,0.0,0.0,0.0,0.0,0.0,0.0,0.026121143251657486,0.005901264026761055,0.03239123523235321,0.0,0.0,0.0,0.0,0.0,0.0,0.0,0.0,0.0
1606987178764799317,986175,1606983578175435559,imu_link,0.0016035583103075624,0.005664421711117029,-0.869870126247406,0.4932457506656647,0.0,0.0,0.0,0.0,0.0,0.0,0.0,0.0,0.0,-120.892578125,0.4800111949443817,-0.47401419281959534,0.0,0.0,0.0,0.0,0.0,0.0,0.0,0.0,0.0,0.01472212839871645,0.007800363935530186,0.012996615841984749,0.0,0.0,0.0,0.0,0.0,0.0,0.0,0.0,0.0
1606987178764805980,986176,1606983578175503343,imu_link,0.0016035583103075624,0.005664421711117029,-0.869870126247406,0.4932457506656647,0.0,0.0,0.0,0.0,0.0,0.0,0.0,0.0,0.0,-120.892578125,0.4800111949443817,-0.47401419281959534,0.0,0.0,0.0,0.0,0.0,0.0,0.0,0.0,0.0,0.01472212839871645,0.007800363935530186,0.012996615841984749,0.0,0.0,0.0,0.0,0.0,0.0,0.0,0.0,0.0
1606987178776974848,986177,1606983578188050507,imu_link,0.0016039622714743018,0.005664109718054533,-0.8698692321777344,0.4932474195957184,0.0,0.0,0.0,0.0,0.0,0.0,0.0,0.0,0.0,-120.89236450195312,0.48003479838371277,-0.47395938634872437,0.0,0.0,0.0,0.0,0.0,0.0,0.0,0.0,0.0,-0.0012966836802661419,-0.003955907188355923,0.014498094096779823,0.0,0.0,0.0,0.0,0.0,0.0,0.0,0.0,0.0
1606987178779098857,986178,1606983578188193533,imu_link,0.0016039622714743018,0.005664109718054533,-0.8698692321777344,0.4932474195957184,0.0,0.0,0.0,0.0,0.0,0.0,0.0,0.0,0.0,-120.89236450195312,0.48003479838371277,-0.47395938634872437,0.0,0.0,0.0,0.0,0.0,0.0,0.0,0.0,0.0,-0.0012966836802661419,-0.003955907188355923,0.014498094096779823,0.0,0.0,0.0,0.0,0.0,0.0,0.0,0.0,0.0
1606987178779122039,986179,1606983578188341942,imu_link,0.0016042048810049891,0.005663244519382715,-0.8698726296424866,0.49324122071266174,0.0,0.0,0.0,0.0,0.0,0.0,0.0,0.0,0.0,-120.8931655883789,0.480006605386734,-0.4738629162311554,0.0,0.0,0.0,0.0,0.0,0.0,0.0,0.0,0.0,0.011577815748751163,-0.005588815547525883,0.008863339200615883,0.0,0.0,0.0,0.0,0.0,0.0,0.0,0.0,0.0
1606987178779144721,986180,1606983578188430617,imu_link,0.0016042048810049891,0.005663244519382715,-0.8698726296424866,0.49324122071266174,0.0,0.0,0.0,0.0,0.0,0.0,0.0,0.0,0.0,-120.8931655883789,0.480006605386734,-0.4738629162311554,0.0,0.0,0.0,0.0,0.0,0.0,0.0,0.0,0.0,0.011577815748751163,-0.005588815547525883,0.008863339200615883,0.0,0.0,0.0,0.0,0.0,0.0,0.0,0.0,0.0
1606987178779153102,986181,1606983578188535259,imu_link,0.001604340854100883,0.00566279049962759,-0.8698734045028687,0.49323999881744385,0.0,0.0,0.0,0.0,0.0,0.0,0.0,0.0,0.0,-120.8933334350586,0.47999390959739685,-0.4738105833530426,0.0,0.0,0.0,0.0,0.0,0.0,0.0,0.0,0.0,0.010353820398449898,0.010386616922914982,0.018467288464307785,0.0,0.0,0.0,0.0,0.0,0.0,0.0,0.0,0.0
1606987178779172755,986182,1606983578188619795,imu_link,0.001604340854100883,0.00566279049962759,-0.8698734045028687,0.49323999881744385,0.0,0.0,0.0,0.0,0.0,0.0,0.0,0.0,0.0,-120.8933334350586,0.47999390959739685,-0.4738105833530426,0.0,0.0,0.0,0.0,0.0,0.0,0.0,0.0,0.0,0.010353820398449898,0.010386616922914982,0.018467288464307785,0.0,0.0,0.0,0.0,0.0,0.0,0.0,0.0,0.0
1606987178779194024,986183,1606983578188717811,imu_link,0.0016029949765652418,0.005664980970323086,-0.8698760271072388,0.4932352304458618,0.0,0.0,0.0,0.0,0.0,0.0,0.0,0.0,0.0,-120.89395904541016,0.4799808859825134,-0.47410762310028076,0.0,0.0,0.0,0.0,0.0,0.0,0.0,0.0,0.0,0.004153608810156584,0.016645953059196472,0.03920627385377884,0.0,0.0,0.0,0.0,0.0,0.0,0.0,0.0,0.0
1606987178779204412,986184,1606983578188812676,imu_link,0.0016029949765652418,0.005664980970323086,-0.8698760271072388,0.4932352304458618,0.0,0.0,0.0,0.0,0.0,0.0,0.0,0.0,0.0,-120.89395904541016,0.4799808859825134,-0.47410762310028076,0.0,0.0,0.0,0.0,0.0,0.0,0.0,0.0,0.0,0.004153608810156584,0.016645953059196472,0.03920627385377884,0.0,0.0,0.0,0.0,0.0,0.0,0.0,0.0,0.0
1606987178779209212,986185,1606983578188891864,imu_link,0.0016040117479860783,0.0056661502458155155,-0.8698744177818298,0.4932381510734558,0.0,0.0,0.0,0.0,0.0,0.0,0.0,0.0,0.0,-120.8935775756836,0.4801499545574188,-0.4741651117801666,0.0,0.0,0.0,0.0,0.0,0.0,0.0,0.0,0.0,0.00782253872603178,0.01469732541590929,0.023208579048514366,0.0,0.0,0.0,0.0,0.0,0.0,0.0,0.0,0.0
1606987178779237033,986186,1606983578188973203,imu_link,0.0016040117479860783,0.0056661502458155155,-0.8698744177818298,0.4932381510734558,0.0,0.0,0.0,0.0,0.0,0.0,0.0,0.0,0.0,-120.8935775756836,0.4801499545574188,-0.4741651117801666,0.0,0.0,0.0,0.0,0.0,0.0,0.0,0.0,0.0,0.00782253872603178,0.01469732541590929,0.023208579048514366,0.0,0.0,0.0,0.0,0.0,0.0,0.0,0.0,0.0
1606987178779304980,986187,1606983578189049143,imu_link,0.0016040976624935865,0.005671972408890724,-0.8698732852935791,0.49324002861976624,0.0,0.0,0.0,0.0,0.0,0.0,0.0,0.0,0.0,-120.8933334350586,0.48048868775367737,-0.4747396409511566,0.0,0.0,0.0,0.0,0.0,0.0,0.0,0.0,0.0,0.0072817085310816765,0.011748027987778187,-0.01258356124162674,0.0,0.0,0.0,0.0,0.0,0.0,0.0,0.0,0.0
1606987178787685881,986188,1606983578201830959,imu_link,0.0016040976624935865,0.005671972408890724,-0.8698732852935791,0.49324002861976624,0.0,0.0,0.0,0.0,0.0,0.0,0.0,0.0,0.0,-120.8933334350586,0.48048868775367737,-0.4747396409511566,0.0,0.0,0.0,0.0,0.0,0.0,0.0,0.0,0.0,0.0072817085310816765,0.011748027987778187,-0.01258356124162674,0.0,0.0,0.0,0.0,0.0,0.0,0.0,0.0,0.0
1606987178788956750,986189,1606983578201974592,imu_link,0.0016023238422349095,0.005672688130289316,-0.869873046875,0.49324044585227966,0.0,0.0,0.0,0.0,0.0,0.0,0.0,0.0,0.0,-120.89327239990234,0.4803524911403656,-0.47491103410720825,0.0,0.0,0.0,0.0,0.0,0.0,0.0,0.0,0.0,0.00018788475426845253,0.010174456983804703,0.006631432566791773,0.0,0.0,0.0,0.0,0.0,0.0,0.0,0.0,0.0
1606987178788966251,986190,1606983578202136597,imu_link,0.0016023238422349095,0.005672688130289316,-0.869873046875,0.49324044585227966,0.0,0.0,0.0,0.0,0.0,0.0,0.0,0.0,0.0,-120.89327239990234,0.4803524911403656,-0.47491103410720825,0.0,0.0,0.0,0.0,0.0,0.0,0.0,0.0,0.0,0.00018788475426845253,0.010174456983804703,0.006631432566791773,0.0,0.0,0.0,0.0,0.0,0.0,0.0,0.0,0.0
1606987178788975242,986191,1606983578202241925,imu_link,0.0016020280309021473,0.005673870909959078,-0.8698716163635254,0.4932430386543274,0.0,0.0,0.0,0.0,0.0,0.0,0.0,0.0,0.0,-120.89293670654297,0.4803912341594696,-0.47504422068595886,0.0,0.0,0.0,0.0,0.0,0.0,0.0,0.0,0.0,-0.019792359322309494,0.014548204839229584,0.03094933182001114,0.0,0.0,0.0,0.0,0.0,0.0,0.0,0.0,0.0
1606987178788986416,986192,1606983578202320648,imu_link,0.0016020280309021473,0.005673870909959078,-0.8698716163635254,0.4932430386543274,0.0,0.0,0.0,0.0,0.0,0.0,0.0,0.0,0.0,-120.89293670654297,0.4803912341594696,-0.47504422068595886,0.0,0.0,0.0,0.0,0.0,0.0,0.0,0.0,0.0,-0.019792359322309494,0.014548204839229584,0.03094933182001114,0.0,0.0,0.0,0.0,0.0,0.0,0.0,0.0,0.0
1606987178788997679,986193,1606983578202419597,imu_link,0.0016025528311729431,0.005672527942806482,-0.8698712587356567,0.49324363470077515,0.0,0.0,0.0,0.0,0.0,0.0,0.0,0.0,0.0,-120.89285278320312,0.4803679883480072,-0.4748803377151489,0.0,0.0,0.0,0.0,0.0,0.0,0.0,0.0,0.0,-0.010782334953546524,0.003386209486052394,0.005779323633760214,0.0,0.0,0.0,0.0,0.0,0.0,0.0,0.0,0.0
1606987178789004272,986194,1606983578202500694,imu_link,0.0016025528311729431,0.005672527942806482,-0.8698712587356567,0.49324363470077515,0.0,0.0,0.0,0.0,0.0,0.0,0.0,0.0,0.0,-120.89285278320312,0.4803679883480072,-0.4748803377151489,0.0,0.0,0.0,0.0,0.0,0.0,0.0,0.0,0.0,-0.010782334953546524,0.003386209486052394,0.005779323633760214,0.0,0.0,0.0,0.0,0.0,0.0,0.0,0.0,0.0
1606987178789030220,986195,1606983578202577302,imu_link,0.0016012379201129079,0.0056724874302744865,-0.8698760867118835,0.4932350516319275,0.0,0.0,0.0,0.0,0.0,0.0,0.0,0.0,0.0,-120.89398956298828,0.4802299737930298,-0.47495537996292114,0.0,0.0,0.0,0.0,0.0,0.0,0.0,0.0,0.0,0.023959916085004807,-0.01682601124048233,0.00918864831328392,0.0,0.0,0.0,0.0,0.0,0.0,0.0,0.0,0.0
1606987178789041254,986196,1606983578202653272,imu_link,0.0016012379201129079,0.0056724874302744865,-0.8698760867118835,0.4932350516319275,0.0,0.0,0.0,0.0,0.0,0.0,0.0,0.0,0.0,-120.89398956298828,0.4802299737930298,-0.47495537996292114,0.0,0.0,0.0,0.0,0.0,0.0,0.0,0.0,0.0,0.023959916085004807,-0.01682601124048233,0.00918864831328392,0.0,0.0,0.0,0.0,0.0,0.0,0.0,0.0,0.0
1606987178789069893,986197,1606983578202737753,imu_link,0.001602889969944954,0.005672196391969919,-0.8698756694793701,0.4932357668876648,0.0,0.0,0.0,0.0,0.0,0.0,0.0,0.0,0.0,-120.89389038085938,0.48037853837013245,-0.47483253479003906,0.0,0.0,0.0,0.0,0.0,0.0,0.0,0.0,0.0,0.023225776851177216,-0.01286395825445652,0.026548707857728004,0.0,0.0,0.0,0.0,0.0,0.0,0.0,0.0,0.0
1606987178819746329,986198,1606983578202822719,imu_link,0.001602889969944954,0.005672196391969919,-0.8698756694793701,0.4932357668876648,0.0,0.0,0.0,0.0,0.0,0.0,0.0,0.0,0.0,-120.89389038085938,0.48037853837013245,-0.47483253479003906,0.0,0.0,0.0,0.0,0.0,0.0,0.0,0.0,0.0,0.023225776851177216,-0.01286395825445652,0.026548707857728004,0.0,0.0,0.0,0.0,0.0,0.0,0.0,0.0,0.0
1606987178819776135,986199,1606983578214770771,imu_link,0.0016125724650919437,0.005674040410667658,-0.8698816299438477,0.4932251572608948,0.0,0.0,0.0,0.0,0.0,0.0,0.0,0.0,0.0,-120.8952865600586,0.4814421832561493,-0.47447511553764343,0.0,0.0,0.0,0.0,0.0,0.0,0.0,0.0,0.0,-0.0009081149473786354,-0.0010011177510023117,0.008423728868365288,0.0,0.0,0.0,0.0,0.0,0.0,0.0,0.0,0.0
1606987178819808755,986200,1606983578214910599,imu_link,0.0016125724650919437,0.005674040410667658,-0.8698816299438477,0.4932251572608948,0.0,0.0,0.0,0.0,0.0,0.0,0.0,0.0,0.0,-120.8952865600586,0.4814421832561493,-0.47447511553764343,0.0,0.0,0.0,0.0,0.0,0.0,0.0,0.0,0.0,-0.0009081149473786354,-0.0010011177510023117,0.008423728868365288,0.0,0.0,0.0,0.0,0.0,0.0,0.0,0.0,0.0
1606987178819822762,986201,1606983578215123031,imu_link,0.0016129632713273168,0.005673698149621487,-0.8698814511299133,0.49322566390037537,0.0,0.0,0.0,0.0,0.0,0.0,0.0,0.0,0.0,-120.89521789550781,0.48146215081214905,-0.4744185507297516,0.0,0.0,0.0,0.0,0.0,0.0,0.0,0.0,0.0,-0.00570194935426116,0.007590407971292734,0.008531838655471802,0.0,0.0,0.0,0.0,0.0,0.0,0.0,0.0,0.0
1606987178819832671,986202,1606983578215256259,imu_link,0.0016129632713273168,0.005673698149621487,-0.8698814511299133,0.49322566390037537,0.0,0.0,0.0,0.0,0.0,0.0,0.0,0.0,0.0,-120.89521789550781,0.48146215081214905,-0.4744185507297516,0.0,0.0,0.0,0.0,0.0,0.0,0.0,0.0,0.0,-0.00570194935426116,0.007590407971292734,0.008531838655471802,0.0,0.0,0.0,0.0,0.0,0.0,0.0,0.0,0.0
1606987178819838935,986203,1606983578215348748,imu_link,0.0016108264680951834,0.005673893261700869,-0.8698793053627014,0.493229478597641,0.0,0.0,0.0,0.0,0.0,0.0,0.0,0.0,0.0,-120.89472198486328,0.4812622666358948,-0.47455665469169617,0.0,0.0,0.0,0.0,0.0,0.0,0.0,0.0,0.0,0.0012347864685580134,0.009070704691112041,0.024135030806064606,0.0,0.0,0.0,0.0,0.0,0.0,0.0,0.0,0.0
1606987178819860840,986204,1606983578215449727,imu_link,0.0016108264680951834,0.005673893261700869,-0.8698793053627014,0.493229478597641,0.0,0.0,0.0,0.0,0.0,0.0,0.0,0.0,0.0,-120.89472198486328,0.4812622666358948,-0.47455665469169617,0.0,0.0,0.0,0.0,0.0,0.0,0.0,0.0,0.0,0.0012347864685580134,0.009070704691112041,0.024135030806064606,0.0,0.0,0.0,0.0,0.0,0.0,0.0,0.0,0.0
1606987178819871396,986205,1606983578215543013,imu_link,0.001610971405170858,0.005673770327121019,-0.8698789477348328,0.49323010444641113,0.0,0.0,0.0,0.0,0.0,0.0,0.0,0.0,0.0,-120.89464569091797,0.48127004504203796,-0.47453585267066956,0.0,0.0,0.0,0.0,0.0,0.0,0.0,0.0,0.0,0.004937608726322651,0.00764826126396656,0.030209649354219437,0.0,0.0,0.0,0.0,0.0,0.0,0.0,0.0,0.0
1606987178819876475,986206,1606983578215629393,imu_link,0.001610971405170858,0.005673770327121019,-0.8698789477348328,0.49323010444641113,0.0,0.0,0.0,0.0,0.0,0.0,0.0,0.0,0.0,-120.89464569091797,0.48127004504203796,-0.47453585267066956,0.0,0.0,0.0,0.0,0.0,0.0,0.0,0.0,0.0,0.004937608726322651,0.00764826126396656,0.030209649354219437,0.0,0.0,0.0,0.0,0.0,0.0,0.0,0.0,0.0
1606987178819879659,986207,1606983578215712916,imu_link,0.0016096738399937749,0.005675928201526403,-0.8698780536651611,0.49323156476020813,0.0,0.0,0.0,0.0,0.0,0.0,0.0,0.0,0.0,-120.89444732666016,0.48126348853111267,-0.4748235046863556,0.0,0.0,0.0,0.0,0.0,0.0,0.0,0.0,0.0,0.003690469777211547,0.0062864250503480434,0.03564618155360222,0.0,0.0,0.0,0.0,0.0,0.0,0.0,0.0,0.0
1606987178819885053,986208,1606983578215797482,imu_link,0.0016096738399937749,0.005675928201526403,-0.8698780536651611,0.49323156476020813,0.0,0.0,0.0,0.0,0.0,0.0,0.0,0.0,0.0,-120.89444732666016,0.48126348853111267,-0.4748235046863556,0.0,0.0,0.0,0.0,0.0,0.0,0.0,0.0,0.0,0.003690469777211547,0.0062864250503480434,0.03564618155360222,0.0,0.0,0.0,0.0,0.0,0.0,0.0,0.0,0.0
1606987178819891534,986209,1606983578228258019,imu_link,0.0016102782683447003,0.005675402004271746,-0.8698790073394775,0.4932299554347992,0.0,0.0,0.0,0.0,0.0,0.0,0.0,0.0,0.0,-120.8946533203125,0.48129308223724365,-0.4747377038002014,0.0,0.0,0.0,0.0,0.0,0.0,0.0,0.0,0.0,-0.0003575590380933136,0.008161692880094051,0.0343487411737442,0.0,0.0,0.0,0.0,0.0,0.0,0.0,0.0,0.0
1606987178819900024,986210,1606983578228447954,imu_link,0.0016102782683447003,0.005675402004271746,-0.8698790073394775,0.4932299554347992,0.0,0.0,0.0,0.0,0.0,0.0,0.0,0.0,0.0,-120.8946533203125,0.48129308223724365,-0.4747377038002014,0.0,0.0,0.0,0.0,0.0,0.0,0.0,0.0,0.0,-0.0003575590380933136,0.008161692880094051,0.0343487411737442,0.0,0.0,0.0,0.0,0.0,0.0,0.0,0.0,0.0
1606987178819912527,986211,1606983578228540849,imu_link,0.0016075611347332597,0.005675887688994408,-0.8698791861534119,0.4932296574115753,0.0,0.0,0.0,0.0,0.0,0.0,0.0,0.0,0.0,-120.89469909667969,0.4810495674610138,-0.4749399423599243,0.0,0.0,0.0,0.0,0.0,0.0,0.0,0.0,0.0,-0.002763442462310195,0.0024421592243015766,0.017215877771377563,0.0,0.0,0.0,0.0,0.0,0.0,0.0,0.0,0.0
1606987178820492451,986212,1606983578228622142,imu_link,0.0016075611347332597,0.005675887688994408,-0.8698791861534119,0.4932296574115753,0.0,0.0,0.0,0.0,0.0,0.0,0.0,0.0,0.0,-120.89469909667969,0.4810495674610138,-0.4749399423599243,0.0,0.0,0.0,0.0,0.0,0.0,0.0,0.0,0.0,-0.002763442462310195,0.0024421592243015766,0.017215877771377563,0.0,0.0,0.0,0.0,0.0,0.0,0.0,0.0,0.0
1606987178820511593,986213,1606983578228719417,imu_link,0.0016070526326075196,0.005674341227859259,-0.8698790073394775,0.4932299852371216,0.0,0.0,0.0,0.0,0.0,0.0,0.0,0.0,0.0,-120.8946533203125,0.48091161251068115,-0.474814236164093,0.0,0.0,0.0,0.0,0.0,0.0,0.0,0.0,0.0,-0.02098192647099495,-0.0035728635266423225,0.005836216267198324,0.0,0.0,0.0,0.0,0.0,0.0,0.0,0.0,0.0
1606987178820532477,986214,1606983578228796841,imu_link,0.0016070526326075196,0.005674341227859259,-0.8698790073394775,0.4932299852371216,0.0,0.0,0.0,0.0,0.0,0.0,0.0,0.0,0.0,-120.8946533203125,0.48091161251068115,-0.474814236164093,0.0,0.0,0.0,0.0,0.0,0.0,0.0,0.0,0.0,-0.02098192647099495,-0.0035728635266423225,0.005836216267198324,0.0,0.0,0.0,0.0,0.0,0.0,0.0,0.0,0.0
1606987178820542322,986215,1606983578228938299,imu_link,0.001601496827788651,0.005672030616551638,-0.8698787093162537,0.4932304918766022,0.0,0.0,0.0,0.0,0.0,0.0,0.0,0.0,0.0,-120.89458465576172,0.4802274703979492,-0.47489774227142334,0.0,0.0,0.0,0.0,0.0,0.0,0.0,0.0,0.0,-0.014412722550332546,0.0027090006042271852,0.029474280774593353,0.0,0.0,0.0,0.0,0.0,0.0,0.0,0.0,0.0
1606987178825337547,986216,1606983578229024794,imu_link,0.001601496827788651,0.005672030616551638,-0.8698787093162537,0.4932304918766022,0.0,0.0,0.0,0.0,0.0,0.0,0.0,0.0,0.0,-120.89458465576172,0.4802274703979492,-0.47489774227142334,0.0,0.0,0.0,0.0,0.0,0.0,0.0,0.0,0.0,-0.014412722550332546,0.0027090006042271852,0.029474280774593353,0.0,0.0,0.0,0.0,0.0,0.0,0.0,0.0,0.0
1606987178825346498,986217,1606983578229110808,imu_link,0.0016011116094887257,0.0056730457581579685,-0.8698800206184387,0.4932282269001007,0.0,0.0,0.0,0.0,0.0,0.0,0.0,0.0,0.0,-120.89488983154297,0.4802452027797699,-0.47502192854881287,0.0,0.0,0.0,0.0,0.0,0.0,0.0,0.0,0.0,0.002186495577916503,-0.015825418755412102,0.030069200322031975,0.0,0.0,0.0,0.0,0.0,0.0,0.0,0.0,0.0
1606987178825354262,986218,1606983578229187881,imu_link,0.0016011116094887257,0.0056730457581579685,-0.8698800206184387,0.4932282269001007,0.0,0.0,0.0,0.0,0.0,0.0,0.0,0.0,0.0,-120.89488983154297,0.4802452027797699,-0.47502192854881287,0.0,0.0,0.0,0.0,0.0,0.0,0.0,0.0,0.0,0.002186495577916503,-0.015825418755412102,0.030069200322031975,0.0,0.0,0.0,0.0,0.0,0.0,0.0,0.0,0.0
1606987178825366061,986219,1606983578229272477,imu_link,0.001602976000867784,0.005670276004821062,-0.8698788285255432,0.49323031306266785,0.0,0.0,0.0,0.0,0.0,0.0,0.0,0.0,0.0,-120.89461517333984,0.48027560114860535,-0.47463926672935486,0.0,0.0,0.0,0.0,0.0,0.0,0.0,0.0,0.0,0.015760481357574463,-0.01584755815565586,0.01711856946349144,0.0,0.0,0.0,0.0,0.0,0.0,0.0,0.0,0.0
1606987178829944370,986220,1606983578241993633,imu_link,0.001602976000867784,0.005670276004821062,-0.8698788285255432,0.49323031306266785,0.0,0.0,0.0,0.0,0.0,0.0,0.0,0.0,0.0,-120.89461517333984,0.48027560114860535,-0.47463926672935486,0.0,0.0,0.0,0.0,0.0,0.0,0.0,0.0,0.0,0.015760481357574463,-0.01584755815565586,0.01711856946349144,0.0,0.0,0.0,0.0,0.0,0.0,0.0,0.0,0.0
1606987178830932227,986221,1606983578242143936,imu_link,0.001602464122697711,0.005672409664839506,-0.8698786497116089,0.4932307004928589,0.0,0.0,0.0,0.0,0.0,0.0,0.0,0.0,0.0,-120.89456176757812,0.4803454577922821,-0.4748806655406952,0.0,0.0,0.0,0.0,0.0,0.0,0.0,0.0,0.0,0.016680248081684113,-0.00027357263024896383,0.024990158155560493,0.0,0.0,0.0,0.0,0.0,0.0,0.0,0.0,0.0
1606987178830951240,986222,1606983578242273340,imu_link,0.001602464122697711,0.005672409664839506,-0.8698786497116089,0.4932307004928589,0.0,0.0,0.0,0.0,0.0,0.0,0.0,0.0,0.0,-120.89456176757812,0.4803454577922821,-0.4748806655406952,0.0,0.0,0.0,0.0,0.0,0.0,0.0,0.0,0.0,0.016680248081684113,-0.00027357263024896383,0.024990158155560493,0.0,0.0,0.0,0.0,0.0,0.0,0.0,0.0,0.0
1606987178830960456,986223,1606983578242352308,imu_link,0.0016044705407693982,0.005675272550433874,-0.8698772192001343,0.49323299527168274,0.0,0.0,0.0,0.0,0.0,0.0,0.0,0.0,0.0,-120.89425659179688,0.4807085394859314,-0.4750514328479767,0.0,0.0,0.0,0.0,0.0,0.0,0.0,0.0,0.0,-0.008966702036559582,0.001743110828101635,0.018782272934913635,0.0,0.0,0.0,0.0,0.0,0.0,0.0,0.0,0.0
1606987178830965005,986224,1606983578242429401,imu_link,0.0016044705407693982,0.005675272550433874,-0.8698772192001343,0.49323299527168274,0.0,0.0,0.0,0.0,0.0,0.0,0.0,0.0,0.0,-120.89425659179688,0.4807085394859314,-0.4750514328479767,0.0,0.0,0.0,0.0,0.0,0.0,0.0,0.0,0.0,-0.008966702036559582,0.001743110828101635,0.018782272934913635,0.0,0.0,0.0,0.0,0.0,0.0,0.0,0.0,0.0
1606987178830975280,986225,1606983578242507868,imu_link,0.0016028480604290962,0.005674411542713642,-0.8698775768280029,0.4932326078414917,0.0,0.0,0.0,0.0,0.0,0.0,0.0,0.0,0.0,-120.89431762695312,0.48049792647361755,-0.4750575125217438,0.0,0.0,0.0,0.0,0.0,0.0,0.0,0.0,0.0,-0.004172156564891338,0.005802432540804148,0.039606716483831406,0.0,0.0,0.0,0.0,0.0,0.0,0.0,0.0,0.0
1606987178830983611,986226,1606983578242622207,imu_link,0.0016028480604290962,0.005674411542713642,-0.8698775768280029,0.4932326078414917,0.0,0.0,0.0,0.0,0.0,0.0,0.0,0.0,0.0,-120.89431762695312,0.48049792647361755,-0.4750575125217438,0.0,0.0,0.0,0.0,0.0,0.0,0.0,0.0,0.0,-0.004172156564891338,0.005802432540804148,0.039606716483831406,0.0,0.0,0.0,0.0,0.0,0.0,0.0,0.0,0.0
1606987178830988360,986227,1606983578242709359,imu_link,0.0016014411812648177,0.0056770434603095055,-0.869878888130188,0.49323001503944397,0.0,0.0,0.0,0.0,0.0,0.0,0.0,0.0,0.0,-120.89464569091797,0.4805050194263458,-0.4754008948802948,0.0,0.0,0.0,0.0,0.0,0.0,0.0,0.0,0.0,0.008644776418805122,0.005985289812088013,0.03636907786130905,0.0,0.0,0.0,0.0,0.0,0.0,0.0,0.0,0.0
1606987178830992858,986228,1606983578242787455,imu_link,0.0016014411812648177,0.0056770434603095055,-0.869878888130188,0.49323001503944397,0.0,0.0,0.0,0.0,0.0,0.0,0.0,0.0,0.0,-120.89464569091797,0.4805050194263458,-0.4754008948802948,0.0,0.0,0.0,0.0,0.0,0.0,0.0,0.0,0.0,0.008644776418805122,0.005985289812088013,0.03636907786130905,0.0,0.0,0.0,0.0,0.0,0.0,0.0,0.0,0.0
1606987178833511011,986229,1606983578242881618,imu_link,0.001603208831511438,0.00567691121250391,-0.869879424571991,0.4932292401790619,0.0,0.0,0.0,0.0,0.0,0.0,0.0,0.0,0.0,-120.8947525024414,0.48067331314086914,-0.47528812289237976,0.0,0.0,0.0,0.0,0.0,0.0,0.0,0.0,0.0,0.004262027330696583,0.00046225081314332783,0.015075315721333027,0.0,0.0,0.0,0.0,0.0,0.0,0.0,0.0,0.0
1606987178833521147,986230,1606983578243048995,imu_link,0.001603208831511438,0.00567691121250391,-0.869879424571991,0.4932292401790619,0.0,0.0,0.0,0.0,0.0,0.0,0.0,0.0,0.0,-120.8947525024414,0.48067331314086914,-0.47528812289237976,0.0,0.0,0.0,0.0,0.0,0.0,0.0,0.0,0.0,0.004262027330696583,0.00046225081314332783,0.015075315721333027,0.0,0.0,0.0,0.0,0.0,0.0,0.0,0.0,0.0
1606987178841445920,986231,1606983578255524307,imu_link,0.001604075194336474,0.005677557550370693,-0.8698803782463074,0.4932275414466858,0.0,0.0,0.0,0.0,0.0,0.0,0.0,0.0,0.0,-120.89498138427734,0.480795294046402,-0.47530457377433777,0.0,0.0,0.0,0.0,0.0,0.0,0.0,0.0,0.0,-0.007521324325352907,-0.011367864906787872,0.00751351285725832,0.0,0.0,0.0,0.0,0.0,0.0,0.0,0.0,0.0
1606987178842863512,986232,1606983578255663669,imu_link,0.001604075194336474,0.005677557550370693,-0.8698803782463074,0.4932275414466858,0.0,0.0,0.0,0.0,0.0,0.0,0.0,0.0,0.0,-120.89498138427734,0.480795294046402,-0.47530457377433777,0.0,0.0,0.0,0.0,0.0,0.0,0.0,0.0,0.0,-0.007521324325352907,-0.011367864906787872,0.00751351285725832,0.0,0.0,0.0,0.0,0.0,0.0,0.0,0.0,0.0
1606987178842892824,986233,1606983578255850251,imu_link,0.0016037431778386235,0.005677012726664543,-0.8698809146881104,0.4932266175746918,0.0,0.0,0.0,0.0,0.0,0.0,0.0,0.0,0.0,-120.89510345458984,0.48073089122772217,-0.4752695560455322,0.0,0.0,0.0,0.0,0.0,0.0,0.0,0.0,0.0,-0.010004240088164806,-0.006519300397485495,-0.0016201359685510397,0.0,0.0,0.0,0.0,0.0,0.0,0.0,0.0,0.0
1606987178842897977,986234,1606983578255965022,imu_link,0.0016037431778386235,0.005677012726664543,-0.8698809146881104,0.4932266175746918,0.0,0.0,0.0,0.0,0.0,0.0,0.0,0.0,0.0,-120.89510345458984,0.48073089122772217,-0.4752695560455322,0.0,0.0,0.0,0.0,0.0,0.0,0.0,0.0,0.0,-0.010004240088164806,-0.006519300397485495,-0.0016201359685510397,0.0,0.0,0.0,0.0,0.0,0.0,0.0,0.0,0.0
1606987178842904665,986235,1606983578256043824,imu_link,0.001604971825145185,0.005674354732036591,-0.8698781728744507,0.4932314455509186,0.0,0.0,0.0,0.0,0.0,0.0,0.0,0.0,0.0,-120.89446258544922,0.48070573806762695,-0.4749324917793274,0.0,0.0,0.0,0.0,0.0,0.0,0.0,0.0,0.0,-0.004478431772440672,0.005234478507190943,0.019784491509199142,0.0,0.0,0.0,0.0,0.0,0.0,0.0,0.0,0.0
1606987178842911270,986236,1606983578256139766,imu_link,0.001604971825145185,0.005674354732036591,-0.8698781728744507,0.4932314455509186,0.0,0.0,0.0,0.0,0.0,0.0,0.0,0.0,0.0,-120.89446258544922,0.48070573806762695,-0.4749324917793274,0.0,0.0,0.0,0.0,0.0,0.0,0.0,0.0,0.0,-0.004478431772440672,0.005234478507190943,0.019784491509199142,0.0,0.0,0.0,0.0,0.0,0.0,0.0,0.0,0.0
1606987178842916815,986237,1606983578256230702,imu_link,0.0016051415586844087,0.005673973821103573,-0.8698781132698059,0.49323153495788574,0.0,0.0,0.0,0.0,0.0,0.0,0.0,0.0,0.0,-120.89444732666016,0.480701208114624,-0.47488483786582947,0.0,0.0,0.0,0.0,0.0,0.0,0.0,0.0,0.0,-0.004946296568959951,-0.009148595854640007,0.03781961277127266,0.0,0.0,0.0,0.0,0.0,0.0,0.0,0.0,0.0
1606987178842926493,986238,1606983578256308998,imu_link,0.0016051415586844087,0.005673973821103573,-0.8698781132698059,0.49323153495788574,0.0,0.0,0.0,0.0,0.0,0.0,0.0,0.0,0.0,-120.89444732666016,0.480701208114624,-0.47488483786582947,0.0,0.0,0.0,0.0,0.0,0.0,0.0,0.0,0.0,-0.004946296568959951,-0.009148595854640007,0.03781961277127266,0.0,0.0,0.0,0.0,0.0,0.0,0.0,0.0,0.0
1606987178842964419,986239,1606983578256386983,imu_link,0.0016039659967646003,0.005671373568475246,-0.8698762655258179,0.4932348132133484,0.0,0.0,0.0,0.0,0.0,0.0,0.0,0.0,0.0,-120.89401245117188,0.48043882846832275,-0.4746902287006378,0.0,0.0,0.0,0.0,0.0,0.0,0.0,0.0,0.0,-0.005651060491800308,-0.013775549829006195,0.030982879921793938,0.0,0.0,0.0,0.0,0.0,0.0,0.0,0.0,0.0
1606987178842969706,986240,1606983578256460749,imu_link,0.0016039659967646003,0.005671373568475246,-0.8698762655258179,0.4932348132133484,0.0,0.0,0.0,0.0,0.0,0.0,0.0,0.0,0.0,-120.89401245117188,0.48043882846832275,-0.4746902287006378,0.0,0.0,0.0,0.0,0.0,0.0,0.0,0.0,0.0,-0.005651060491800308,-0.013775549829006195,0.030982879921793938,0.0,0.0,0.0,0.0,0.0,0.0,0.0,0.0,0.0
1606987178843010415,986241,1606983578256541641,imu_link,0.001604490797035396,0.005669695325195789,-0.8698759078979492,0.4932354688644409,0.0,0.0,0.0,0.0,0.0,0.0,0.0,0.0,0.0,-120.89392852783203,0.4803966283798218,-0.4744929373264313,0.0,0.0,0.0,0.0,0.0,0.0,0.0,0.0,0.0,-0.0025280900299549103,-0.002696272451430559,-0.0024822421837598085,0.0,0.0,0.0,0.0,0.0,0.0,0.0,0.0,0.0
1606987178884997433,986242,1606983578268407708,imu_link,0.001604490797035396,0.005669695325195789,-0.8698759078979492,0.4932354688644409,0.0,0.0,0.0,0.0,0.0,0.0,0.0,0.0,0.0,-120.89392852783203,0.4803966283798218,-0.4744929373264313,0.0,0.0,0.0,0.0,0.0,0.0,0.0,0.0,0.0,-0.0025280900299549103,-0.002696272451430559,-0.0024822421837598085,0.0,0.0,0.0,0.0,0.0,0.0,0.0,0.0,0.0
1606987178885028243,986243,1606983578268546514,imu_link,0.0016043238574638963,0.005668838042765856,-0.8698778748512268,0.49323201179504395,0.0,0.0,0.0,0.0,0.0,0.0,0.0,0.0,0.0,-120.8943862915039,0.4803296625614166,-0.4744188189506531,0.0,0.0,0.0,0.0,0.0,0.0,0.0,0.0,0.0,0.007718600798398256,-0.005320927128195763,-0.00871084351092577,0.0,0.0,0.0,0.0,0.0,0.0,0.0,0.0,0.0
1606987178885034427,986244,1606983578268730966,imu_link,0.0016043238574638963,0.005668838042765856,-0.8698778748512268,0.49323201179504395,0.0,0.0,0.0,0.0,0.0,0.0,0.0,0.0,0.0,-120.8943862915039,0.4803296625614166,-0.4744188189506531,0.0,0.0,0.0,0.0,0.0,0.0,0.0,0.0,0.0,0.007718600798398256,-0.005320927128195763,-0.00871084351092577,0.0,0.0,0.0,0.0,0.0,0.0,0.0,0.0,0.0
1606987178885045836,986245,1606983578268812009,imu_link,0.0016043238574638963,0.005668838042765856,-0.8698778748512268,0.49323201179504395,0.0,0.0,0.0,0.0,0.0,0.0,0.0,0.0,0.0,-120.8943862915039,0.4803296625614166,-0.4744188189506531,0.0,0.0,0.0,0.0,0.0,0.0,0.0,0.0,0.0,0.0020793487783521414,0.007943685166537762,0.0035958357620984316,0.0,0.0,0.0,0.0,0.0,0.0,0.0,0.0,0.0
1606987178885061209,986246,1606983578268890886,imu_link,0.0016043238574638963,0.005668838042765856,-0.8698778748512268,0.49323201179504395,0.0,0.0,0.0,0.0,0.0,0.0,0.0,0.0,0.0,-120.8943862915039,0.4803296625614166,-0.4744188189506531,0.0,0.0,0.0,0.0,0.0,0.0,0.0,0.0,0.0,0.0020793487783521414,0.007943685166537762,0.0035958357620984316,0.0,0.0,0.0,0.0,0.0,0.0,0.0,0.0,0.0
1606987178885074670,986247,1606983578268994982,imu_link,0.0016032428247854114,0.00567264249548316,-0.8698791861534119,0.4932297170162201,0.0,0.0,0.0,0.0,0.0,0.0,0.0,0.0,0.0,-120.89469909667969,0.48043569922447205,-0.47486039996147156,0.0,0.0,0.0,0.0,0.0,0.0,0.0,0.0,0.0,-0.015763940289616585,0.0050069112330675125,-0.019428741186857224,0.0,0.0,0.0,0.0,0.0,0.0,0.0,0.0,0.0
1606987178885109863,986248,1606983578269085466,imu_link,0.0016032428247854114,0.00567264249548316,-0.8698791861534119,0.4932297170162201,0.0,0.0,0.0,0.0,0.0,0.0,0.0,0.0,0.0,-120.89469909667969,0.48043569922447205,-0.47486039996147156,0.0,0.0,0.0,0.0,0.0,0.0,0.0,0.0,0.0,-0.015763940289616585,0.0050069112330675125,-0.019428741186857224,0.0,0.0,0.0,0.0,0.0,0.0,0.0,0.0,0.0
1606987178885127813,986249,1606983578269162389,imu_link,0.0016032700659707189,0.005670838989317417,-0.8698787093162537,0.49323052167892456,0.0,0.0,0.0,0.0,0.0,0.0,0.0,0.0,0.0,-120.89457702636719,0.48033687472343445,-0.474678635597229,0.0,0.0,0.0,0.0,0.0,0.0,0.0,0.0,0.0,-0.003546393709257245,-0.019048895686864853,-0.02977258339524269,0.0,0.0,0.0,0.0,0.0,0.0,0.0,0.0,0.0
1606987178885134525,986250,1606983578269247521,imu_link,0.0016032700659707189,0.005670838989317417,-0.8698787093162537,0.49323052167892456,0.0,0.0,0.0,0.0,0.0,0.0,0.0,0.0,0.0,-120.89457702636719,0.48033687472343445,-0.474678635597229,0.0,0.0,0.0,0.0,0.0,0.0,0.0,0.0,0.0,-0.003546393709257245,-0.019048895686864853,-0.02977258339524269,0.0,0.0,0.0,0.0,0.0,0.0,0.0,0.0,0.0
1606987178885144052,986251,1606983578269328729,imu_link,0.0016058757901191711,0.0056666717864573,-0.8698801398277283,0.4932280480861664,0.0,0.0,0.0,0.0,0.0,0.0,0.0,0.0,0.0,-120.89490509033203,0.4803597629070282,-0.47411733865737915,0.0,0.0,0.0,0.0,0.0,0.0,0.0,0.0,0.0,0.006953301839530468,-0.022490961477160454,-0.014360486529767513,0.0,0.0,0.0,0.0,0.0,0.0,0.0,0.0,0.0
1606987178885154741,986252,1606983578282248700,imu_link,0.0016058757901191711,0.0056666717864573,-0.8698801398277283,0.4932280480861664,0.0,0.0,0.0,0.0,0.0,0.0,0.0,0.0,0.0,-120.89490509033203,0.4803597629070282,-0.47411733865737915,0.0,0.0,0.0,0.0,0.0,0.0,0.0,0.0,0.0,0.006953301839530468,-0.022490961477160454,-0.014360486529767513,0.0,0.0,0.0,0.0,0.0,0.0,0.0,0.0,0.0
1606987178885171704,986253,1606983578282395901,imu_link,0.001607586513273418,0.005665681324899197,-0.869880735874176,0.4932270348072052,0.0,0.0,0.0,0.0,0.0,0.0,0.0,0.0,0.0,-120.89503479003906,0.4804737865924835,-0.473922461271286,0.0,0.0,0.0,0.0,0.0,0.0,0.0,0.0,0.0,-0.0025679876562207937,-0.019914384931325912,0.0032758163288235664,0.0,0.0,0.0,0.0,0.0,0.0,0.0,0.0,0.0
1606987178885179711,986254,1606983578282552964,imu_link,0.001607586513273418,0.005665681324899197,-0.869880735874176,0.4932270348072052,0.0,0.0,0.0,0.0,0.0,0.0,0.0,0.0,0.0,-120.89503479003906,0.4804737865924835,-0.473922461271286,0.0,0.0,0.0,0.0,0.0,0.0,0.0,0.0,0.0,-0.0025679876562207937,-0.019914384931325912,0.0032758163288235664,0.0,0.0,0.0,0.0,0.0,0.0,0.0,0.0,0.0
1606987178885189319,986255,1606983578282656053,imu_link,0.0016097567277029157,0.005661513190716505,-0.8698835372924805,0.493222177028656,0.0,0.0,0.0,0.0,0.0,0.0,0.0,0.0,0.0,-120.89568328857422,0.48045191168785095,-0.4733869433403015,0.0,0.0,0.0,0.0,0.0,0.0,0.0,0.0,0.0,-0.017085829749703407,-0.015321770682930946,0.009607062675058842,0.0,0.0,0.0,0.0,0.0,0.0,0.0,0.0,0.0
1606987178888171027,986256,1606983578282744628,imu_link,0.0016097567277029157,0.005661513190716505,-0.8698835372924805,0.493222177028656,0.0,0.0,0.0,0.0,0.0,0.0,0.0,0.0,0.0,-120.89568328857422,0.48045191168785095,-0.4733869433403015,0.0,0.0,0.0,0.0,0.0,0.0,0.0,0.0,0.0,-0.017085829749703407,-0.015321770682930946,0.009607062675058842,0.0,0.0,0.0,0.0,0.0,0.0,0.0,0.0,0.0
1606987178888183565,986257,1606983578282827971,imu_link,0.0016089046839624643,0.0056623173877596855,-0.8698839545249939,0.4932212233543396,0.0,0.0,0.0,0.0,0.0,0.0,0.0,0.0,0.0,-120.89580535888672,0.4804118275642395,-0.4735158681869507,0.0,0.0,0.0,0.0,0.0,0.0,0.0,0.0,0.0,-0.02215541899204254,-0.026629872620105743,0.006808227859437466,0.0,0.0,0.0,0.0,0.0,0.0,0.0,0.0,0.0
1606987178888211092,986258,1606983578282925411,imu_link,0.0016089046839624643,0.0056623173877596855,-0.8698839545249939,0.4932212233543396,0.0,0.0,0.0,0.0,0.0,0.0,0.0,0.0,0.0,-120.89580535888672,0.4804118275642395,-0.4735158681869507,0.0,0.0,0.0,0.0,0.0,0.0,0.0,0.0,0.0,-0.02215541899204254,-0.026629872620105743,0.006808227859437466,0.0,0.0,0.0,0.0,0.0,0.0,0.0,0.0,0.0
1606987178888219734,986259,1606983578283064949,imu_link,0.0016079067718237638,0.005655837710946798,-0.8698867559432983,0.4932163655757904,0.0,0.0,0.0,0.0,0.0,0.0,0.0,0.0,0.0,-120.89644622802734,0.47994348406791687,-0.47292906045913696,0.0,0.0,0.0,0.0,0.0,0.0,0.0,0.0,0.0,-0.017646195366978645,-0.01257332507520914,0.007443167734891176,0.0,0.0,0.0,0.0,0.0,0.0,0.0,0.0,0.0
1606987178888270623,986260,1606983578283152797,imu_link,0.0016079067718237638,0.005655837710946798,-0.8698867559432983,0.4932163655757904,0.0,0.0,0.0,0.0,0.0,0.0,0.0,0.0,0.0,-120.89644622802734,0.47994348406791687,-0.47292906045913696,0.0,0.0,0.0,0.0,0.0,0.0,0.0,0.0,0.0,-0.017646195366978645,-0.01257332507520914,0.007443167734891176,0.0,0.0,0.0,0.0,0.0,0.0,0.0,0.0,0.0
1606987178888321524,986261,1606983578283231886,imu_link,0.0016085340175777674,0.005657190456986427,-0.869886577129364,0.4932168126106262,0.0,0.0,0.0,0.0,0.0,0.0,0.0,0.0,0.0,-120.89639282226562,0.48008275032043457,-0.47302815318107605,0.0,0.0,0.0,0.0,0.0,0.0,0.0,0.0,0.0,-0.01293475553393364,-0.004396988544613123,0.018018342554569244,0.0,0.0,0.0,0.0,0.0,0.0,0.0,0.0,0.0
1606987178888338357,986262,1606983578283343213,imu_link,0.0016085340175777674,0.005657190456986427,-0.869886577129364,0.4932168126106262,0.0,0.0,0.0,0.0,0.0,0.0,0.0,0.0,0.0,-120.89639282226562,0.48008275032043457,-0.47302815318107605,0.0,0.0,0.0,0.0,0.0,0.0,0.0,0.0,0.0,-0.01293475553393364,-0.004396988544613123,0.018018342554569244,0.0,0.0,0.0,0.0,0.0,0.0,0.0,0.0,0.0
1606987178888367418,986263,1606983578295649940,imu_link,0.0016047329409047961,0.0056557501666247845,-0.8698895573616028,0.4932115972042084,0.0,0.0,0.0,0.0,0.0,0.0,0.0,0.0,0.0,-120.8970718383789,0.4796195924282074,-0.47310227155685425,0.0,0.0,0.0,0.0,0.0,0.0,0.0,0.0,0.0,-0.006997833959758282,-0.016447674483060837,0.03220416232943535,0.0,0.0,0.0,0.0,0.0,0.0,0.0,0.0,0.0
1606987178888391277,986264,1606983578295778968,imu_link,0.0016047329409047961,0.0056557501666247845,-0.8698895573616028,0.4932115972042084,0.0,0.0,0.0,0.0,0.0,0.0,0.0,0.0,0.0,-120.8970718383789,0.4796195924282074,-0.47310227155685425,0.0,0.0,0.0,0.0,0.0,0.0,0.0,0.0,0.0,-0.006997833959758282,-0.016447674483060837,0.03220416232943535,0.0,0.0,0.0,0.0,0.0,0.0,0.0,0.0,0.0
1606987178888399865,986265,1606983578295954540,imu_link,0.0016053045401349664,0.005657043308019638,-0.869890570640564,0.49320974946022034,0.0,0.0,0.0,0.0,0.0,0.0,0.0,0.0,0.0,-120.8973159790039,0.4797486662864685,-0.47319990396499634,0.0,0.0,0.0,0.0,0.0,0.0,0.0,0.0,0.0,0.002060720231384039,-0.005334257148206234,0.015787167474627495,0.0,0.0,0.0,0.0,0.0,0.0,0.0,0.0,0.0
1606987178888407770,986266,1606983578296043946,imu_link,0.0016053045401349664,0.005657043308019638,-0.869890570640564,0.49320974946022034,0.0,0.0,0.0,0.0,0.0,0.0,0.0,0.0,0.0,-120.8973159790039,0.4797486662864685,-0.47319990396499634,0.0,0.0,0.0,0.0,0.0,0.0,0.0,0.0,0.0,0.002060720231384039,-0.005334257148206234,0.015787167474627495,0.0,0.0,0.0,0.0,0.0,0.0,0.0,0.0,0.0
1606987178888457498,986267,1606983578296121461,imu_link,0.001604440389201045,0.005654838867485523,-0.8698959946632385,0.4932002127170563,0.0,0.0,0.0,0.0,0.0,0.0,0.0,0.0,0.0,-120.89857482910156,0.47953277826309204,-0.47303423285484314,0.0,0.0,0.0,0.0,0.0,0.0,0.0,0.0,0.0,-0.01631862111389637,-0.0031983433291316032,-0.02449958026409149,0.0,0.0,0.0,0.0,0.0,0.0,0.0,0.0,0.0
1606987178888465383,986268,1606983578296197347,imu_link,0.001604440389201045,0.005654838867485523,-0.8698959946632385,0.4932002127170563,0.0,0.0,0.0,0.0,0.0,0.0,0.0,0.0,0.0,-120.89857482910156,0.47953277826309204,-0.47303423285484314,0.0,0.0,0.0,0.0,0.0,0.0,0.0,0.0,0.0,-0.01631862111389637,-0.0031983433291316032,-0.02449958026409149,0.0,0.0,0.0,0.0,0.0,0.0,0.0,0.0,0.0
1606987178894836892,986269,1606983578296302555,imu_link,0.0016037288587540388,0.005654407199472189,-0.86989426612854,0.49320322275161743,0.0,0.0,0.0,0.0,0.0,0.0,0.0,0.0,0.0,-120.89816284179688,0.4794390797615051,-0.4730297923088074,0.0,0.0,0.0,0.0,0.0,0.0,0.0,0.0,0.0,-0.022484689950942993,-0.0032070649322122335,-0.011183601804077625,0.0,0.0,0.0,0.0,0.0,0.0,0.0,0.0,0.0
1606987178894907483,986270,1606983578296385121,imu_link,0.0016037288587540388,0.005654407199472189,-0.86989426612854,0.49320322275161743,0.0,0.0,0.0,0.0,0.0,0.0,0.0,0.0,0.0,-120.89816284179688,0.4794390797615051,-0.4730297923088074,0.0,0.0,0.0,0.0,0.0,0.0,0.0,0.0,0.0,-0.022484689950942993,-0.0032070649322122335,-0.011183601804077625,0.0,0.0,0.0,0.0,0.0,0.0,0.0,0.0,0.0
1606987178894934621,986271,1606983578296461463,imu_link,0.0015986715443432331,0.00564916105940938,-0.8698981404304504,0.493196576833725,0.0,0.0,0.0,0.0,0.0,0.0,0.0,0.0,0.0,-120.89905548095703,0.478634774684906,-0.4727962911128998,0.0,0.0,0.0,0.0,0.0,0.0,0.0,0.0,0.0,0.0012429306516423821,0.004197990987449884,0.022198501974344254,0.0,0.0,0.0,0.0,0.0,0.0,0.0,0.0,0.0
1606987178894946795,986272,1606983578296545462,imu_link,0.0015986715443432331,0.00564916105940938,-0.8698981404304504,0.493196576833725,0.0,0.0,0.0,0.0,0.0,0.0,0.0,0.0,0.0,-120.89905548095703,0.478634774684906,-0.4727962911128998,0.0,0.0,0.0,0.0,0.0,0.0,0.0,0.0,0.0,0.0012429306516423821,0.004197990987449884,0.022198501974344254,0.0,0.0,0.0,0.0,0.0,0.0,0.0,0.0,0.0
1606987178894961423,986273,1606983578296629366,imu_link,0.001599680632352829,0.0056510204449296,-0.8698979616165161,0.4931968152523041,0.0,0.0,0.0,0.0,0.0,0.0,0.0,0.0,0.0,-120.89901733398438,0.47884058952331543,-0.47292447090148926,0.0,0.0,0.0,0.0,0.0,0.0,0.0,0.0,0.0,0.010154038667678833,0.0036551356315612793,0.023391064256429672,0.0,0.0,0.0,0.0,0.0,0.0,0.0,0.0,0.0
1606987178895856401,986274,1606983578309464042,imu_link,0.001599680632352829,0.0056510204449296,-0.8698979616165161,0.4931968152523041,0.0,0.0,0.0,0.0,0.0,0.0,0.0,0.0,0.0,-120.89901733398438,0.47884058952331543,-0.47292447090148926,0.0,0.0,0.0,0.0,0.0,0.0,0.0,0.0,0.0,0.010154038667678833,0.0036551356315612793,0.023391064256429672,0.0,0.0,0.0,0.0,0.0,0.0,0.0,0.0,0.0
1606987178895872962,986275,1606983578309584444,imu_link,0.0015994731802493334,0.005652239080518484,-0.8699018359184265,0.4931900203227997,0.0,0.0,0.0,0.0,0.0,0.0,0.0,0.0,0.0,-120.89991760253906,0.47888508439064026,-0.4730614423751831,0.0,0.0,0.0,0.0,0.0,0.0,0.0,0.0,0.0,0.010833488777279854,0.0008217773865908384,0.012640929780900478,0.0,0.0,0.0,0.0,0.0,0.0,0.0,0.0,0.0
1606987178895887187,986276,1606983578309703989,imu_link,0.0015994731802493334,0.005652239080518484,-0.8699018359184265,0.4931900203227997,0.0,0.0,0.0,0.0,0.0,0.0,0.0,0.0,0.0,-120.89991760253906,0.47888508439064026,-0.4730614423751831,0.0,0.0,0.0,0.0,0.0,0.0,0.0,0.0,0.0,0.010833488777279854,0.0008217773865908384,0.012640929780900478,0.0,0.0,0.0,0.0,0.0,0.0,0.0,0.0,0.0
1606987178895896088,986277,1606983578309776826,imu_link,0.0016019975300878286,0.0056512425653636456,-0.8699007034301758,0.49319204688072205,0.0,0.0,0.0,0.0,0.0,0.0,0.0,0.0,0.0,-120.899658203125,0.47908154129981995,-0.4728182852268219,0.0,0.0,0.0,0.0,0.0,0.0,0.0,0.0,0.0,-0.010383836925029755,-0.007401720620691776,-0.0008517723763361573,0.0,0.0,0.0,0.0,0.0,0.0,0.0,0.0,0.0
1606987178897076436,986278,1606983578309848371,imu_link,0.0016019975300878286,0.0056512425653636456,-0.8699007034301758,0.49319204688072205,0.0,0.0,0.0,0.0,0.0,0.0,0.0,0.0,0.0,-120.899658203125,0.47908154129981995,-0.4728182852268219,0.0,0.0,0.0,0.0,0.0,0.0,0.0,0.0,0.0,-0.010383836925029755,-0.007401720620691776,-0.0008517723763361573,0.0,0.0,0.0,0.0,0.0,0.0,0.0,0.0,0.0
1606987178897090920,986279,1606983578309916790,imu_link,0.0016017586458474398,0.0056489622220396996,-0.8699058890342712,0.493182897567749,0.0,0.0,0.0,0.0,0.0,0.0,0.0,0.0,0.0,-120.9008560180664,0.4789239168167114,-0.47260943055152893,0.0,0.0,0.0,0.0,0.0,0.0,0.0,0.0,0.0,-0.024509374052286148,-0.001040796167217195,0.0068222759291529655,0.0,0.0,0.0,0.0,0.0,0.0,0.0,0.0,0.0
1606987178897107173,986280,1606983578309996125,imu_link,0.0016017586458474398,0.0056489622220396996,-0.8699058890342712,0.493182897567749,0.0,0.0,0.0,0.0,0.0,0.0,0.0,0.0,0.0,-120.9008560180664,0.4789239168167114,-0.47260943055152893,0.0,0.0,0.0,0.0,0.0,0.0,0.0,0.0,0.0,-0.024509374052286148,-0.001040796167217195,0.0068222759291529655,0.0,0.0,0.0,0.0,0.0,0.0,0.0,0.0,0.0
1606987178897122384,986281,1606983578310067482,imu_link,0.001604526536539197,0.005648165941238403,-0.8699055314064026,0.4931834936141968,0.0,0.0,0.0,0.0,0.0,0.0,0.0,0.0,0.0,-120.90077209472656,0.47915515303611755,-0.4723733067512512,0.0,0.0,0.0,0.0,0.0,0.0,0.0,0.0,0.0,-0.00813469011336565,0.010521598160266876,0.009654350578784943,0.0,0.0,0.0,0.0,0.0,0.0,0.0,0.0,0.0
1606987178897136765,986282,1606983578310134305,imu_link,0.001604526536539197,0.005648165941238403,-0.8699055314064026,0.4931834936141968,0.0,0.0,0.0,0.0,0.0,0.0,0.0,0.0,0.0,-120.90077209472656,0.47915515303611755,-0.4723733067512512,0.0,0.0,0.0,0.0,0.0,0.0,0.0,0.0,0.0,-0.00813469011336565,0.010521598160266876,0.009654350578784943,0.0,0.0,0.0,0.0,0.0,0.0,0.0,0.0,0.0
1606987178897145884,986283,1606983578310198842,imu_link,0.001601076335646212,0.005648341961205006,-0.8699036240577698,0.493186891078949,0.0,0.0,0.0,0.0,0.0,0.0,0.0,0.0,0.0,-120.90032196044922,0.4788229763507843,-0.47258394956588745,0.0,0.0,0.0,0.0,0.0,0.0,0.0,0.0,0.0,0.003102475544437766,0.006792040076106787,-0.0029490345623344183,0.0,0.0,0.0,0.0,0.0,0.0,0.0,0.0,0.0
1606987178897167818,986284,1606983578310260060,imu_link,0.001601076335646212,0.005648341961205006,-0.8699036240577698,0.493186891078949,0.0,0.0,0.0,0.0,0.0,0.0,0.0,0.0,0.0,-120.90032196044922,0.4788229763507843,-0.47258394956588745,0.0,0.0,0.0,0.0,0.0,0.0,0.0,0.0,0.0,0.003102475544437766,0.006792040076106787,-0.0029490345623344183,0.0,0.0,0.0,0.0,0.0,0.0,0.0,0.0,0.0
1606987178908409360,986285,1606983578319508290,imu_link,0.001601374358870089,0.005649579223245382,-0.8699038624763489,0.49318647384643555,0.0,0.0,0.0,0.0,0.0,0.0,0.0,0.0,0.0,-120.90038299560547,0.47892236709594727,-0.47269073128700256,0.0,0.0,0.0,0.0,0.0,0.0,0.0,0.0,0.0,0.00601924117654562,-0.001295194961130619,-0.00421309657394886,0.0,0.0,0.0,0.0,0.0,0.0,0.0,0.0,0.0
1606987178908424985,986286,1606983578319653466,imu_link,0.001601374358870089,0.005649579223245382,-0.8699038624763489,0.49318647384643555,0.0,0.0,0.0,0.0,0.0,0.0,0.0,0.0,0.0,-120.90038299560547,0.47892236709594727,-0.47269073128700256,0.0,0.0,0.0,0.0,0.0,0.0,0.0,0.0,0.0,0.00601924117654562,-0.001295194961130619,-0.00421309657394886,0.0,0.0,0.0,0.0,0.0,0.0,0.0,0.0,0.0
1606987178908453840,986287,1606983578319815551,imu_link,0.0016032790299504995,0.005650849547237158,-0.8699007034301758,0.49319204688072205,0.0,0.0,0.0,0.0,0.0,0.0,0.0,0.0,0.0,-120.899658203125,0.47918710112571716,-0.4727066457271576,0.0,0.0,0.0,0.0,0.0,0.0,0.0,0.0,0.0,-0.0038109770976006985,-0.006886640563607216,0.017879772931337357,0.0,0.0,0.0,0.0,0.0,0.0,0.0,0.0,0.0
1606987178908460816,986288,1606983578319894023,imu_link,0.0016032790299504995,0.005650849547237158,-0.8699007034301758,0.49319204688072205,0.0,0.0,0.0,0.0,0.0,0.0,0.0,0.0,0.0,-120.899658203125,0.47918710112571716,-0.4727066457271576,0.0,0.0,0.0,0.0,0.0,0.0,0.0,0.0,0.0,-0.0038109770976006985,-0.006886640563607216,0.017879772931337357,0.0,0.0,0.0,0.0,0.0,0.0,0.0,0.0,0.0
1606987178908466784,986289,1606983578319971898,imu_link,0.0016041831113398075,0.005651745945215225,-0.8699005246162415,0.49319231510162354,0.0,0.0,0.0,0.0,0.0,0.0,0.0,0.0,0.0,-120.89961242675781,0.4793280363082886,-0.47274479269981384,0.0,0.0,0.0,0.0,0.0,0.0,0.0,0.0,0.0,-0.011746110394597054,0.0041286093182861805,0.0316447988152504,0.0,0.0,0.0,0.0,0.0,0.0,0.0,0.0,0.0
1606987178914243321,986290,1606983578320089144,imu_link,0.0016041831113398075,0.005651745945215225,-0.8699005246162415,0.49319231510162354,0.0,0.0,0.0,0.0,0.0,0.0,0.0,0.0,0.0,-120.89961242675781,0.4793280363082886,-0.47274479269981384,0.0,0.0,0.0,0.0,0.0,0.0,0.0,0.0,0.0,-0.011746110394597054,0.0041286093182861805,0.0316447988152504,0.0,0.0,0.0,0.0,0.0,0.0,0.0,0.0,0.0
1606987178914259017,986291,1606983578320168353,imu_link,0.001601858763024211,0.00565194571390748,-0.8699068427085876,0.4931812286376953,0.0,0.0,0.0,0.0,0.0,0.0,0.0,0.0,0.0,-120.90107727050781,0.47910162806510925,-0.47290220856666565,0.0,0.0,0.0,0.0,0.0,0.0,0.0,0.0,0.0,0.0015369533794000745,-0.017286723479628563,0.028318334370851517,0.0,0.0,0.0,0.0,0.0,0.0,0.0,0.0,0.0
1606987178914301806,986292,1606983578320413801,imu_link,0.001601858763024211,0.00565194571390748,-0.8699068427085876,0.4931812286376953,0.0,0.0,0.0,0.0,0.0,0.0,0.0,0.0,0.0,-120.90107727050781,0.47910162806510925,-0.47290220856666565,0.0,0.0,0.0,0.0,0.0,0.0,0.0,0.0,0.0,0.0015369533794000745,-0.017286723479628563,0.028318334370851517,0.0,0.0,0.0,0.0,0.0,0.0,0.0,0.0,0.0
1606987178920098202,986293,1606983578332322080,imu_link,0.001600446761585772,0.00565040810033679,-0.8699073791503906,0.4931800365447998,0.0,0.0,0.0,0.0,0.0,0.0,0.0,0.0,0.0,-120.90122985839844,0.47887319326400757,-0.4728293716907501,0.0,0.0,0.0,0.0,0.0,0.0,0.0,0.0,0.0,-0.005013319663703442,-0.020059408619999886,0.019420521333813667,0.0,0.0,0.0,0.0,0.0,0.0,0.0,0.0,0.0
1606987178933116027,986294,1606983578332461959,imu_link,0.001600446761585772,0.00565040810033679,-0.8699073791503906,0.4931800365447998,0.0,0.0,0.0,0.0,0.0,0.0,0.0,0.0,0.0,-120.90122985839844,0.47887319326400757,-0.4728293716907501,0.0,0.0,0.0,0.0,0.0,0.0,0.0,0.0,0.0,-0.005013319663703442,-0.020059408619999886,0.019420521333813667,0.0,0.0,0.0,0.0,0.0,0.0,0.0,0.0,0.0
1606987178933138014,986295,1606983578332623959,imu_link,0.0015999311581254005,0.005642560310661793,-0.8699132204055786,0.49317002296447754,0.0,0.0,0.0,0.0,0.0,0.0,0.0,0.0,0.0,-120.90253448486328,0.47837287187576294,-0.47208163142204285,0.0,0.0,0.0,0.0,0.0,0.0,0.0,0.0,0.0,-0.008873945102095604,-0.002045027446001768,0.029323352500796318,0.0,0.0,0.0,0.0,0.0,0.0,0.0,0.0,0.0
1606987178933147780,986296,1606983578332709672,imu_link,0.0015999311581254005,0.005642560310661793,-0.8699132204055786,0.49317002296447754,0.0,0.0,0.0,0.0,0.0,0.0,0.0,0.0,0.0,-120.90253448486328,0.47837287187576294,-0.47208163142204285,0.0,0.0,0.0,0.0,0.0,0.0,0.0,0.0,0.0,-0.008873945102095604,-0.002045027446001768,0.029323352500796318,0.0,0.0,0.0,0.0,0.0,0.0,0.0,0.0,0.0
1606987178933154398,986297,1606983578332786134,imu_link,0.0015981877222657204,0.005644301883876324,-0.8699131011962891,0.4931701719760895,0.0,0.0,0.0,0.0,0.0,0.0,0.0,0.0,0.0,-120.90252685546875,0.478297621011734,-0.47235366702079773,0.0,0.0,0.0,0.0,0.0,0.0,0.0,0.0,0.0,0.0056435479782521725,-0.008298652246594429,0.019778341054916382,0.0,0.0,0.0,0.0,0.0,0.0,0.0,0.0,0.0
1606987178935261182,986298,1606983578332880763,imu_link,0.0015981877222657204,0.005644301883876324,-0.8699131011962891,0.4931701719760895,0.0,0.0,0.0,0.0,0.0,0.0,0.0,0.0,0.0,-120.90252685546875,0.478297621011734,-0.47235366702079773,0.0,0.0,0.0,0.0,0.0,0.0,0.0,0.0,0.0,0.0056435479782521725,-0.008298652246594429,0.019778341054916382,0.0,0.0,0.0,0.0,0.0,0.0,0.0,0.0,0.0
1606987178935288482,986299,1606983578332977813,imu_link,0.0016005533980205655,0.005643148440867662,-0.8699105381965637,0.49317467212677,0.0,0.0,0.0,0.0,0.0,0.0,0.0,0.0,0.0,-120.90193939208984,0.47847068309783936,-0.4721025824546814,0.0,0.0,0.0,0.0,0.0,0.0,0.0,0.0,0.0,0.014230208471417427,0.0035054159816354513,-0.0044321333989501,0.0,0.0,0.0,0.0,0.0,0.0,0.0,0.0,0.0
1606987178935301748,986300,1606983578333060118,imu_link,0.0016005533980205655,0.005643148440867662,-0.8699105381965637,0.49317467212677,0.0,0.0,0.0,0.0,0.0,0.0,0.0,0.0,0.0,-120.90193939208984,0.47847068309783936,-0.4721025824546814,0.0,0.0,0.0,0.0,0.0,0.0,0.0,0.0,0.0,0.014230208471417427,0.0035054159816354513,-0.0044321333989501,0.0,0.0,0.0,0.0,0.0,0.0,0.0,0.0,0.0
1606987178935441825,986301,1606983578333172433,imu_link,0.0016018397873267531,0.005643668118864298,-0.869910717010498,0.49317437410354614,0.0,0.0,0.0,0.0,0.0,0.0,0.0,0.0,0.0,-120.90196228027344,0.47862815856933594,-0.4720817804336548,0.0,0.0,0.0,0.0,0.0,0.0,0.0,0.0,0.0,0.016433410346508026,-0.005541670136153698,0.005646207835525274,0.0,0.0,0.0,0.0,0.0,0.0,0.0,0.0,0.0
1606987178937852790,986302,1606983578333259074,imu_link,0.0016018397873267531,0.005643668118864298,-0.869910717010498,0.49317437410354614,0.0,0.0,0.0,0.0,0.0,0.0,0.0,0.0,0.0,-120.90196228027344,0.47862815856933594,-0.4720817804336548,0.0,0.0,0.0,0.0,0.0,0.0,0.0,0.0,0.0,0.016433410346508026,-0.005541670136153698,0.005646207835525274,0.0,0.0,0.0,0.0,0.0,0.0,0.0,0.0,0.0
1606987178937887091,986303,1606983578345623945,imu_link,0.0016064565861597657,0.0056437039747834206,-0.8699072003364563,0.49318060278892517,0.0,0.0,0.0,0.0,0.0,0.0,0.0,0.0,0.0,-120.9011459350586,0.4790938198566437,-0.47182101011276245,0.0,0.0,0.0,0.0,0.0,0.0,0.0,0.0,0.0,0.006196421571075916,-0.023010745644569397,0.008074024692177773,0.0,0.0,0.0,0.0,0.0,0.0,0.0,0.0,0.0
1606987178937920146,986304,1606983578345756040,imu_link,0.0016064565861597657,0.0056437039747834206,-0.8699072003364563,0.49318060278892517,0.0,0.0,0.0,0.0,0.0,0.0,0.0,0.0,0.0,-120.9011459350586,0.4790938198566437,-0.47182101011276245,0.0,0.0,0.0,0.0,0.0,0.0,0.0,0.0,0.0,0.006196421571075916,-0.023010745644569397,0.008074024692177773,0.0,0.0,0.0,0.0,0.0,0.0,0.0,0.0,0.0
1606987178937977969,986305,1606983578345928915,imu_link,0.0016064271330833435,0.00564262829720974,-0.8699063062667847,0.49318215250968933,0.0,0.0,0.0,0.0,0.0,0.0,0.0,0.0,0.0,-120.90095520019531,0.47903090715408325,-0.4717146158218384,0.0,0.0,0.0,0.0,0.0,0.0,0.0,0.0,0.0,0.005214578006416559,0.002080518752336502,0.007447445765137672,0.0,0.0,0.0,0.0,0.0,0.0,0.0,0.0,0.0
1606987178937997896,986306,1606983578346021605,imu_link,0.0016064271330833435,0.00564262829720974,-0.8699063062667847,0.49318215250968933,0.0,0.0,0.0,0.0,0.0,0.0,0.0,0.0,0.0,-120.90095520019531,0.47903090715408325,-0.4717146158218384,0.0,0.0,0.0,0.0,0.0,0.0,0.0,0.0,0.0,0.005214578006416559,0.002080518752336502,0.007447445765137672,0.0,0.0,0.0,0.0,0.0,0.0,0.0,0.0,0.0
1606987178938009314,986307,1606983578346106872,imu_link,0.0016072222497314215,0.0056437659077346325,-0.8699028491973877,0.49318817257881165,0.0,0.0,0.0,0.0,0.0,0.0,0.0,0.0,0.0,-120.900146484375,0.47917771339416504,-0.4717797636985779,0.0,0.0,0.0,0.0,0.0,0.0,0.0,0.0,0.0,0.0010863787028938532,0.02041677013039589,0.025373106822371483,0.0,0.0,0.0,0.0,0.0,0.0,0.0,0.0,0.0
1606987178938025318,986308,1606983578346190852,imu_link,0.0016072222497314215,0.0056437659077346325,-0.8699028491973877,0.49318817257881165,0.0,0.0,0.0,0.0,0.0,0.0,0.0,0.0,0.0,-120.900146484375,0.47917771339416504,-0.4717797636985779,0.0,0.0,0.0,0.0,0.0,0.0,0.0,0.0,0.0,0.0010863787028938532,0.02041677013039589,0.025373106822371483,0.0,0.0,0.0,0.0,0.0,0.0,0.0,0.0,0.0
1606987178938044417,986309,1606983578346291780,imu_link,0.0016070379642769694,0.005644744262099266,-0.8699018955230713,0.49318990111351013,0.0,0.0,0.0,0.0,0.0,0.0,0.0,0.0,0.0,-120.8999252319336,0.4792155921459198,-0.4718867540359497,0.0,0.0,0.0,0.0,0.0,0.0,0.0,0.0,0.0,0.0031539408955723047,0.007836936973035336,0.022177638486027718,0.0,0.0,0.0,0.0,0.0,0.0,0.0,0.0,0.0
1606987178938059797,986310,1606983578346380946,imu_link,0.0016070379642769694,0.005644744262099266,-0.8699018955230713,0.49318990111351013,0.0,0.0,0.0,0.0,0.0,0.0,0.0,0.0,0.0,-120.8999252319336,0.4792155921459198,-0.4718867540359497,0.0,0.0,0.0,0.0,0.0,0.0,0.0,0.0,0.0,0.0031539408955723047,0.007836936973035336,0.022177638486027718,0.0,0.0,0.0,0.0,0.0,0.0,0.0,0.0,0.0
1606987178938951577,986311,1606983578346462626,imu_link,0.001608184538781643,0.005645708180963993,-0.86989825963974,0.4931963384151459,0.0,0.0,0.0,0.0,0.0,0.0,0.0,0.0,0.0,-120.89907836914062,0.4793878495693207,-0.4719145596027374,0.0,0.0,0.0,0.0,0.0,0.0,0.0,0.0,0.0,0.017633723095059395,0.002125220373272896,-0.005630826111882925,0.0,0.0,0.0,0.0,0.0,0.0,0.0,0.0,0.0
1606987178938974993,986312,1606983578346546064,imu_link,0.001608184538781643,0.005645708180963993,-0.86989825963974,0.4931963384151459,0.0,0.0,0.0,0.0,0.0,0.0,0.0,0.0,0.0,-120.89907836914062,0.4793878495693207,-0.4719145596027374,0.0,0.0,0.0,0.0,0.0,0.0,0.0,0.0,0.0,0.017633723095059395,0.002125220373272896,-0.005630826111882925,0.0,0.0,0.0,0.0,0.0,0.0,0.0,0.0,0.0
1606987178938995383,986313,1606983578346623212,imu_link,0.0016092386795207858,0.005645792465656996,-0.8698980212211609,0.4931967854499817,0.0,0.0,0.0,0.0,0.0,0.0,0.0,0.0,0.0,-120.8990249633789,0.4794979393482208,-0.4718630611896515,0.0,0.0,0.0,0.0,0.0,0.0,0.0,0.0,0.0,0.023731674998998642,0.018033070489764214,-0.003242744831368327,0.0,0.0,0.0,0.0,0.0,0.0,0.0,0.0,0.0
1606987178947242225,986314,1606983578359585150,imu_link,0.0016092386795207858,0.005645792465656996,-0.8698980212211609,0.4931967854499817,0.0,0.0,0.0,0.0,0.0,0.0,0.0,0.0,0.0,-120.8990249633789,0.4794979393482208,-0.4718630611896515,0.0,0.0,0.0,0.0,0.0,0.0,0.0,0.0,0.0,0.023731674998998642,0.018033070489764214,-0.003242744831368327,0.0,0.0,0.0,0.0,0.0,0.0,0.0,0.0,0.0
1606987178948909806,986315,1606983578359723786,imu_link,0.0016109251882880926,0.005653047934174538,-0.8698946237564087,0.4932025372982025,0.0,0.0,0.0,0.0,0.0,0.0,0.0,0.0,0.0,-120.89826202392578,0.48007920384407043,-0.4724879264831543,0.0,0.0,0.0,0.0,0.0,0.0,0.0,0.0,0.0,0.015535037033259869,0.024548925459384918,-0.00088816590141505,0.0,0.0,0.0,0.0,0.0,0.0,0.0,0.0,0.0
1606987178948930939,986316,1606983578359908468,imu_link,0.0016109251882880926,0.005653047934174538,-0.8698946237564087,0.4932025372982025,0.0,0.0,0.0,0.0,0.0,0.0,0.0,0.0,0.0,-120.89826202392578,0.48007920384407043,-0.4724879264831543,0.0,0.0,0.0,0.0,0.0,0.0,0.0,0.0,0.0,0.015535037033259869,0.024548925459384918,-0.00088816590141505,0.0,0.0,0.0,0.0,0.0,0.0,0.0,0.0,0.0
1606987178948941502,986317,1606983578360034891,imu_link,0.0016111296135932207,0.005653806496411562,-0.8698950409889221,0.49320194125175476,0.0,0.0,0.0,0.0,0.0,0.0,0.0,0.0,0.0,-120.89834594726562,0.48014214634895325,-0.47255226969718933,0.0,0.0,0.0,0.0,0.0,0.0,0.0,0.0,0.0,0.008154306560754776,0.0009820053819566965,-0.01637081615626812,0.0,0.0,0.0,0.0,0.0,0.0,0.0,0.0,0.0
1606987178948950571,986318,1606983578360129324,imu_link,0.0016111296135932207,0.005653806496411562,-0.8698950409889221,0.49320194125175476,0.0,0.0,0.0,0.0,0.0,0.0,0.0,0.0,0.0,-120.89834594726562,0.48014214634895325,-0.47255226969718933,0.0,0.0,0.0,0.0,0.0,0.0,0.0,0.0,0.0,0.008154306560754776,0.0009820053819566965,-0.01637081615626812,0.0,0.0,0.0,0.0,0.0,0.0,0.0,0.0,0.0
1606987178948962777,986319,1606983578360216867,imu_link,0.0016145054250955582,0.005654485430568457,-0.8698911666870117,0.493208646774292,0.0,0.0,0.0,0.0,0.0,0.0,0.0,0.0,0.0,-120.89745330810547,0.48052069544792175,-0.4724254310131073,0.0,0.0,0.0,0.0,0.0,0.0,0.0,0.0,0.0,0.011096447706222534,-0.010941924527287483,0.002574129030108452,0.0,0.0,0.0,0.0,0.0,0.0,0.0,0.0,0.0
1606987178948971747,986320,1606983578360321855,imu_link,0.0016145054250955582,0.005654485430568457,-0.8698911666870117,0.493208646774292,0.0,0.0,0.0,0.0,0.0,0.0,0.0,0.0,0.0,-120.89745330810547,0.48052069544792175,-0.4724254310131073,0.0,0.0,0.0,0.0,0.0,0.0,0.0,0.0,0.0,0.011096447706222534,-0.010941924527287483,0.002574129030108452,0.0,0.0,0.0,0.0,0.0,0.0,0.0,0.0,0.0
1606987178948983768,986321,1606983578360406932,imu_link,0.0016133927274495363,0.00565401092171669,-0.8698898553848267,0.49321097135543823,0.0,0.0,0.0,0.0,0.0,0.0,0.0,0.0,0.0,-120.89715576171875,0.4803842008113861,-0.47243979573249817,0.0,0.0,0.0,0.0,0.0,0.0,0.0,0.0,0.0,0.015850836411118507,-0.012209834530949593,0.02007889188826084,0.0,0.0,0.0,0.0,0.0,0.0,0.0,0.0,0.0
1606987178948991663,986322,1606983578360480783,imu_link,0.0016133927274495363,0.00565401092171669,-0.8698898553848267,0.49321097135543823,0.0,0.0,0.0,0.0,0.0,0.0,0.0,0.0,0.0,-120.89715576171875,0.4803842008113861,-0.47243979573249817,0.0,0.0,0.0,0.0,0.0,0.0,0.0,0.0,0.0,0.015850836411118507,-0.012209834530949593,0.02007889188826084,0.0,0.0,0.0,0.0,0.0,0.0,0.0,0.0,0.0
1606987178949023619,986323,1606983578360560698,imu_link,0.0016181966057047248,0.005651465151458979,-0.8698877692222595,0.49321475625038147,0.0,0.0,0.0,0.0,0.0,0.0,0.0,0.0,0.0,-120.89666748046875,0.48072129487991333,-0.4719124138355255,0.0,0.0,0.0,0.0,0.0,0.0,0.0,0.0,0.0,0.011984881944954395,4.618661478161812e-06,0.015699975192546844,0.0,0.0,0.0,0.0,0.0,0.0,0.0,0.0,0.0
1606987178949040497,986324,1606983578360648897,imu_link,0.0016181966057047248,0.005651465151458979,-0.8698877692222595,0.49321475625038147,0.0,0.0,0.0,0.0,0.0,0.0,0.0,0.0,0.0,-120.89666748046875,0.48072129487991333,-0.4719124138355255,0.0,0.0,0.0,0.0,0.0,0.0,0.0,0.0,0.0,0.011984881944954395,4.618661478161812e-06,0.015699975192546844,0.0,0.0,0.0,0.0,0.0,0.0,0.0,0.0,0.0
1606987178958794782,986325,1606983578372863249,imu_link,0.0016167269786819816,0.005652206484228373,-0.869887113571167,0.493215948343277,0.0,0.0,0.0,0.0,0.0,0.0,0.0,0.0,0.0,-120.89649963378906,0.48061734437942505,-0.4720686972141266,0.0,0.0,0.0,0.0,0.0,0.0,0.0,0.0,0.0,-0.004180384334176779,0.006860740017145872,0.019977523013949394,0.0,0.0,0.0,0.0,0.0,0.0,0.0,0.0,0.0
1606987178962926691,986326,1606983578372944228,imu_link,0.0016167269786819816,0.005652206484228373,-0.869887113571167,0.493215948343277,0.0,0.0,0.0,0.0,0.0,0.0,0.0,0.0,0.0,-120.89649963378906,0.48061734437942505,-0.4720686972141266,0.0,0.0,0.0,0.0,0.0,0.0,0.0,0.0,0.0,-0.004180384334176779,0.006860740017145872,0.019977523013949394,0.0,0.0,0.0,0.0,0.0,0.0,0.0,0.0,0.0
1606987178962975184,986327,1606983578373001486,imu_link,0.001618382753804326,0.005654026288539171,-0.8698859214782715,0.4932180345058441,0.0,0.0,0.0,0.0,0.0,0.0,0.0,0.0,0.0,-120.89622497558594,0.4808863699436188,-0.4721554219722748,0.0,0.0,0.0,0.0,0.0,0.0,0.0,0.0,0.0,-0.02532063238322735,0.005478376522660255,0.01245441846549511,0.0,0.0,0.0,0.0,0.0,0.0,0.0,0.0,0.0
1606987178962996774,986328,1606983578373050027,imu_link,0.001618382753804326,0.005654026288539171,-0.8698859214782715,0.4932180345058441,0.0,0.0,0.0,0.0,0.0,0.0,0.0,0.0,0.0,-120.89622497558594,0.4808863699436188,-0.4721554219722748,0.0,0.0,0.0,0.0,0.0,0.0,0.0,0.0,0.0,-0.02532063238322735,0.005478376522660255,0.01245441846549511,0.0,0.0,0.0,0.0,0.0,0.0,0.0,0.0,0.0
1606987178963036049,986329,1606983578373097302,imu_link,0.0016180876409634948,0.0056533897295594215,-0.8698858022689819,0.49321818351745605,0.0,0.0,0.0,0.0,0.0,0.0,0.0,0.0,0.0,-120.89620208740234,0.48082107305526733,-0.4721085727214813,0.0,0.0,0.0,0.0,0.0,0.0,0.0,0.0,0.0,-0.015386928804218769,-0.002875868696719408,0.017871908843517303,0.0,0.0,0.0,0.0,0.0,0.0,0.0,0.0,0.0
1606987178963047279,986330,1606983578373155562,imu_link,0.0016180876409634948,0.0056533897295594215,-0.8698858022689819,0.49321818351745605,0.0,0.0,0.0,0.0,0.0,0.0,0.0,0.0,0.0,-120.89620208740234,0.48082107305526733,-0.4721085727214813,0.0,0.0,0.0,0.0,0.0,0.0,0.0,0.0,0.0,-0.015386928804218769,-0.002875868696719408,0.017871908843517303,0.0,0.0,0.0,0.0,0.0,0.0,0.0,0.0,0.0
1606987178963061916,986331,1606983578373207070,imu_link,0.0016165570123121142,0.005650985054671764,-0.8698908090591431,0.4932093322277069,0.0,0.0,0.0,0.0,0.0,0.0,0.0,0.0,0.0,-120.89737701416016,0.48052772879600525,-0.47196027636528015,0.0,0.0,0.0,0.0,0.0,0.0,0.0,0.0,0.0,-0.004184498451650143,-0.009533684700727463,0.025237737223505974,0.0,0.0,0.0,0.0,0.0,0.0,0.0,0.0,0.0
1606987178963070529,986332,1606983578373255036,imu_link,0.0016165570123121142,0.005650985054671764,-0.8698908090591431,0.4932093322277069,0.0,0.0,0.0,0.0,0.0,0.0,0.0,0.0,0.0,-120.89737701416016,0.48052772879600525,-0.47196027636528015,0.0,0.0,0.0,0.0,0.0,0.0,0.0,0.0,0.0,-0.004184498451650143,-0.009533684700727463,0.025237737223505974,0.0,0.0,0.0,0.0,0.0,0.0,0.0,0.0,0.0
1606987178963076272,986333,1606983578373309407,imu_link,0.0016158745856955647,0.0056526148691773415,-0.8698905110359192,0.4932098686695099,0.0,0.0,0.0,0.0,0.0,0.0,0.0,0.0,0.0,-120.89729309082031,0.48055213689804077,-0.4721609652042389,0.0,0.0,0.0,0.0,0.0,0.0,0.0,0.0,0.0,0.0017119059339165688,-0.005027820356190205,0.004250450059771538,0.0,0.0,0.0,0.0,0.0,0.0,0.0,0.0,0.0
1606987178963084505,986334,1606983578373361963,imu_link,0.0016158745856955647,0.0056526148691773415,-0.8698905110359192,0.4932098686695099,0.0,0.0,0.0,0.0,0.0,0.0,0.0,0.0,0.0,-120.89729309082031,0.48055213689804077,-0.4721609652042389,0.0,0.0,0.0,0.0,0.0,0.0,0.0,0.0,0.0,0.0017119059339165688,-0.005027820356190205,0.004250450059771538,0.0,0.0,0.0,0.0,0.0,0.0,0.0,0.0,0.0
1606987178963096868,986335,1606983578373413416,imu_link,0.0016162506071850657,0.005649438127875328,-0.8698951005935669,0.49320176243782043,0.0,0.0,0.0,0.0,0.0,0.0,0.0,0.0,0.0,-120.89836883544922,0.48040565848350525,-0.4718274772167206,0.0,0.0,0.0,0.0,0.0,0.0,0.0,0.0,0.0,0.018000369891524315,-0.00030760379740968347,0.0036991771776229143,0.0,0.0,0.0,0.0,0.0,0.0,0.0,0.0,0.0
1606987178971812578,986336,1606983578385918364,imu_link,0.0016162506071850657,0.005649438127875328,-0.8698951005935669,0.49320176243782043,0.0,0.0,0.0,0.0,0.0,0.0,0.0,0.0,0.0,-120.89836883544922,0.48040565848350525,-0.4718274772167206,0.0,0.0,0.0,0.0,0.0,0.0,0.0,0.0,0.0,0.018000369891524315,-0.00030760379740968347,0.0036991771776229143,0.0,0.0,0.0,0.0,0.0,0.0,0.0,0.0,0.0
1606987178991932201,986337,1606983578386035884,imu_link,0.0016156915808096528,0.0056483070366084576,-0.8698954582214355,0.4932011663913727,0.0,0.0,0.0,0.0,0.0,0.0,0.0,0.0,0.0,-120.8984375,0.48028564453125,-0.47174668312072754,0.0,0.0,0.0,0.0,0.0,0.0,0.0,0.0,0.0,0.007239327300339937,-0.009796751663088799,0.00853793416172266,0.0,0.0,0.0,0.0,0.0,0.0,0.0,0.0,0.0
1606987178991954902,986338,1606983578386171831,imu_link,0.0016156915808096528,0.0056483070366084576,-0.8698954582214355,0.4932011663913727,0.0,0.0,0.0,0.0,0.0,0.0,0.0,0.0,0.0,-120.8984375,0.48028564453125,-0.47174668312072754,0.0,0.0,0.0,0.0,0.0,0.0,0.0,0.0,0.0,0.007239327300339937,-0.009796751663088799,0.00853793416172266,0.0,0.0,0.0,0.0,0.0,0.0,0.0,0.0,0.0
1606987178991967422,986339,1606983578386239904,imu_link,0.0016182156978175044,0.005647157318890095,-0.869894802570343,0.4932023286819458,0.0,0.0,0.0,0.0,0.0,0.0,0.0,0.0,0.0,-120.8982925415039,0.48047298192977905,-0.4714888334274292,0.0,0.0,0.0,0.0,0.0,0.0,0.0,0.0,0.0,0.0025988498236984015,0.002552180318161845,0.02620675042271614,0.0,0.0,0.0,0.0,0.0,0.0,0.0,0.0,0.0
1606987178991983545,986340,1606983578386301282,imu_link,0.0016182156978175044,0.005647157318890095,-0.869894802570343,0.4932023286819458,0.0,0.0,0.0,0.0,0.0,0.0,0.0,0.0,0.0,-120.8982925415039,0.48047298192977905,-0.4714888334274292,0.0,0.0,0.0,0.0,0.0,0.0,0.0,0.0,0.0,0.0025988498236984015,0.002552180318161845,0.02620675042271614,0.0,0.0,0.0,0.0,0.0,0.0,0.0,0.0,0.0
1606987178993441302,986341,1606983578386385421,imu_link,0.001616186578758061,0.005645619705319405,-0.8698949217796326,0.4932021200656891,0.0,0.0,0.0,0.0,0.0,0.0,0.0,0.0,0.0,-120.8983154296875,0.4801836609840393,-0.4714502990245819,0.0,0.0,0.0,0.0,0.0,0.0,0.0,0.0,0.0,-0.0016330851940438151,0.026875117793679237,0.027154428884387016,0.0,0.0,0.0,0.0,0.0,0.0,0.0,0.0,0.0
1606987178993458862,986342,1606983578386455074,imu_link,0.001616186578758061,0.005645619705319405,-0.8698949217796326,0.4932021200656891,0.0,0.0,0.0,0.0,0.0,0.0,0.0,0.0,0.0,-120.8983154296875,0.4801836609840393,-0.4714502990245819,0.0,0.0,0.0,0.0,0.0,0.0,0.0,0.0,0.0,-0.0016330851940438151,0.026875117793679237,0.027154428884387016,0.0,0.0,0.0,0.0,0.0,0.0,0.0,0.0,0.0
1606987178993475461,986343,1606983578386516320,imu_link,0.001611677696928382,0.005650305654853582,-0.8698952794075012,0.4932016134262085,0.0,0.0,0.0,0.0,0.0,0.0,0.0,0.0,0.0,-120.89838409423828,0.47999876737594604,-0.4721725583076477,0.0,0.0,0.0,0.0,0.0,0.0,0.0,0.0,0.0,0.00317462463863194,0.01809968426823616,0.023766525089740753,0.0,0.0,0.0,0.0,0.0,0.0,0.0,0.0,0.0
1606987178993513644,986344,1606983578386578584,imu_link,0.001611677696928382,0.005650305654853582,-0.8698952794075012,0.4932016134262085,0.0,0.0,0.0,0.0,0.0,0.0,0.0,0.0,0.0,-120.89838409423828,0.47999876737594604,-0.4721725583076477,0.0,0.0,0.0,0.0,0.0,0.0,0.0,0.0,0.0,0.00317462463863194,0.01809968426823616,0.023766525089740753,0.0,0.0,0.0,0.0,0.0,0.0,0.0,0.0,0.0
1606987178994984818,986345,1606983578386638126,imu_link,0.0016126418486237526,0.005648999009281397,-0.8698962926864624,0.49319979548454285,0.0,0.0,0.0,0.0,0.0,0.0,0.0,0.0,0.0,-120.89862823486328,0.48002007603645325,-0.4719887673854828,0.0,0.0,0.0,0.0,0.0,0.0,0.0,0.0,0.0,-0.00222270330414176,0.002516878070309758,0.02190094068646431,0.0,0.0,0.0,0.0,0.0,0.0,0.0,0.0,0.0
1606987178995543566,986346,1606983578399738984,imu_link,0.0016126418486237526,0.005648999009281397,-0.8698962926864624,0.49319979548454285,0.0,0.0,0.0,0.0,0.0,0.0,0.0,0.0,0.0,-120.89862823486328,0.48002007603645325,-0.4719887673854828,0.0,0.0,0.0,0.0,0.0,0.0,0.0,0.0,0.0,-0.00222270330414176,0.002516878070309758,0.02190094068646431,0.0,0.0,0.0,0.0,0.0,0.0,0.0,0.0,0.0
1606987178995590828,986347,1606983578399864123,imu_link,0.0016122575616464019,0.00564841041341424,-0.8698947429656982,0.4932025074958801,0.0,0.0,0.0,0.0,0.0,0.0,0.0,0.0,0.0,-120.89827728271484,0.479949951171875,-0.47195035219192505,0.0,0.0,0.0,0.0,0.0,0.0,0.0,0.0,0.0,-0.005781377665698528,-0.004309047479182482,0.014534049667418003,0.0,0.0,0.0,0.0,0.0,0.0,0.0,0.0,0.0
1606987178995624107,986348,1606983578400003949,imu_link,0.0016122575616464019,0.00564841041341424,-0.8698947429656982,0.4932025074958801,0.0,0.0,0.0,0.0,0.0,0.0,0.0,0.0,0.0,-120.89827728271484,0.479949951171875,-0.47195035219192505,0.0,0.0,0.0,0.0,0.0,0.0,0.0,0.0,0.0,-0.005781377665698528,-0.004309047479182482,0.014534049667418003,0.0,0.0,0.0,0.0,0.0,0.0,0.0,0.0,0.0
1606987178995637518,986349,1606983578400086460,imu_link,0.001613084226846695,0.005648801568895578,-0.8698951005935669,0.4932018518447876,0.0,0.0,0.0,0.0,0.0,0.0,0.0,0.0,0.0,-120.89836120605469,0.4800540506839752,-0.4719429314136505,0.0,0.0,0.0,0.0,0.0,0.0,0.0,0.0,0.0,0.002454392844811082,-0.008229867555201054,0.004796821624040604,0.0,0.0,0.0,0.0,0.0,0.0,0.0,0.0,0.0
1606987178995656070,986350,1606983578400169043,imu_link,0.001613084226846695,0.005648801568895578,-0.8698951005935669,0.4932018518447876,0.0,0.0,0.0,0.0,0.0,0.0,0.0,0.0,0.0,-120.89836120605469,0.4800540506839752,-0.4719429314136505,0.0,0.0,0.0,0.0,0.0,0.0,0.0,0.0,0.0,0.002454392844811082,-0.008229867555201054,0.004796821624040604,0.0,0.0,0.0,0.0,0.0,0.0,0.0,0.0,0.0
1606987178995671670,986351,1606983578400247015,imu_link,0.0016143150860443711,0.005646039731800556,-0.869892954826355,0.49320560693740845,0.0,0.0,0.0,0.0,0.0,0.0,0.0,0.0,0.0,-120.8978500366211,0.48002272844314575,-0.47159603238105774,0.0,0.0,0.0,0.0,0.0,0.0,0.0,0.0,0.0,-0.003497373778373003,-0.015035746619105339,-0.007135394029319286,0.0,0.0,0.0,0.0,0.0,0.0,0.0,0.0,0.0
1606987178995683028,986352,1606983578400342636,imu_link,0.0016143150860443711,0.005646039731800556,-0.869892954826355,0.49320560693740845,0.0,0.0,0.0,0.0,0.0,0.0,0.0,0.0,0.0,-120.8978500366211,0.48002272844314575,-0.47159603238105774,0.0,0.0,0.0,0.0,0.0,0.0,0.0,0.0,0.0,-0.003497373778373003,-0.015035746619105339,-0.007135394029319286,0.0,0.0,0.0,0.0,0.0,0.0,0.0,0.0,0.0
1606987178995750100,986353,1606983578400416848,imu_link,0.0016139777144417167,0.005646350793540478,-0.8698930144309998,0.49320554733276367,0.0,0.0,0.0,0.0,0.0,0.0,0.0,0.0,0.0,-120.89786529541016,0.480006605386734,-0.47164610028266907,0.0,0.0,0.0,0.0,0.0,0.0,0.0,0.0,0.0,-0.011890101246535778,-0.004362569190561771,0.0015411453787237406,0.0,0.0,0.0,0.0,0.0,0.0,0.0,0.0,0.0
1606987178999284658,986354,1606983578400485254,imu_link,0.0016139777144417167,0.005646350793540478,-0.8698930144309998,0.49320554733276367,0.0,0.0,0.0,0.0,0.0,0.0,0.0,0.0,0.0,-120.89786529541016,0.480006605386734,-0.47164610028266907,0.0,0.0,0.0,0.0,0.0,0.0,0.0,0.0,0.0,-0.011890101246535778,-0.004362569190561771,0.0015411453787237406,0.0,0.0,0.0,0.0,0.0,0.0,0.0,0.0,0.0
1606987178999315860,986355,1606983578400559502,imu_link,0.0016120834043249488,0.005644113291054964,-0.8698912262916565,0.49320873618125916,0.0,0.0,0.0,0.0,0.0,0.0,0.0,0.0,0.0,-120.89744567871094,0.47969308495521545,-0.4715282618999481,0.0,0.0,0.0,0.0,0.0,0.0,0.0,0.0,0.0,-0.012161308899521828,0.012899573892354965,0.002272333251312375,0.0,0.0,0.0,0.0,0.0,0.0,0.0,0.0,0.0
1606987178999336928,986356,1606983578400635143,imu_link,0.0016120834043249488,0.005644113291054964,-0.8698912262916565,0.49320873618125916,0.0,0.0,0.0,0.0,0.0,0.0,0.0,0.0,0.0,-120.89744567871094,0.47969308495521545,-0.4715282618999481,0.0,0.0,0.0,0.0,0.0,0.0,0.0,0.0,0.0,-0.012161308899521828,0.012899573892354965,0.002272333251312375,0.0,0.0,0.0,0.0,0.0,0.0,0.0,0.0,0.0
1606987179002335959,986357,1606983578413186506,imu_link,0.0016146044945344329,0.005645525176078081,-0.8698905110359192,0.49320995807647705,0.0,0.0,0.0,0.0,0.0,0.0,0.0,0.0,0.0,-120.89729309082031,0.48002487421035767,-0.47152596712112427,0.0,0.0,0.0,0.0,0.0,0.0,0.0,0.0,0.0,-0.0023924694396555424,0.010115275159478188,0.005574866663664579,0.0,0.0,0.0,0.0,0.0,0.0,0.0,0.0,0.0
1606987179002350267,986358,1606983578413312701,imu_link,0.0016146044945344329,0.005645525176078081,-0.8698905110359192,0.49320995807647705,0.0,0.0,0.0,0.0,0.0,0.0,0.0,0.0,0.0,-120.89729309082031,0.48002487421035767,-0.47152596712112427,0.0,0.0,0.0,0.0,0.0,0.0,0.0,0.0,0.0,-0.0023924694396555424,0.010115275159478188,0.005574866663664579,0.0,0.0,0.0,0.0,0.0,0.0,0.0,0.0,0.0
1606987179002362302,986359,1606983578413457641,imu_link,0.0016119302017614245,0.005644898861646652,-0.8698878884315491,0.49321460723876953,0.0,0.0,0.0,0.0,0.0,0.0,0.0,0.0,0.0,-120.89667510986328,0.4797254204750061,-0.47161203622817993,0.0,0.0,0.0,0.0,0.0,0.0,0.0,0.0,0.0,-0.008947285823523998,0.002196616493165493,0.0044018980115652084,0.0,0.0,0.0,0.0,0.0,0.0,0.0,0.0,0.0
1606987179002369354,986360,1606983578413554037,imu_link,0.0016119302017614245,0.005644898861646652,-0.8698878884315491,0.49321460723876953,0.0,0.0,0.0,0.0,0.0,0.0,0.0,0.0,0.0,-120.89667510986328,0.4797254204750061,-0.47161203622817993,0.0,0.0,0.0,0.0,0.0,0.0,0.0,0.0,0.0,-0.008947285823523998,0.002196616493165493,0.0044018980115652084,0.0,0.0,0.0,0.0,0.0,0.0,0.0,0.0,0.0
1606987179005183963,986361,1606983578413625108,imu_link,0.0016112651210278273,0.005645251367241144,-0.8698880672454834,0.49321433901786804,0.0,0.0,0.0,0.0,0.0,0.0,0.0,0.0,0.0,-120.8967056274414,0.4796788692474365,-0.471684992313385,0.0,0.0,0.0,0.0,0.0,0.0,0.0,0.0,0.0,-5.7667799410410225e-05,-0.0024021733552217484,0.01712321862578392,0.0,0.0,0.0,0.0,0.0,0.0,0.0,0.0,0.0
1606987179005203074,986362,1606983578413698162,imu_link,0.0016112651210278273,0.005645251367241144,-0.8698880672454834,0.49321433901786804,0.0,0.0,0.0,0.0,0.0,0.0,0.0,0.0,0.0,-120.8967056274414,0.4796788692474365,-0.471684992313385,0.0,0.0,0.0,0.0,0.0,0.0,0.0,0.0,0.0,-5.7667799410410225e-05,-0.0024021733552217484,0.01712321862578392,0.0,0.0,0.0,0.0,0.0,0.0,0.0,0.0,0.0
1606987179005227514,986363,1606983578413785817,imu_link,0.001609280239790678,0.005643132142722607,-0.8698825240135193,0.4932240843772888,0.0,0.0,0.0,0.0,0.0,0.0,0.0,0.0,0.0,-120.89542388916016,0.4793665111064911,-0.471580445766449,0.0,0.0,0.0,0.0,0.0,0.0,0.0,0.0,0.0,0.008039453066885471,-0.0028208449948579073,0.010356839746236801,0.0,0.0,0.0,0.0,0.0,0.0,0.0,0.0,0.0
1606987179005234813,986364,1606983578413855824,imu_link,0.001609280239790678,0.005643132142722607,-0.8698825240135193,0.4932240843772888,0.0,0.0,0.0,0.0,0.0,0.0,0.0,0.0,0.0,-120.89542388916016,0.4793665111064911,-0.471580445766449,0.0,0.0,0.0,0.0,0.0,0.0,0.0,0.0,0.0,0.008039453066885471,-0.0028208449948579073,0.010356839746236801,0.0,0.0,0.0,0.0,0.0,0.0,0.0,0.0,0.0
1606987179005246164,986365,1606983578413925952,imu_link,0.001611024490557611,0.005645196419209242,-0.8698832392692566,0.4932228922843933,0.0,0.0,0.0,0.0,0.0,0.0,0.0,0.0,0.0,-120.89558410644531,0.479656457901001,-0.4716883599758148,0.0,0.0,0.0,0.0,0.0,0.0,0.0,0.0,0.0,-0.017751717939972878,0.01299254223704338,0.00950719229876995,0.0,0.0,0.0,0.0,0.0,0.0,0.0,0.0,0.0
1606987179005255138,986366,1606983578414001749,imu_link,0.001611024490557611,0.005645196419209242,-0.8698832392692566,0.4932228922843933,0.0,0.0,0.0,0.0,0.0,0.0,0.0,0.0,0.0,-120.89558410644531,0.479656457901001,-0.4716883599758148,0.0,0.0,0.0,0.0,0.0,0.0,0.0,0.0,0.0,-0.017751717939972878,0.01299254223704338,0.00950719229876995,0.0,0.0,0.0,0.0,0.0,0.0,0.0,0.0,0.0
1606987179005264926,986367,1606983578414076205,imu_link,0.0016058746259659529,0.005648151971399784,-0.8698790669441223,0.49323025345802307,0.0,0.0,0.0,0.0,0.0,0.0,0.0,0.0,0.0,-120.89461517333984,0.47931408882141113,-0.4722699820995331,0.0,0.0,0.0,0.0,0.0,0.0,0.0,0.0,0.0,-0.02910572476685047,-0.002280373591929674,0.01172526367008686,0.0,0.0,0.0,0.0,0.0,0.0,0.0,0.0,0.0
1606987179014529753,986368,1606983578427140133,imu_link,0.0016058746259659529,0.005648151971399784,-0.8698790669441223,0.49323025345802307,0.0,0.0,0.0,0.0,0.0,0.0,0.0,0.0,0.0,-120.89461517333984,0.47931408882141113,-0.4722699820995331,0.0,0.0,0.0,0.0,0.0,0.0,0.0,0.0,0.0,-0.02910572476685047,-0.002280373591929674,0.01172526367008686,0.0,0.0,0.0,0.0,0.0,0.0,0.0,0.0,0.0
1606987179015195044,986369,1606983578427287895,imu_link,0.0016044912626966834,0.005646997597068548,-0.869877815246582,0.49323222041130066,0.0,0.0,0.0,0.0,0.0,0.0,0.0,0.0,0.0,-120.89434051513672,0.47911202907562256,-0.4722321033477783,0.0,0.0,0.0,0.0,0.0,0.0,0.0,0.0,0.0,-0.024838436394929886,-0.012167904525995255,0.0046199713833630085,0.0,0.0,0.0,0.0,0.0,0.0,0.0,0.0,0.0
1606987179015230136,986370,1606983578427439360,imu_link,0.0016044912626966834,0.005646997597068548,-0.869877815246582,0.49323222041130066,0.0,0.0,0.0,0.0,0.0,0.0,0.0,0.0,0.0,-120.89434051513672,0.47911202907562256,-0.4722321033477783,0.0,0.0,0.0,0.0,0.0,0.0,0.0,0.0,0.0,-0.024838436394929886,-0.012167904525995255,0.0046199713833630085,0.0,0.0,0.0,0.0,0.0,0.0,0.0,0.0,0.0
1606987179015247619,986371,1606983578427531498,imu_link,0.0015992657281458378,0.005640983581542969,-0.8698807954788208,0.49322715401649475,0.0,0.0,0.0,0.0,0.0,0.0,0.0,0.0,0.0,-120.89501190185547,0.4782484173774719,-0.4719306230545044,0.0,0.0,0.0,0.0,0.0,0.0,0.0,0.0,0.0,-0.011783337220549583,-0.0013298786943778396,0.021659797057509422,0.0,0.0,0.0,0.0,0.0,0.0,0.0,0.0,0.0
1606987179015284258,986372,1606983578427609338,imu_link,0.0015992657281458378,0.005640983581542969,-0.8698807954788208,0.49322715401649475,0.0,0.0,0.0,0.0,0.0,0.0,0.0,0.0,0.0,-120.89501190185547,0.4782484173774719,-0.4719306230545044,0.0,0.0,0.0,0.0,0.0,0.0,0.0,0.0,0.0,-0.011783337220549583,-0.0013298786943778396,0.021659797057509422,0.0,0.0,0.0,0.0,0.0,0.0,0.0,0.0,0.0
1606987179015311437,986373,1606983578427712713,imu_link,0.0016005787765607238,0.005642528645694256,-0.8698807954788208,0.49322718381881714,0.0,0.0,0.0,0.0,0.0,0.0,0.0,0.0,0.0,-120.89501190185547,0.4784666895866394,-0.47201043367385864,0.0,0.0,0.0,0.0,0.0,0.0,0.0,0.0,0.0,0.014178239740431309,0.009669383987784386,0.02886081300675869,0.0,0.0,0.0,0.0,0.0,0.0,0.0,0.0,0.0
1606987179015344662,986374,1606983578427812133,imu_link,0.0016005787765607238,0.005642528645694256,-0.8698807954788208,0.49322718381881714,0.0,0.0,0.0,0.0,0.0,0.0,0.0,0.0,0.0,-120.89501190185547,0.4784666895866394,-0.47201043367385864,0.0,0.0,0.0,0.0,0.0,0.0,0.0,0.0,0.0,0.014178239740431309,0.009669383987784386,0.02886081300675869,0.0,0.0,0.0,0.0,0.0,0.0,0.0,0.0,0.0
1606987179015358971,986375,1606983578427892704,imu_link,0.0016024382784962654,0.005646421108394861,-0.8698838949203491,0.49322161078453064,0.0,0.0,0.0,0.0,0.0,0.0,0.0,0.0,0.0,-120.895751953125,0.4788690209388733,-0.47229650616645813,0.0,0.0,0.0,0.0,0.0,0.0,0.0,0.0,0.0,0.004925666376948357,-0.00031125894747674465,0.022896891459822655,0.0,0.0,0.0,0.0,0.0,0.0,0.0,0.0,0.0
1606987179015378125,986376,1606983578427977069,imu_link,0.0016024382784962654,0.005646421108394861,-0.8698838949203491,0.49322161078453064,0.0,0.0,0.0,0.0,0.0,0.0,0.0,0.0,0.0,-120.895751953125,0.4788690209388733,-0.47229650616645813,0.0,0.0,0.0,0.0,0.0,0.0,0.0,0.0,0.0,0.004925666376948357,-0.00031125894747674465,0.022896891459822655,0.0,0.0,0.0,0.0,0.0,0.0,0.0,0.0,0.0
1606987179018645351,986377,1606983578428062342,imu_link,0.0016023075440898538,0.0056464774534106255,-0.8698845505714417,0.4932204782962799,0.0,0.0,0.0,0.0,0.0,0.0,0.0,0.0,0.0,-120.8958969116211,0.4788585603237152,-0.4723101258277893,0.0,0.0,0.0,0.0,0.0,0.0,0.0,0.0,0.0,-0.00428656255826354,-0.013132346794009209,0.015434305183589458,0.0,0.0,0.0,0.0,0.0,0.0,0.0,0.0,0.0
1606987179018653313,986378,1606983578428146201,imu_link,0.0016023075440898538,0.0056464774534106255,-0.8698845505714417,0.4932204782962799,0.0,0.0,0.0,0.0,0.0,0.0,0.0,0.0,0.0,-120.8958969116211,0.4788585603237152,-0.4723101258277893,0.0,0.0,0.0,0.0,0.0,0.0,0.0,0.0,0.0,-0.00428656255826354,-0.013132346794009209,0.015434305183589458,0.0,0.0,0.0,0.0,0.0,0.0,0.0,0.0,0.0
1606987179026514202,986379,1606983578440486114,imu_link,0.0016030623810365796,0.00564312469214201,-0.869884729385376,0.4932202398777008,0.0,0.0,0.0,0.0,0.0,0.0,0.0,0.0,0.0,-120.89592742919922,0.47874414920806885,-0.4719332754611969,0.0,0.0,0.0,0.0,0.0,0.0,0.0,0.0,0.0,0.0007556356722488999,-0.010731926187872887,0.010252642445266247,0.0,0.0,0.0,0.0,0.0,0.0,0.0,0.0,0.0
1606987179061161102,986380,1606983578440626349,imu_link,0.0016030623810365796,0.00564312469214201,-0.869884729385376,0.4932202398777008,0.0,0.0,0.0,0.0,0.0,0.0,0.0,0.0,0.0,-120.89592742919922,0.47874414920806885,-0.4719332754611969,0.0,0.0,0.0,0.0,0.0,0.0,0.0,0.0,0.0,0.0007556356722488999,-0.010731926187872887,0.010252642445266247,0.0,0.0,0.0,0.0,0.0,0.0,0.0,0.0,0.0
1606987179061184917,986381,1606983578440820247,imu_link,0.0016041973140090704,0.005643053445965052,-0.8698852062225342,0.49321937561035156,0.0,0.0,0.0,0.0,0.0,0.0,0.0,0.0,0.0,-120.89604949951172,0.4788528084754944,-0.47186246514320374,0.0,0.0,0.0,0.0,0.0,0.0,0.0,0.0,0.0,-0.00045117628178559244,-0.007576658856123686,0.001636255532503128,0.0,0.0,0.0,0.0,0.0,0.0,0.0,0.0,0.0
1606987179061220766,986382,1606983578440922369,imu_link,0.0016041973140090704,0.005643053445965052,-0.8698852062225342,0.49321937561035156,0.0,0.0,0.0,0.0,0.0,0.0,0.0,0.0,0.0,-120.89604949951172,0.4788528084754944,-0.47186246514320374,0.0,0.0,0.0,0.0,0.0,0.0,0.0,0.0,0.0,-0.00045117628178559244,-0.007576658856123686,0.001636255532503128,0.0,0.0,0.0,0.0,0.0,0.0,0.0,0.0,0.0
1606987179061245273,986383,1606983578440996621,imu_link,0.0016078539192676544,0.00564028462395072,-0.8698846101760864,0.49322041869163513,0.0,0.0,0.0,0.0,0.0,0.0,0.0,0.0,0.0,-120.8958969116211,0.47906142473220825,-0.47137928009033203,0.0,0.0,0.0,0.0,0.0,0.0,0.0,0.0,0.0,0.0107806995511055,0.005149209406226873,-0.02071147970855236,0.0,0.0,0.0,0.0,0.0,0.0,0.0,0.0,0.0
1606987179061257368,986384,1606983578441104485,imu_link,0.0016078539192676544,0.00564028462395072,-0.8698846101760864,0.49322041869163513,0.0,0.0,0.0,0.0,0.0,0.0,0.0,0.0,0.0,-120.8958969116211,0.47906142473220825,-0.47137928009033203,0.0,0.0,0.0,0.0,0.0,0.0,0.0,0.0,0.0,0.0107806995511055,0.005149209406226873,-0.02071147970855236,0.0,0.0,0.0,0.0,0.0,0.0,0.0,0.0,0.0
1606987179061276518,986385,1606983578441187437,imu_link,0.001604568213224411,0.00563967926427722,-0.8698850274085999,0.49321964383125305,0.0,0.0,0.0,0.0,0.0,0.0,0.0,0.0,0.0,-120.89601135253906,0.4786992371082306,-0.4715051054954529,0.0,0.0,0.0,0.0,0.0,0.0,0.0,0.0,0.0,0.017562801018357277,0.007103062234818935,-0.02580138109624386,0.0,0.0,0.0,0.0,0.0,0.0,0.0,0.0,0.0
1606987179061288467,986386,1606983578441264285,imu_link,0.001604568213224411,0.00563967926427722,-0.8698850274085999,0.49321964383125305,0.0,0.0,0.0,0.0,0.0,0.0,0.0,0.0,0.0,-120.89601135253906,0.4786992371082306,-0.4715051054954529,0.0,0.0,0.0,0.0,0.0,0.0,0.0,0.0,0.0,0.017562801018357277,0.007103062234818935,-0.02580138109624386,0.0,0.0,0.0,0.0,0.0,0.0,0.0,0.0,0.0
1606987179061314952,986387,1606983578441376896,imu_link,0.0016056422609835863,0.005641045514494181,-0.8698875904083252,0.4932152330875397,0.0,0.0,0.0,0.0,0.0,0.0,0.0,0.0,0.0,-120.89659881591797,0.4788811206817627,-0.47158291935920715,0.0,0.0,0.0,0.0,0.0,0.0,0.0,0.0,0.0,0.014999407343566418,0.00421944260597229,0.008765699341893196,0.0,0.0,0.0,0.0,0.0,0.0,0.0,0.0,0.0
1606987179061325252,986388,1606983578441465000,imu_link,0.0016056422609835863,0.005641045514494181,-0.8698875904083252,0.4932152330875397,0.0,0.0,0.0,0.0,0.0,0.0,0.0,0.0,0.0,-120.89659881591797,0.4788811206817627,-0.47158291935920715,0.0,0.0,0.0,0.0,0.0,0.0,0.0,0.0,0.0,0.014999407343566418,0.00421944260597229,0.008765699341893196,0.0,0.0,0.0,0.0,0.0,0.0,0.0,0.0,0.0
1606987179061334871,986389,1606983578441550187,imu_link,0.0016045981319621205,0.005641539581120014,-0.8698872923851013,0.4932156503200531,0.0,0.0,0.0,0.0,0.0,0.0,0.0,0.0,0.0,-120.89653015136719,0.47880518436431885,-0.4716910123825073,0.0,0.0,0.0,0.0,0.0,0.0,0.0,0.0,0.0,0.009107855148613453,0.00022604006517212838,0.020500410348176956,0.0,0.0,0.0,0.0,0.0,0.0,0.0,0.0,0.0
1606987179061356403,986390,1606983578453472664,imu_link,0.0016045981319621205,0.005641539581120014,-0.8698872923851013,0.4932156503200531,0.0,0.0,0.0,0.0,0.0,0.0,0.0,0.0,0.0,-120.89653015136719,0.47880518436431885,-0.4716910123825073,0.0,0.0,0.0,0.0,0.0,0.0,0.0,0.0,0.0,0.009107855148613453,0.00022604006517212838,0.020500410348176956,0.0,0.0,0.0,0.0,0.0,0.0,0.0,0.0,0.0
1606987179061368060,986391,1606983578453612112,imu_link,0.001606611767783761,0.0056427777744829655,-0.8698882460594177,0.4932139813899994,0.0,0.0,0.0,0.0,0.0,0.0,0.0,0.0,0.0,-120.89675903320312,0.47907504439353943,-0.47170159220695496,0.0,0.0,0.0,0.0,0.0,0.0,0.0,0.0,0.0,-0.005761286709457636,-0.01361168920993805,0.013786300085484982,0.0,0.0,0.0,0.0,0.0,0.0,0.0,0.0,0.0
1606987179061402610,986392,1606983578453790424,imu_link,0.001606611767783761,0.0056427777744829655,-0.8698882460594177,0.4932139813899994,0.0,0.0,0.0,0.0,0.0,0.0,0.0,0.0,0.0,-120.89675903320312,0.47907504439353943,-0.47170159220695496,0.0,0.0,0.0,0.0,0.0,0.0,0.0,0.0,0.0,-0.005761286709457636,-0.01361168920993805,0.013786300085484982,0.0,0.0,0.0,0.0,0.0,0.0,0.0,0.0,0.0
1606987179061424757,986393,1606983578453889489,imu_link,0.001607630867511034,0.005643901880830526,-0.8698885440826416,0.493213415145874,0.0,0.0,0.0,0.0,0.0,0.0,0.0,0.0,0.0,-120.8968276977539,0.479239821434021,-0.47175633907318115,0.0,0.0,0.0,0.0,0.0,0.0,0.0,0.0,0.0,-0.012894178740680218,-0.01031532697379589,0.010210603475570679,0.0,0.0,0.0,0.0,0.0,0.0,0.0,0.0,0.0
1606987179061437770,986394,1606983578453972586,imu_link,0.001607630867511034,0.005643901880830526,-0.8698885440826416,0.493213415145874,0.0,0.0,0.0,0.0,0.0,0.0,0.0,0.0,0.0,-120.8968276977539,0.479239821434021,-0.47175633907318115,0.0,0.0,0.0,0.0,0.0,0.0,0.0,0.0,0.0,-0.012894178740680218,-0.01031532697379589,0.010210603475570679,0.0,0.0,0.0,0.0,0.0,0.0,0.0,0.0,0.0
1606987179061455259,986395,1606983578454076060,imu_link,0.0016056818421930075,0.005641296040266752,-0.8698851466178894,0.4932195544242859,0.0,0.0,0.0,0.0,0.0,0.0,0.0,0.0,0.0,-120.8960189819336,0.47890162467956543,-0.47160330414772034,0.0,0.0,0.0,0.0,0.0,0.0,0.0,0.0,0.0,-0.0003746046277228743,0.020776839926838875,0.005723422858864069,0.0,0.0,0.0,0.0,0.0,0.0,0.0,0.0,0.0
1606987179061469099,986396,1606983578454158586,imu_link,0.0016056818421930075,0.005641296040266752,-0.8698851466178894,0.4932195544242859,0.0,0.0,0.0,0.0,0.0,0.0,0.0,0.0,0.0,-120.8960189819336,0.47890162467956543,-0.47160330414772034,0.0,0.0,0.0,0.0,0.0,0.0,0.0,0.0,0.0,-0.0003746046277228743,0.020776839926838875,0.005723422858864069,0.0,0.0,0.0,0.0,0.0,0.0,0.0,0.0,0.0
1606987179061483918,986397,1606983578454238151,imu_link,0.0016052966238930821,0.005641475785523653,-0.8698850870132446,0.4932195842266083,0.0,0.0,0.0,0.0,0.0,0.0,0.0,0.0,0.0,-120.89601135253906,0.4788733422756195,-0.47164300084114075,0.0,0.0,0.0,0.0,0.0,0.0,0.0,0.0,0.0,-0.008451437577605247,0.023669948801398277,-0.003821413731202483,0.0,0.0,0.0,0.0,0.0,0.0,0.0,0.0,0.0
1606987179061496002,986398,1606983578454320100,imu_link,0.0016052966238930821,0.005641475785523653,-0.8698850870132446,0.4932195842266083,0.0,0.0,0.0,0.0,0.0,0.0,0.0,0.0,0.0,-120.89601135253906,0.4788733422756195,-0.47164300084114075,0.0,0.0,0.0,0.0,0.0,0.0,0.0,0.0,0.0,-0.008451437577605247,0.023669948801398277,-0.003821413731202483,0.0,0.0,0.0,0.0,0.0,0.0,0.0,0.0,0.0
1606987179061519381,986399,1606983578454401864,imu_link,0.0016021383926272392,0.005643520969897509,-0.8698815703392029,0.4932258129119873,0.0,0.0,0.0,0.0,0.0,0.0,0.0,0.0,0.0,-120.89520263671875,0.4786774516105652,-0.4720219671726227,0.0,0.0,0.0,0.0,0.0,0.0,0.0,0.0,0.0,-0.022119050845503807,0.011742886155843735,0.00833727978169918,0.0,0.0,0.0,0.0,0.0,0.0,0.0,0.0,0.0
1606987179063816016,986400,1606983578467243359,imu_link,0.0016021383926272392,0.005643520969897509,-0.8698815703392029,0.4932258129119873,0.0,0.0,0.0,0.0,0.0,0.0,0.0,0.0,0.0,-120.89520263671875,0.4786774516105652,-0.4720219671726227,0.0,0.0,0.0,0.0,0.0,0.0,0.0,0.0,0.0,-0.022119050845503807,0.011742886155843735,0.00833727978169918,0.0,0.0,0.0,0.0,0.0,0.0,0.0,0.0,0.0
1606987179063839024,986401,1606983578467385232,imu_link,0.0016019772738218307,0.005643480457365513,-0.8698813319206238,0.49322623014450073,0.0,0.0,0.0,0.0,0.0,0.0,0.0,0.0,0.0,-120.89513397216797,0.47865936160087585,-0.4720267653465271,0.0,0.0,0.0,0.0,0.0,0.0,0.0,0.0,0.0,0.0056183477863669395,0.004158752504736185,0.024400619789958,0.0,0.0,0.0,0.0,0.0,0.0,0.0,0.0,0.0
1606987179063867094,986402,1606983578467553566,imu_link,0.0016019772738218307,0.005643480457365513,-0.8698813319206238,0.49322623014450073,0.0,0.0,0.0,0.0,0.0,0.0,0.0,0.0,0.0,-120.89513397216797,0.47865936160087585,-0.4720267653465271,0.0,0.0,0.0,0.0,0.0,0.0,0.0,0.0,0.0,0.0056183477863669395,0.004158752504736185,0.024400619789958,0.0,0.0,0.0,0.0,0.0,0.0,0.0,0.0,0.0
1606987179063884610,986403,1606983578467662273,imu_link,0.0016010040417313576,0.005645117722451687,-0.8698803782463074,0.4932278096675873,0.0,0.0,0.0,0.0,0.0,0.0,0.0,0.0,0.0,-120.89492797851562,0.47865572571754456,-0.4722442030906677,0.0,0.0,0.0,0.0,0.0,0.0,0.0,0.0,0.0,0.010631137527525425,-0.024775493890047073,0.017450591549277306,0.0,0.0,0.0,0.0,0.0,0.0,0.0,0.0,0.0
1606987179063897747,986404,1606983578467752853,imu_link,0.0016010040417313576,0.005645117722451687,-0.8698803782463074,0.4932278096675873,0.0,0.0,0.0,0.0,0.0,0.0,0.0,0.0,0.0,-120.89492797851562,0.47865572571754456,-0.4722442030906677,0.0,0.0,0.0,0.0,0.0,0.0,0.0,0.0,0.0,0.010631137527525425,-0.024775493890047073,0.017450591549277306,0.0,0.0,0.0,0.0,0.0,0.0,0.0,0.0,0.0
1606987179063923812,986405,1606983578467833454,imu_link,0.0016024702927097678,0.005644842516630888,-0.8698806762695312,0.4932273030281067,0.0,0.0,0.0,0.0,0.0,0.0,0.0,0.0,0.0,-120.8949966430664,0.47878608107566833,-0.47213417291641235,0.0,0.0,0.0,0.0,0.0,0.0,0.0,0.0,0.0,-0.011862734332680702,-0.027657028287649155,0.012859365902841091,0.0,0.0,0.0,0.0,0.0,0.0,0.0,0.0,0.0
1606987179063959705,986406,1606983578467943679,imu_link,0.0016024702927097678,0.005644842516630888,-0.8698806762695312,0.4932273030281067,0.0,0.0,0.0,0.0,0.0,0.0,0.0,0.0,0.0,-120.8949966430664,0.47878608107566833,-0.47213417291641235,0.0,0.0,0.0,0.0,0.0,0.0,0.0,0.0,0.0,-0.011862734332680702,-0.027657028287649155,0.012859365902841091,0.0,0.0,0.0,0.0,0.0,0.0,0.0,0.0,0.0
1606987179063968065,986407,1606983578468022116,imu_link,0.001602505217306316,0.005637990776449442,-0.8698790073394775,0.493230402469635,0.0,0.0,0.0,0.0,0.0,0.0,0.0,0.0,0.0,-120.89458465576172,0.4784039855003357,-0.4714474380016327,0.0,0.0,0.0,0.0,0.0,0.0,0.0,0.0,0.0,-0.008283383212983608,-0.0030661234632134438,0.007087264209985733,0.0,0.0,0.0,0.0,0.0,0.0,0.0,0.0,0.0
1606987179064948153,986408,1606983578468100462,imu_link,0.001602505217306316,0.005637990776449442,-0.8698790073394775,0.493230402469635,0.0,0.0,0.0,0.0,0.0,0.0,0.0,0.0,0.0,-120.89458465576172,0.4784039855003357,-0.4714474380016327,0.0,0.0,0.0,0.0,0.0,0.0,0.0,0.0,0.0,-0.008283383212983608,-0.0030661234632134438,0.007087264209985733,0.0,0.0,0.0,0.0,0.0,0.0,0.0,0.0,0.0
1606987179064961013,986409,1606983578468184717,imu_link,0.0016029493417590857,0.005638381466269493,-0.869879961013794,0.4932287931442261,0.0,0.0,0.0,0.0,0.0,0.0,0.0,0.0,0.0,-120.89480590820312,0.47846946120262146,-0.4714621603488922,0.0,0.0,0.0,0.0,0.0,0.0,0.0,0.0,0.0,-0.0039020534604787827,0.0029324989300221205,0.029664302244782448,0.0,0.0,0.0,0.0,0.0,0.0,0.0,0.0,0.0
1606987179064981078,986410,1606983578468257871,imu_link,0.0016029493417590857,0.005638381466269493,-0.869879961013794,0.4932287931442261,0.0,0.0,0.0,0.0,0.0,0.0,0.0,0.0,0.0,-120.89480590820312,0.47846946120262146,-0.4714621603488922,0.0,0.0,0.0,0.0,0.0,0.0,0.0,0.0,0.0,-0.0039020534604787827,0.0029324989300221205,0.029664302244782448,0.0,0.0,0.0,0.0,0.0,0.0,0.0,0.0,0.0
1606987179066493672,986411,1606983578480567590,imu_link,0.001602004049345851,0.005638500209897757,-0.8698776960372925,0.493232786655426,0.0,0.0,0.0,0.0,0.0,0.0,0.0,0.0,0.0,-120.89427185058594,0.4783841371536255,-0.4715252220630646,0.0,0.0,0.0,0.0,0.0,0.0,0.0,0.0,0.0,-0.012442292645573616,0.022451629862189293,0.03455667942762375,0.0,0.0,0.0,0.0,0.0,0.0,0.0,0.0,0.0
1606987179067028165,986412,1606983578480712064,imu_link,0.001602004049345851,0.005638500209897757,-0.8698776960372925,0.493232786655426,0.0,0.0,0.0,0.0,0.0,0.0,0.0,0.0,0.0,-120.89427185058594,0.4783841371536255,-0.4715252220630646,0.0,0.0,0.0,0.0,0.0,0.0,0.0,0.0,0.0,-0.012442292645573616,0.022451629862189293,0.03455667942762375,0.0,0.0,0.0,0.0,0.0,0.0,0.0,0.0,0.0
1606987179067050290,986413,1606983578480851457,imu_link,0.001603216165676713,0.005638964008539915,-0.8698777556419373,0.49323248863220215,0.0,0.0,0.0,0.0,0.0,0.0,0.0,0.0,0.0,-120.89431762695312,0.47853097319602966,-0.4715031385421753,0.0,0.0,0.0,0.0,0.0,0.0,0.0,0.0,0.0,-0.0030187948141247034,0.02808219939470291,0.02479902282357216,0.0,0.0,0.0,0.0,0.0,0.0,0.0,0.0,0.0
1606987179067063019,986414,1606983578480931046,imu_link,0.001603216165676713,0.005638964008539915,-0.8698777556419373,0.49323248863220215,0.0,0.0,0.0,0.0,0.0,0.0,0.0,0.0,0.0,-120.89431762695312,0.47853097319602966,-0.4715031385421753,0.0,0.0,0.0,0.0,0.0,0.0,0.0,0.0,0.0,-0.0030187948141247034,0.02808219939470291,0.02479902282357216,0.0,0.0,0.0,0.0,0.0,0.0,0.0,0.0,0.0
1606987179067072022,986415,1606983578481010535,imu_link,0.001599511713720858,0.005644179880619049,-0.8698760867118835,0.49323558807373047,0.0,0.0,0.0,0.0,0.0,0.0,0.0,0.0,0.0,-120.8939208984375,0.4784581959247589,-0.4722307026386261,0.0,0.0,0.0,0.0,0.0,0.0,0.0,0.0,0.0,0.011129929684102535,0.008712098002433777,0.015675431117415428,0.0,0.0,0.0,0.0,0.0,0.0,0.0,0.0,0.0
1606987179068560760,986416,1606983578481104091,imu_link,0.001599511713720858,0.005644179880619049,-0.8698760867118835,0.49323558807373047,0.0,0.0,0.0,0.0,0.0,0.0,0.0,0.0,0.0,-120.8939208984375,0.4784581959247589,-0.4722307026386261,0.0,0.0,0.0,0.0,0.0,0.0,0.0,0.0,0.0,0.011129929684102535,0.008712098002433777,0.015675431117415428,0.0,0.0,0.0,0.0,0.0,0.0,0.0,0.0,0.0
1606987179068596497,986417,1606983578481200003,imu_link,0.001598597620613873,0.005645222961902618,-0.8698763251304626,0.49323493242263794,0.0,0.0,0.0,0.0,0.0,0.0,0.0,0.0,0.0,-120.89398956298828,0.4784257113933563,-0.47238674759864807,0.0,0.0,0.0,0.0,0.0,0.0,0.0,0.0,0.0,-0.0061607277020812035,0.017152123153209686,-0.012805545702576637,0.0,0.0,0.0,0.0,0.0,0.0,0.0,0.0,0.0
1606987179068613295,986418,1606983578481288032,imu_link,0.001598597620613873,0.005645222961902618,-0.8698763251304626,0.49323493242263794,0.0,0.0,0.0,0.0,0.0,0.0,0.0,0.0,0.0,-120.89398956298828,0.4784257113933563,-0.47238674759864807,0.0,0.0,0.0,0.0,0.0,0.0,0.0,0.0,0.0,-0.0061607277020812035,0.017152123153209686,-0.012805545702576637,0.0,0.0,0.0,0.0,0.0,0.0,0.0,0.0,0.0
1606987179068641109,986419,1606983578481371641,imu_link,0.0015940862940624356,0.005648411810398102,-0.8698782324790955,0.49323153495788574,0.0,0.0,0.0,0.0,0.0,0.0,0.0,0.0,0.0,-120.89443969726562,0.47815436124801636,-0.47296154499053955,0.0,0.0,0.0,0.0,0.0,0.0,0.0,0.0,0.0,-0.02406865730881691,0.017393548041582108,-0.01659514009952545,0.0,0.0,0.0,0.0,0.0,0.0,0.0,0.0,0.0
1606987179068650185,986420,1606983578481453305,imu_link,0.0015940862940624356,0.005648411810398102,-0.8698782324790955,0.49323153495788574,0.0,0.0,0.0,0.0,0.0,0.0,0.0,0.0,0.0,-120.89443969726562,0.47815436124801636,-0.47296154499053955,0.0,0.0,0.0,0.0,0.0,0.0,0.0,0.0,0.0,-0.02406865730881691,0.017393548041582108,-0.01659514009952545,0.0,0.0,0.0,0.0,0.0,0.0,0.0,0.0,0.0
1606987179068666975,986421,1606983578481528303,imu_link,0.0015923703322187066,0.0056496476754546165,-0.869877815246582,0.49323228001594543,0.0,0.0,0.0,0.0,0.0,0.0,0.0,0.0,0.0,-120.89434051513672,0.47805356979370117,-0.47318121790885925,0.0,0.0,0.0,0.0,0.0,0.0,0.0,0.0,0.0,-0.020972004160284996,-0.0010085746180266142,-0.00293390778824687,0.0,0.0,0.0,0.0,0.0,0.0,0.0,0.0,0.0
1606987179080371355,986422,1606983578494458888,imu_link,0.0015923703322187066,0.0056496476754546165,-0.869877815246582,0.49323228001594543,0.0,0.0,0.0,0.0,0.0,0.0,0.0,0.0,0.0,-120.89434051513672,0.47805356979370117,-0.47318121790885925,0.0,0.0,0.0,0.0,0.0,0.0,0.0,0.0,0.0,-0.020972004160284996,-0.0010085746180266142,-0.00293390778824687,0.0,0.0,0.0,0.0,0.0,0.0,0.0,0.0,0.0
1606987179086065429,986423,1606983578494601779,imu_link,0.0015874054515734315,0.0056442697532474995,-0.8698789477348328,0.4932304620742798,0.0,0.0,0.0,0.0,0.0,0.0,0.0,0.0,0.0,-120.89458465576172,0.47725367546081543,-0.4729267656803131,0.0,0.0,0.0,0.0,0.0,0.0,0.0,0.0,0.0,-0.0011088221799582243,-0.0026398946065455675,-0.010543148033320904,0.0,0.0,0.0,0.0,0.0,0.0,0.0,0.0,0.0
1606987179086079089,986424,1606983578494769202,imu_link,0.0015874054515734315,0.0056442697532474995,-0.8698789477348328,0.4932304620742798,0.0,0.0,0.0,0.0,0.0,0.0,0.0,0.0,0.0,-120.89458465576172,0.47725367546081543,-0.4729267656803131,0.0,0.0,0.0,0.0,0.0,0.0,0.0,0.0,0.0,-0.0011088221799582243,-0.0026398946065455675,-0.010543148033320904,0.0,0.0,0.0,0.0,0.0,0.0,0.0,0.0,0.0
1606987179086085925,986425,1606983578494857055,imu_link,0.0015885598259046674,0.005646781530231237,-0.8698781132698059,0.49323195219039917,0.0,0.0,0.0,0.0,0.0,0.0,0.0,0.0,0.0,-120.89439392089844,0.47751158475875854,-0.47311100363731384,0.0,0.0,0.0,0.0,0.0,0.0,0.0,0.0,0.0,0.00893089734017849,0.00823205802589655,-0.008958175778388977,0.0,0.0,0.0,0.0,0.0,0.0,0.0,0.0,0.0
1606987179086103159,986426,1606983578494934830,imu_link,0.0015885598259046674,0.005646781530231237,-0.8698781132698059,0.49323195219039917,0.0,0.0,0.0,0.0,0.0,0.0,0.0,0.0,0.0,-120.89439392089844,0.47751158475875854,-0.47311100363731384,0.0,0.0,0.0,0.0,0.0,0.0,0.0,0.0,0.0,0.00893089734017849,0.00823205802589655,-0.008958175778388977,0.0,0.0,0.0,0.0,0.0,0.0,0.0,0.0,0.0
1606987179088745928,986427,1606983578495090661,imu_link,0.0015923258615657687,0.005649270489811897,-0.8698785901069641,0.4932309687137604,0.0,0.0,0.0,0.0,0.0,0.0,0.0,0.0,0.0,-120.89451599121094,0.4780271053314209,-0.47314685583114624,0.0,0.0,0.0,0.0,0.0,0.0,0.0,0.0,0.0,0.008590376004576683,-0.0014683803310617805,0.02299031987786293,0.0,0.0,0.0,0.0,0.0,0.0,0.0,0.0,0.0
1606987179088763100,986428,1606983578495200941,imu_link,0.0015923258615657687,0.005649270489811897,-0.8698785901069641,0.4932309687137604,0.0,0.0,0.0,0.0,0.0,0.0,0.0,0.0,0.0,-120.89451599121094,0.4780271053314209,-0.47314685583114624,0.0,0.0,0.0,0.0,0.0,0.0,0.0,0.0,0.0,0.008590376004576683,-0.0014683803310617805,0.02299031987786293,0.0,0.0,0.0,0.0,0.0,0.0,0.0,0.0,0.0
1606987179088777966,986429,1606983578495283953,imu_link,0.0015938490396365523,0.005647607147693634,-0.8698774576187134,0.49323293566703796,0.0,0.0,0.0,0.0,0.0,0.0,0.0,0.0,0.0,-120.89425659179688,0.478085994720459,-0.47289392352104187,0.0,0.0,0.0,0.0,0.0,0.0,0.0,0.0,0.0,0.013934837654232979,0.0005580914439633489,0.04487704113125801,0.0,0.0,0.0,0.0,0.0,0.0,0.0,0.0,0.0
1606987179088786142,986430,1606983578495364229,imu_link,0.0015938490396365523,0.005647607147693634,-0.8698774576187134,0.49323293566703796,0.0,0.0,0.0,0.0,0.0,0.0,0.0,0.0,0.0,-120.89425659179688,0.478085994720459,-0.47289392352104187,0.0,0.0,0.0,0.0,0.0,0.0,0.0,0.0,0.0,0.013934837654232979,0.0005580914439633489,0.04487704113125801,0.0,0.0,0.0,0.0,0.0,0.0,0.0,0.0,0.0
1606987179088802433,986431,1606983578495445452,imu_link,0.0015960827004164457,0.005649643484503031,-0.8698779940605164,0.4932321012020111,0.0,0.0,0.0,0.0,0.0,0.0,0.0,0.0,0.0,-120.89437103271484,0.4784232974052429,-0.4729711413383484,0.0,0.0,0.0,0.0,0.0,0.0,0.0,0.0,0.0,0.012040832079946995,0.015331767499446869,0.03852645307779312,0.0,0.0,0.0,0.0,0.0,0.0,0.0,0.0,0.0
1606987179119883487,986432,1606983578495527817,imu_link,0.0015960827004164457,0.005649643484503031,-0.8698779940605164,0.4932321012020111,0.0,0.0,0.0,0.0,0.0,0.0,0.0,0.0,0.0,-120.89437103271484,0.4784232974052429,-0.4729711413383484,0.0,0.0,0.0,0.0,0.0,0.0,0.0,0.0,0.0,0.012040832079946995,0.015331767499446869,0.03852645307779312,0.0,0.0,0.0,0.0,0.0,0.0,0.0,0.0,0.0
1606987179119904839,986433,1606983578507708299,imu_link,0.0015954955015331507,0.005649018567055464,-0.8698784708976746,0.49323123693466187,0.0,0.0,0.0,0.0,0.0,0.0,0.0,0.0,0.0,-120.89447784423828,0.47832900285720825,-0.4729425013065338,0.0,0.0,0.0,0.0,0.0,0.0,0.0,0.0,0.0,-0.010202828794717789,-0.0022559231147170067,0.013993428088724613,0.0,0.0,0.0,0.0,0.0,0.0,0.0,0.0,0.0
1606987179119927815,986434,1606983578507755600,imu_link,0.0015954955015331507,0.005649018567055464,-0.8698784708976746,0.49323123693466187,0.0,0.0,0.0,0.0,0.0,0.0,0.0,0.0,0.0,-120.89447784423828,0.47832900285720825,-0.4729425013065338,0.0,0.0,0.0,0.0,0.0,0.0,0.0,0.0,0.0,-0.010202828794717789,-0.0022559231147170067,0.013993428088724613,0.0,0.0,0.0,0.0,0.0,0.0,0.0,0.0,0.0
1606987179119939435,986435,1606983578507782182,imu_link,0.0015945095801725984,0.005646332632750273,-0.8698796629905701,0.49322912096977234,0.0,0.0,0.0,0.0,0.0,0.0,0.0,0.0,0.0,-120.8947525024414,0.4780777394771576,-0.4727316200733185,0.0,0.0,0.0,0.0,0.0,0.0,0.0,0.0,0.0,-0.014146788977086544,-0.02043464407324791,0.006410509813576937,0.0,0.0,0.0,0.0,0.0,0.0,0.0,0.0,0.0
1606987179119952142,986436,1606983578507825664,imu_link,0.0015945095801725984,0.005646332632750273,-0.8698796629905701,0.49322912096977234,0.0,0.0,0.0,0.0,0.0,0.0,0.0,0.0,0.0,-120.8947525024414,0.4780777394771576,-0.4727316200733185,0.0,0.0,0.0,0.0,0.0,0.0,0.0,0.0,0.0,-0.014146788977086544,-0.02043464407324791,0.006410509813576937,0.0,0.0,0.0,0.0,0.0,0.0,0.0,0.0,0.0
1606987179121875256,986437,1606983578507877097,imu_link,0.0015952445100992918,0.005647270940244198,-0.8698804974555969,0.49322763085365295,0.0,0.0,0.0,0.0,0.0,0.0,0.0,0.0,0.0,-120.89495849609375,0.4782031774520874,-0.47278448939323425,0.0,0.0,0.0,0.0,0.0,0.0,0.0,0.0,0.0,0.006271107122302055,-0.01146184466779232,0.000657806929666549,0.0,0.0,0.0,0.0,0.0,0.0,0.0,0.0,0.0
1606987179121895346,986438,1606983578507920665,imu_link,0.0015952445100992918,0.005647270940244198,-0.8698804974555969,0.49322763085365295,0.0,0.0,0.0,0.0,0.0,0.0,0.0,0.0,0.0,-120.89495849609375,0.4782031774520874,-0.47278448939323425,0.0,0.0,0.0,0.0,0.0,0.0,0.0,0.0,0.0,0.006271107122302055,-0.01146184466779232,0.000657806929666549,0.0,0.0,0.0,0.0,0.0,0.0,0.0,0.0,0.0
1606987179121919168,986439,1606983578507949419,imu_link,0.0015981767792254686,0.005644229240715504,-0.869881808757782,0.4932253360748291,0.0,0.0,0.0,0.0,0.0,0.0,0.0,0.0,0.0,-120.89525604248047,0.4783223271369934,-0.4723167419433594,0.0,0.0,0.0,0.0,0.0,0.0,0.0,0.0,0.0,0.0035286734346300364,-0.015713294968008995,-0.011564983054995537,0.0,0.0,0.0,0.0,0.0,0.0,0.0,0.0,0.0
1606987179121940945,986440,1606983578507979491,imu_link,0.0015981767792254686,0.005644229240715504,-0.869881808757782,0.4932253360748291,0.0,0.0,0.0,0.0,0.0,0.0,0.0,0.0,0.0,-120.89525604248047,0.4783223271369934,-0.4723167419433594,0.0,0.0,0.0,0.0,0.0,0.0,0.0,0.0,0.0,0.0035286734346300364,-0.015713294968008995,-0.011564983054995537,0.0,0.0,0.0,0.0,0.0,0.0,0.0,0.0,0.0
1606987179121953485,986441,1606983578508005122,imu_link,0.0015989700332283974,0.005641961470246315,-0.8698809146881104,0.4932269752025604,0.0,0.0,0.0,0.0,0.0,0.0,0.0,0.0,0.0,-120.89503479003906,0.4782741665840149,-0.472044974565506,0.0,0.0,0.0,0.0,0.0,0.0,0.0,0.0,0.0,0.01356781180948019,-0.02483871392905712,-0.012051280587911606,0.0,0.0,0.0,0.0,0.0,0.0,0.0,0.0,0.0
1606987179121974019,986442,1606983578508032233,imu_link,0.0015989700332283974,0.005641961470246315,-0.8698809146881104,0.4932269752025604,0.0,0.0,0.0,0.0,0.0,0.0,0.0,0.0,0.0,-120.89503479003906,0.4782741665840149,-0.472044974565506,0.0,0.0,0.0,0.0,0.0,0.0,0.0,0.0,0.0,0.01356781180948019,-0.02483871392905712,-0.012051280587911606,0.0,0.0,0.0,0.0,0.0,0.0,0.0,0.0,0.0
1606987179121981136,986443,1606983578508058424,imu_link,0.0016034251311793923,0.005641460418701172,-0.8698791265487671,0.4932301342487335,0.0,0.0,0.0,0.0,0.0,0.0,0.0,0.0,0.0,-120.8946304321289,0.47869163751602173,-0.4717414379119873,0.0,0.0,0.0,0.0,0.0,0.0,0.0,0.0,0.0,0.019881300628185272,-0.017227349802851677,0.005267931614071131,0.0,0.0,0.0,0.0,0.0,0.0,0.0,0.0,0.0
1606987179121988381,986444,1606983578520741414,imu_link,0.0016034251311793923,0.005641460418701172,-0.8698791265487671,0.4932301342487335,0.0,0.0,0.0,0.0,0.0,0.0,0.0,0.0,0.0,-120.8946304321289,0.47869163751602173,-0.4717414379119873,0.0,0.0,0.0,0.0,0.0,0.0,0.0,0.0,0.0,0.019881300628185272,-0.017227349802851677,0.005267931614071131,0.0,0.0,0.0,0.0,0.0,0.0,0.0,0.0,0.0
1606987179122015753,986445,1606983578520815954,imu_link,0.0016039848560467362,0.005641178227961063,-0.8698794841766357,0.4932294487953186,0.0,0.0,0.0,0.0,0.0,0.0,0.0,0.0,0.0,-120.89470672607422,0.4787311255931854,-0.471682071685791,0.0,0.0,0.0,0.0,0.0,0.0,0.0,0.0,0.0,0.008323650807142258,-0.0070885964669287205,0.02545888163149357,0.0,0.0,0.0,0.0,0.0,0.0,0.0,0.0,0.0
1606987179122021990,986446,1606983578520906621,imu_link,0.0016039848560467362,0.005641178227961063,-0.8698794841766357,0.4932294487953186,0.0,0.0,0.0,0.0,0.0,0.0,0.0,0.0,0.0,-120.89470672607422,0.4787311255931854,-0.471682071685791,0.0,0.0,0.0,0.0,0.0,0.0,0.0,0.0,0.0,0.008323650807142258,-0.0070885964669287205,0.02545888163149357,0.0,0.0,0.0,0.0,0.0,0.0,0.0,0.0,0.0
1606987179122032370,986447,1606983578520958128,imu_link,0.0016056885942816734,0.005642043426632881,-0.8698760271072388,0.4932355582714081,0.0,0.0,0.0,0.0,0.0,0.0,0.0,0.0,0.0,-120.8939208984375,0.47895318269729614,-0.4716686010360718,0.0,0.0,0.0,0.0,0.0,0.0,0.0,0.0,0.0,0.006584822200238705,-0.0011398536153137684,0.02140657790005207,0.0,0.0,0.0,0.0,0.0,0.0,0.0,0.0,0.0
1606987179122038059,986448,1606983578520997304,imu_link,0.0016056885942816734,0.005642043426632881,-0.8698760271072388,0.4932355582714081,0.0,0.0,0.0,0.0,0.0,0.0,0.0,0.0,0.0,-120.8939208984375,0.47895318269729614,-0.4716686010360718,0.0,0.0,0.0,0.0,0.0,0.0,0.0,0.0,0.0,0.006584822200238705,-0.0011398536153137684,0.02140657790005207,0.0,0.0,0.0,0.0,0.0,0.0,0.0,0.0,0.0
1606987179122051384,986449,1606983578521050998,imu_link,0.0016080100322142243,0.005642047617584467,-0.8698757290840149,0.49323612451553345,0.0,0.0,0.0,0.0,0.0,0.0,0.0,0.0,0.0,-120.89383697509766,0.4791851341724396,-0.4715375602245331,0.0,0.0,0.0,0.0,0.0,0.0,0.0,0.0,0.0,0.0022793877869844437,-0.0036040262784808874,0.00894216075539589,0.0,0.0,0.0,0.0,0.0,0.0,0.0,0.0,0.0
1606987179125498743,986450,1606983578521091853,imu_link,0.0016080100322142243,0.005642047617584467,-0.8698757290840149,0.49323612451553345,0.0,0.0,0.0,0.0,0.0,0.0,0.0,0.0,0.0,-120.89383697509766,0.4791851341724396,-0.4715375602245331,0.0,0.0,0.0,0.0,0.0,0.0,0.0,0.0,0.0,0.0022793877869844437,-0.0036040262784808874,0.00894216075539589,0.0,0.0,0.0,0.0,0.0,0.0,0.0,0.0,0.0
1606987179125517261,986451,1606983578521133206,imu_link,0.0016093014273792505,0.005642944015562534,-0.8698711395263672,0.4932442009449005,0.0,0.0,0.0,0.0,0.0,0.0,0.0,0.0,0.0,-120.89276885986328,0.4793688952922821,-0.47154951095581055,0.0,0.0,0.0,0.0,0.0,0.0,0.0,0.0,0.0,-0.0047070602886378765,-0.003978718537837267,0.026240603998303413,0.0,0.0,0.0,0.0,0.0,0.0,0.0,0.0,0.0
1606987179125535749,986452,1606983578521171532,imu_link,0.0016093014273792505,0.005642944015562534,-0.8698711395263672,0.4932442009449005,0.0,0.0,0.0,0.0,0.0,0.0,0.0,0.0,0.0,-120.89276885986328,0.4793688952922821,-0.47154951095581055,0.0,0.0,0.0,0.0,0.0,0.0,0.0,0.0,0.0,-0.0047070602886378765,-0.003978718537837267,0.026240603998303413,0.0,0.0,0.0,0.0,0.0,0.0,0.0,0.0,0.0
1606987179125548146,986453,1606983578521213424,imu_link,0.0016110694268718362,0.005643129348754883,-0.869870662689209,0.49324506521224976,0.0,0.0,0.0,0.0,0.0,0.0,0.0,0.0,0.0,-120.89266204833984,0.4795560836791992,-0.47146761417388916,0.0,0.0,0.0,0.0,0.0,0.0,0.0,0.0,0.0,-0.014994977042078972,-0.008117449469864368,0.04376270994544029,0.0,0.0,0.0,0.0,0.0,0.0,0.0,0.0,0.0
1606987179125560591,986454,1606983578534566622,imu_link,0.0016110694268718362,0.005643129348754883,-0.869870662689209,0.49324506521224976,0.0,0.0,0.0,0.0,0.0,0.0,0.0,0.0,0.0,-120.89266204833984,0.4795560836791992,-0.47146761417388916,0.0,0.0,0.0,0.0,0.0,0.0,0.0,0.0,0.0,-0.014994977042078972,-0.008117449469864368,0.04376270994544029,0.0,0.0,0.0,0.0,0.0,0.0,0.0,0.0,0.0
1606987179130129877,986455,1606983578534654497,imu_link,0.0016091377474367619,0.00564182922244072,-0.8698664903640747,0.4932524859905243,0.0,0.0,0.0,0.0,0.0,0.0,0.0,0.0,0.0,-120.89169311523438,0.479294091463089,-0.4714430570602417,0.0,0.0,0.0,0.0,0.0,0.0,0.0,0.0,0.0,-0.0226436834782362,-0.005018178373575211,0.03332948312163353,0.0,0.0,0.0,0.0,0.0,0.0,0.0,0.0,0.0
1606987179130160883,986456,1606983578534754311,imu_link,0.0016091377474367619,0.00564182922244072,-0.8698664903640747,0.4932524859905243,0.0,0.0,0.0,0.0,0.0,0.0,0.0,0.0,0.0,-120.89169311523438,0.479294091463089,-0.4714430570602417,0.0,0.0,0.0,0.0,0.0,0.0,0.0,0.0,0.0,-0.0226436834782362,-0.005018178373575211,0.03332948312163353,0.0,0.0,0.0,0.0,0.0,0.0,0.0,0.0,0.0
1606987179130190447,986457,1606983578534809321,imu_link,0.0016086820978671312,0.005640643183141947,-0.8698667883872986,0.49325186014175415,0.0,0.0,0.0,0.0,0.0,0.0,0.0,0.0,0.0,-120.89176177978516,0.47918128967285156,-0.4713509678840637,0.0,0.0,0.0,0.0,0.0,0.0,0.0,0.0,0.0,-0.013725679367780685,0.005839429795742035,-0.0005875005736015737,0.0,0.0,0.0,0.0,0.0,0.0,0.0,0.0,0.0
1606987179130208412,986458,1606983578534859760,imu_link,0.0016086820978671312,0.005640643183141947,-0.8698667883872986,0.49325186014175415,0.0,0.0,0.0,0.0,0.0,0.0,0.0,0.0,0.0,-120.89176177978516,0.47918128967285156,-0.4713509678840637,0.0,0.0,0.0,0.0,0.0,0.0,0.0,0.0,0.0,-0.013725679367780685,0.005839429795742035,-0.0005875005736015737,0.0,0.0,0.0,0.0,0.0,0.0,0.0,0.0,0.0
1606987179130223603,986459,1606983578534908155,imu_link,0.001604583696462214,0.005640354938805103,-0.8698661923408508,0.4932529628276825,0.0,0.0,0.0,0.0,0.0,0.0,0.0,0.0,0.0,-120.8916244506836,0.47875702381134033,-0.47155314683914185,0.0,0.0,0.0,0.0,0.0,0.0,0.0,0.0,0.0,-0.01010405458509922,0.00763678178191185,-0.026258012279868126,0.0,0.0,0.0,0.0,0.0,0.0,0.0,0.0,0.0
1606987179130259564,986460,1606983578534994349,imu_link,0.001604583696462214,0.005640354938805103,-0.8698661923408508,0.4932529628276825,0.0,0.0,0.0,0.0,0.0,0.0,0.0,0.0,0.0,-120.8916244506836,0.47875702381134033,-0.47155314683914185,0.0,0.0,0.0,0.0,0.0,0.0,0.0,0.0,0.0,-0.01010405458509922,0.00763678178191185,-0.026258012279868126,0.0,0.0,0.0,0.0,0.0,0.0,0.0,0.0,0.0
1606987179130272771,986461,1606983578535046364,imu_link,0.0016041912604123354,0.005639998242259026,-0.8698656558990479,0.4932538866996765,0.0,0.0,0.0,0.0,0.0,0.0,0.0,0.0,0.0,-120.8915023803711,0.4786982536315918,-0.47153931856155396,0.0,0.0,0.0,0.0,0.0,0.0,0.0,0.0,0.0,-0.009684927761554718,0.000696111936122179,-0.020154278725385666,0.0,0.0,0.0,0.0,0.0,0.0,0.0,0.0,0.0
1606987179130312012,986462,1606983578535139657,imu_link,0.0016041912604123354,0.005639998242259026,-0.8698656558990479,0.4932538866996765,0.0,0.0,0.0,0.0,0.0,0.0,0.0,0.0,0.0,-120.8915023803711,0.4786982536315918,-0.47153931856155396,0.0,0.0,0.0,0.0,0.0,0.0,0.0,0.0,0.0,-0.009684927761554718,0.000696111936122179,-0.020154278725385666,0.0,0.0,0.0,0.0,0.0,0.0,0.0,0.0,0.0
1606987179130348633,986463,1606983578535194395,imu_link,0.0016036188462749124,0.005638744682073593,-0.8698654174804688,0.49325427412986755,0.0,0.0,0.0,0.0,0.0,0.0,0.0,0.0,0.0,-120.89144897460938,0.47857052087783813,-0.47144657373428345,0.0,0.0,0.0,0.0,0.0,0.0,0.0,0.0,0.0,-0.005442792549729347,0.002691803965717554,0.0037153454031795263,0.0,0.0,0.0,0.0,0.0,0.0,0.0,0.0,0.0
1606987179130361386,986464,1606983578535248723,imu_link,0.0016036188462749124,0.005638744682073593,-0.8698654174804688,0.49325427412986755,0.0,0.0,0.0,0.0,0.0,0.0,0.0,0.0,0.0,-120.89144897460938,0.47857052087783813,-0.47144657373428345,0.0,0.0,0.0,0.0,0.0,0.0,0.0,0.0,0.0,-0.005442792549729347,0.002691803965717554,0.0037153454031795263,0.0,0.0,0.0,0.0,0.0,0.0,0.0,0.0,0.0
1606987179136645883,986465,1606983578548088876,imu_link,0.0016055842861533165,0.005638955160975456,-0.8698654770851135,0.4932541847229004,0.0,0.0,0.0,0.0,0.0,0.0,0.0,0.0,0.0,-120.8914566040039,0.47877830266952515,-0.47135651111602783,0.0,0.0,0.0,0.0,0.0,0.0,0.0,0.0,0.0,0.002278716769069433,0.004341703373938799,0.014549700543284416,0.0,0.0,0.0,0.0,0.0,0.0,0.0,0.0,0.0
1606987179137910450,986466,1606983578548192038,imu_link,0.0016055842861533165,0.005638955160975456,-0.8698654770851135,0.4932541847229004,0.0,0.0,0.0,0.0,0.0,0.0,0.0,0.0,0.0,-120.8914566040039,0.47877830266952515,-0.47135651111602783,0.0,0.0,0.0,0.0,0.0,0.0,0.0,0.0,0.0,0.002278716769069433,0.004341703373938799,0.014549700543284416,0.0,0.0,0.0,0.0,0.0,0.0,0.0,0.0,0.0
1606987179137923464,986467,1606983578548329833,imu_link,0.00160569092258811,0.005641520023345947,-0.8698651194572449,0.49325478076934814,0.0,0.0,0.0,0.0,0.0,0.0,0.0,0.0,0.0,-120.8913803100586,0.47893428802490234,-0.47160574793815613,0.0,0.0,0.0,0.0,0.0,0.0,0.0,0.0,0.0,0.017609180882573128,-0.011374912224709988,-0.0060236575081944466,0.0,0.0,0.0,0.0,0.0,0.0,0.0,0.0,0.0
1606987179137931811,986468,1606983578548423870,imu_link,0.00160569092258811,0.005641520023345947,-0.8698651194572449,0.49325478076934814,0.0,0.0,0.0,0.0,0.0,0.0,0.0,0.0,0.0,-120.8913803100586,0.47893428802490234,-0.47160574793815613,0.0,0.0,0.0,0.0,0.0,0.0,0.0,0.0,0.0,0.017609180882573128,-0.011374912224709988,-0.0060236575081944466,0.0,0.0,0.0,0.0,0.0,0.0,0.0,0.0,0.0
1606987179137936401,986469,1606983578548486207,imu_link,0.0016042273491621017,0.00564013933762908,-0.8698636889457703,0.49325740337371826,0.0,0.0,0.0,0.0,0.0,0.0,0.0,0.0,0.0,-120.89103698730469,0.47871172428131104,-0.471549391746521,0.0,0.0,0.0,0.0,0.0,0.0,0.0,0.0,0.0,0.011256642639636993,-0.013648035004734993,-0.003897131886333227,0.0,0.0,0.0,0.0,0.0,0.0,0.0,0.0,0.0
1606987179137946756,986470,1606983578548550785,imu_link,0.0016042273491621017,0.00564013933762908,-0.8698636889457703,0.49325740337371826,0.0,0.0,0.0,0.0,0.0,0.0,0.0,0.0,0.0,-120.89103698730469,0.47871172428131104,-0.471549391746521,0.0,0.0,0.0,0.0,0.0,0.0,0.0,0.0,0.0,0.011256642639636993,-0.013648035004734993,-0.003897131886333227,0.0,0.0,0.0,0.0,0.0,0.0,0.0,0.0,0.0
1606987179137953197,986471,1606983578548624906,imu_link,0.0016039132606238127,0.005637672729790211,-0.8698639869689941,0.49325692653656006,0.0,0.0,0.0,0.0,0.0,0.0,0.0,0.0,0.0,-120.8910903930664,0.4785407483577728,-0.4713214933872223,0.0,0.0,0.0,0.0,0.0,0.0,0.0,0.0,0.0,0.003995529375970364,-0.009618829004466534,0.02742195688188076,0.0,0.0,0.0,0.0,0.0,0.0,0.0,0.0,0.0
1606987179137966447,986472,1606983578548691022,imu_link,0.0016039132606238127,0.005637672729790211,-0.8698639869689941,0.49325692653656006,0.0,0.0,0.0,0.0,0.0,0.0,0.0,0.0,0.0,-120.8910903930664,0.4785407483577728,-0.4713214933872223,0.0,0.0,0.0,0.0,0.0,0.0,0.0,0.0,0.0,0.003995529375970364,-0.009618829004466534,0.02742195688188076,0.0,0.0,0.0,0.0,0.0,0.0,0.0,0.0,0.0
1606987179137978834,986473,1606983578548752718,imu_link,0.0016075175954028964,0.005638089496642351,-0.8698639273643494,0.49325698614120483,0.0,0.0,0.0,0.0,0.0,0.0,0.0,0.0,0.0,-120.8910903930664,0.47892364859580994,-0.47115933895111084,0.0,0.0,0.0,0.0,0.0,0.0,0.0,0.0,0.0,0.005609496962279081,-0.006797441281378269,0.02241341769695282,0.0,0.0,0.0,0.0,0.0,0.0,0.0,0.0,0.0
1606987179142382287,986474,1606983578548813695,imu_link,0.0016075175954028964,0.005638089496642351,-0.8698639273643494,0.49325698614120483,0.0,0.0,0.0,0.0,0.0,0.0,0.0,0.0,0.0,-120.8910903930664,0.47892364859580994,-0.47115933895111084,0.0,0.0,0.0,0.0,0.0,0.0,0.0,0.0,0.0,0.005609496962279081,-0.006797441281378269,0.02241341769695282,0.0,0.0,0.0,0.0,0.0,0.0,0.0,0.0,0.0
1606987179142401802,986475,1606983578548869250,imu_link,0.0016090007266029716,0.00563754653558135,-0.8698664307594299,0.4932525157928467,0.0,0.0,0.0,0.0,0.0,0.0,0.0,0.0,0.0,-120.89167785644531,0.47903838753700256,-0.4710238575935364,0.0,0.0,0.0,0.0,0.0,0.0,0.0,0.0,0.0,0.006260108668357134,-0.011527907103300095,0.009455866180360317,0.0,0.0,0.0,0.0,0.0,0.0,0.0,0.0,0.0
1606987179147956628,986476,1606983578561849444,imu_link,0.0016090007266029716,0.00563754653558135,-0.8698664307594299,0.4932525157928467,0.0,0.0,0.0,0.0,0.0,0.0,0.0,0.0,0.0,-120.89167785644531,0.47903838753700256,-0.4710238575935364,0.0,0.0,0.0,0.0,0.0,0.0,0.0,0.0,0.0,0.006260108668357134,-0.011527907103300095,0.009455866180360317,0.0,0.0,0.0,0.0,0.0,0.0,0.0,0.0,0.0
1606987179153498086,986477,1606983578561963223,imu_link,0.0016082320362329483,0.0056388177908957005,-0.8698658347129822,0.49325355887413025,0.0,0.0,0.0,0.0,0.0,0.0,0.0,0.0,0.0,-120.89154052734375,0.4790341854095459,-0.47119343280792236,0.0,0.0,0.0,0.0,0.0,0.0,0.0,0.0,0.0,-0.005537949036806822,-0.013445157557725906,0.025749558582901955,0.0,0.0,0.0,0.0,0.0,0.0,0.0,0.0,0.0
1606987179153517803,986478,1606983578562091728,imu_link,0.0016082320362329483,0.0056388177908957005,-0.8698658347129822,0.49325355887413025,0.0,0.0,0.0,0.0,0.0,0.0,0.0,0.0,0.0,-120.89154052734375,0.4790341854095459,-0.47119343280792236,0.0,0.0,0.0,0.0,0.0,0.0,0.0,0.0,0.0,-0.005537949036806822,-0.013445157557725906,0.025749558582901955,0.0,0.0,0.0,0.0,0.0,0.0,0.0,0.0,0.0
1606987179153543165,986479,1606983578562157517,imu_link,0.0016083603259176016,0.0056360200978815556,-0.8698693513870239,0.4932474195957184,0.0,0.0,0.0,0.0,0.0,0.0,0.0,0.0,0.0,-120.89234924316406,0.4788854420185089,-0.4709106683731079,0.0,0.0,0.0,0.0,0.0,0.0,0.0,0.0,0.0,-0.021321289241313934,0.015908105298876762,0.03722468763589859,0.0,0.0,0.0,0.0,0.0,0.0,0.0,0.0,0.0
1606987179153597741,986480,1606983578562219741,imu_link,0.0016083603259176016,0.0056360200978815556,-0.8698693513870239,0.4932474195957184,0.0,0.0,0.0,0.0,0.0,0.0,0.0,0.0,0.0,-120.89234924316406,0.4788854420185089,-0.4709106683731079,0.0,0.0,0.0,0.0,0.0,0.0,0.0,0.0,0.0,-0.021321289241313934,0.015908105298876762,0.03722468763589859,0.0,0.0,0.0,0.0,0.0,0.0,0.0,0.0,0.0
1606987179153607668,986481,1606983578562297561,imu_link,0.0016112264711409807,0.005635380744934082,-0.8698692321777344,0.4932475686073303,0.0,0.0,0.0,0.0,0.0,0.0,0.0,0.0,0.0,-120.892333984375,0.479135125875473,-0.4706849157810211,0.0,0.0,0.0,0.0,0.0,0.0,0.0,0.0,0.0,-0.0005153818055987358,0.028143465518951416,0.022994572296738625,0.0,0.0,0.0,0.0,0.0,0.0,0.0,0.0,0.0
