%time,field.header.seq,field.header.stamp,field.header.frame_id,field.orientation.x,field.orientation.y,field.orientation.z,field.orientation.w,field.orientation_covariance0,field.orientation_covariance1,field.orientation_covariance2,field.orientation_covariance3,field.orientation_covariance4,field.orientation_covariance5,field.orientation_covariance6,field.orientation_covariance7,field.orientation_covariance8,field.angular_velocity.x,field.angular_velocity.y,field.angular_velocity.z,field.angular_velocity_covariance0,field.angular_velocity_covariance1,field.angular_velocity_covariance2,field.angular_velocity_covariance3,field.angular_velocity_covariance4,field.angular_velocity_covariance5,field.angular_velocity_covariance6,field.angular_velocity_covariance7,field.angular_velocity_covariance8,field.linear_acceleration.x,field.linear_acceleration.y,field.linear_acceleration.z,field.linear_acceleration_covariance0,field.linear_acceleration_covariance1,field.linear_acceleration_covariance2,field.linear_acceleration_covariance3,field.linear_acceleration_covariance4,field.linear_acceleration_covariance5,field.linear_acceleration_covariance6,field.linear_acceleration_covariance7,field.linear_acceleration_covariance8
1606987104263226059,926526,1606983503623630287,imu_link,0.0017914434429258108,0.0057371254079043865,-0.8717114925384521,0.4899827241897583,0.0,0.0,0.0,0.0,0.0,0.0,0.0,0.0,0.0,-121.32200622558594,0.5010824799537659,-0.4725235104560852,0.0,0.0,0.0,0.0,0.0,0.0,0.0,0.0,0.0,-0.014404980465769768,-0.013416866771876812,0.020230693742632866,0.0,0.0,0.0,0.0,0.0,0.0,0.0,0.0,0.0
1606987104263247423,926527,1606983503623761141,imu_link,0.0017912178300321102,0.005736426915973425,-0.8717114925384521,0.489982545375824,0.0,0.0,0.0,0.0,0.0,0.0,0.0,0.0,0.0,-121.322021484375,0.501020610332489,-0.4724665582180023,0.0,0.0,0.0,0.0,0.0,0.0,0.0,0.0,0.0,-0.008635157719254494,-0.007579460274428129,0.006373187061399221,0.0,0.0,0.0,0.0,0.0,0.0,0.0,0.0,0.0
1606987104263264430,926528,1606983503623893844,imu_link,0.0017912178300321102,0.005736426915973425,-0.8717114925384521,0.489982545375824,0.0,0.0,0.0,0.0,0.0,0.0,0.0,0.0,0.0,-121.322021484375,0.501020610332489,-0.4724665582180023,0.0,0.0,0.0,0.0,0.0,0.0,0.0,0.0,0.0,-0.008635157719254494,-0.007579460274428129,0.006373187061399221,0.0,0.0,0.0,0.0,0.0,0.0,0.0,0.0,0.0
1606987104263277253,926529,1606983503623975268,imu_link,0.0017913964111357927,0.005735971033573151,-0.8717116117477417,0.4899825155735016,0.0,0.0,0.0,0.0,0.0,0.0,0.0,0.0,0.0,-121.32203674316406,0.5010128617286682,-0.47241097688674927,0.0,0.0,0.0,0.0,0.0,0.0,0.0,0.0,0.0,-0.00844440795481205,-0.0014807332772761583,-0.008140415884554386,0.0,0.0,0.0,0.0,0.0,0.0,0.0,0.0,0.0
1606987104263283818,926530,1606983503624055026,imu_link,0.0017913964111357927,0.005735971033573151,-0.8717116117477417,0.4899825155735016,0.0,0.0,0.0,0.0,0.0,0.0,0.0,0.0,0.0,-121.32203674316406,0.5010128617286682,-0.47241097688674927,0.0,0.0,0.0,0.0,0.0,0.0,0.0,0.0,0.0,-0.00844440795481205,-0.0014807332772761583,-0.008140415884554386,0.0,0.0,0.0,0.0,0.0,0.0,0.0,0.0,0.0
1606987104263291915,926531,1606983503624136027,imu_link,0.001789624453522265,0.005737175699323416,-0.8717119693756104,0.48998185992240906,0.0,0.0,0.0,0.0,0.0,0.0,0.0,0.0,0.0,-121.32211303710938,0.5009031295776367,-0.4726311266422272,0.0,0.0,0.0,0.0,0.0,0.0,0.0,0.0,0.0,-0.015589548274874687,0.005785458255559206,-0.016138164326548576,0.0,0.0,0.0,0.0,0.0,0.0,0.0,0.0,0.0
1606987104263304994,926532,1606983503624227973,imu_link,0.001789624453522265,0.005737175699323416,-0.8717119693756104,0.48998185992240906,0.0,0.0,0.0,0.0,0.0,0.0,0.0,0.0,0.0,-121.32211303710938,0.5009031295776367,-0.4726311266422272,0.0,0.0,0.0,0.0,0.0,0.0,0.0,0.0,0.0,-0.015589548274874687,0.005785458255559206,-0.016138164326548576,0.0,0.0,0.0,0.0,0.0,0.0,0.0,0.0,0.0
1606987104263322612,926533,1606983503624308095,imu_link,0.0017899383092299104,0.0057390849106013775,-0.871711790561676,0.48998215794563293,0.0,0.0,0.0,0.0,0.0,0.0,0.0,0.0,0.0,-121.32209014892578,0.501041829586029,-0.47280412912368774,0.0,0.0,0.0,0.0,0.0,0.0,0.0,0.0,0.0,-0.00870379526168108,-0.007488430477678776,-0.017974821850657463,0.0,0.0,0.0,0.0,0.0,0.0,0.0,0.0,0.0
1606987104315215666,926534,1606983503624448319,imu_link,0.0017899383092299104,0.0057390849106013775,-0.871711790561676,0.48998215794563293,0.0,0.0,0.0,0.0,0.0,0.0,0.0,0.0,0.0,-121.32209014892578,0.501041829586029,-0.47280412912368774,0.0,0.0,0.0,0.0,0.0,0.0,0.0,0.0,0.0,-0.00870379526168108,-0.007488430477678776,-0.017974821850657463,0.0,0.0,0.0,0.0,0.0,0.0,0.0,0.0,0.0
1606987104315231686,926535,1606983503624535668,imu_link,0.0017874973127618432,0.005736572667956352,-0.8717110753059387,0.4899834394454956,0.0,0.0,0.0,0.0,0.0,0.0,0.0,0.0,0.0,-121.32191467285156,0.5006576180458069,-0.4726894497871399,0.0,0.0,0.0,0.0,0.0,0.0,0.0,0.0,0.0,-0.0031575332395732403,-8.181750308722258e-05,-0.0023134364746510983,0.0,0.0,0.0,0.0,0.0,0.0,0.0,0.0,0.0
1606987104315237681,926536,1606983503624608284,imu_link,0.0017874973127618432,0.005736572667956352,-0.8717110753059387,0.4899834394454956,0.0,0.0,0.0,0.0,0.0,0.0,0.0,0.0,0.0,-121.32191467285156,0.5006576180458069,-0.4726894497871399,0.0,0.0,0.0,0.0,0.0,0.0,0.0,0.0,0.0,-0.0031575332395732403,-8.181750308722258e-05,-0.0023134364746510983,0.0,0.0,0.0,0.0,0.0,0.0,0.0,0.0,0.0
1606987104315241403,926537,1606983503637430585,imu_link,0.0017857180209830403,0.00573498010635376,-0.8717108964920044,0.48998376727104187,0.0,0.0,0.0,0.0,0.0,0.0,0.0,0.0,0.0,-121.32186889648438,0.5003906488418579,-0.47263002395629883,0.0,0.0,0.0,0.0,0.0,0.0,0.0,0.0,0.0,1.175938086817041e-05,0.009959881193935871,0.006227230653166771,0.0,0.0,0.0,0.0,0.0,0.0,0.0,0.0,0.0
1606987104315247677,926538,1606983503637639047,imu_link,0.0017857180209830403,0.00573498010635376,-0.8717108964920044,0.48998376727104187,0.0,0.0,0.0,0.0,0.0,0.0,0.0,0.0,0.0,-121.32186889648438,0.5003906488418579,-0.47263002395629883,0.0,0.0,0.0,0.0,0.0,0.0,0.0,0.0,0.0,1.175938086817041e-05,0.009959881193935871,0.006227230653166771,0.0,0.0,0.0,0.0,0.0,0.0,0.0,0.0,0.0
1606987104321763673,926539,1606983503637793595,imu_link,0.0017861917149275541,0.005736158229410648,-0.8717096447944641,0.4899858832359314,0.0,0.0,0.0,0.0,0.0,0.0,0.0,0.0,0.0,-121.32158660888672,0.500505268573761,-0.4727199673652649,0.0,0.0,0.0,0.0,0.0,0.0,0.0,0.0,0.0,0.008764424361288548,-0.0026909152511507273,-0.016179297119379044,0.0,0.0,0.0,0.0,0.0,0.0,0.0,0.0,0.0
1606987104321804282,926540,1606983503637946003,imu_link,0.0017861917149275541,0.005736158229410648,-0.8717096447944641,0.4899858832359314,0.0,0.0,0.0,0.0,0.0,0.0,0.0,0.0,0.0,-121.32158660888672,0.500505268573761,-0.4727199673652649,0.0,0.0,0.0,0.0,0.0,0.0,0.0,0.0,0.0,0.008764424361288548,-0.0026909152511507273,-0.016179297119379044,0.0,0.0,0.0,0.0,0.0,0.0,0.0,0.0,0.0
1606987104321830563,926541,1606983503638111626,imu_link,0.0017838841304183006,0.005735877435654402,-0.8717097043991089,0.48998594284057617,0.0,0.0,0.0,0.0,0.0,0.0,0.0,0.0,0.0,-121.32158660888672,0.5002590417861938,-0.47282135486602783,0.0,0.0,0.0,0.0,0.0,0.0,0.0,0.0,0.0,0.011515814810991287,-0.004952629096806049,-0.01840192638337612,0.0,0.0,0.0,0.0,0.0,0.0,0.0,0.0,0.0
1606987104321855594,926542,1606983503638285706,imu_link,0.0017838841304183006,0.005735877435654402,-0.8717097043991089,0.48998594284057617,0.0,0.0,0.0,0.0,0.0,0.0,0.0,0.0,0.0,-121.32158660888672,0.5002590417861938,-0.47282135486602783,0.0,0.0,0.0,0.0,0.0,0.0,0.0,0.0,0.0,0.011515814810991287,-0.004952629096806049,-0.01840192638337612,0.0,0.0,0.0,0.0,0.0,0.0,0.0,0.0,0.0
1606987104418962017,926543,1606983503638389747,imu_link,0.0017829489661380649,0.005734713282436132,-0.8717097043991089,0.4899858832359314,0.0,0.0,0.0,0.0,0.0,0.0,0.0,0.0,0.0,-121.32158660888672,0.5001001954078674,-0.4727576971054077,0.0,0.0,0.0,0.0,0.0,0.0,0.0,0.0,0.0,0.00609139259904623,-0.0015946684870868921,0.004230760503560305,0.0,0.0,0.0,0.0,0.0,0.0,0.0,0.0,0.0
1606987104418984729,926544,1606983503638482157,imu_link,0.0017829489661380649,0.005734713282436132,-0.8717097043991089,0.4899858832359314,0.0,0.0,0.0,0.0,0.0,0.0,0.0,0.0,0.0,-121.32158660888672,0.5001001954078674,-0.4727576971054077,0.0,0.0,0.0,0.0,0.0,0.0,0.0,0.0,0.0,0.00609139259904623,-0.0015946684870868921,0.004230760503560305,0.0,0.0,0.0,0.0,0.0,0.0,0.0,0.0,0.0
1606987104418997415,926545,1606983503638609407,imu_link,0.0017830178840085864,0.005734979175031185,-0.8717106580734253,0.4899842441082001,0.0,0.0,0.0,0.0,0.0,0.0,0.0,0.0,0.0,-121.3218002319336,0.5001211762428284,-0.472781240940094,0.0,0.0,0.0,0.0,0.0,0.0,0.0,0.0,0.0,-0.009509162046015263,-0.00033791729947552085,0.02035578340291977,0.0,0.0,0.0,0.0,0.0,0.0,0.0,0.0,0.0
1606987104419008080,926546,1606983503638720520,imu_link,0.0017830178840085864,0.005734979175031185,-0.8717106580734253,0.4899842441082001,0.0,0.0,0.0,0.0,0.0,0.0,0.0,0.0,0.0,-121.3218002319336,0.5001211762428284,-0.472781240940094,0.0,0.0,0.0,0.0,0.0,0.0,0.0,0.0,0.0,-0.009509162046015263,-0.00033791729947552085,0.02035578340291977,0.0,0.0,0.0,0.0,0.0,0.0,0.0,0.0,0.0
1606987104419019156,926547,1606983503638835883,imu_link,0.0017785461386665702,0.005736800841987133,-0.8717097640037537,0.4899858236312866,0.0,0.0,0.0,0.0,0.0,0.0,0.0,0.0,0.0,-121.32159423828125,0.499777615070343,-0.47321346402168274,0.0,0.0,0.0,0.0,0.0,0.0,0.0,0.0,0.0,-0.010090387426316738,0.00734628876671195,0.010493396781384945,0.0,0.0,0.0,0.0,0.0,0.0,0.0,0.0,0.0
1606987104419044302,926548,1606983503650907553,imu_link,0.0017785461386665702,0.005736800841987133,-0.8717097640037537,0.4899858236312866,0.0,0.0,0.0,0.0,0.0,0.0,0.0,0.0,0.0,-121.32159423828125,0.499777615070343,-0.47321346402168274,0.0,0.0,0.0,0.0,0.0,0.0,0.0,0.0,0.0,-0.010090387426316738,0.00734628876671195,0.010493396781384945,0.0,0.0,0.0,0.0,0.0,0.0,0.0,0.0,0.0
1606987104419050193,926549,1606983503651069064,imu_link,0.0017804373055696487,0.00573719060048461,-0.8717092275619507,0.4899868667125702,0.0,0.0,0.0,0.0,0.0,0.0,0.0,0.0,0.0,-121.32145690917969,0.49998897314071655,-0.47314557433128357,0.0,0.0,0.0,0.0,0.0,0.0,0.0,0.0,0.0,0.0058837998658418655,0.022298453375697136,-0.00186179019510746,0.0,0.0,0.0,0.0,0.0,0.0,0.0,0.0,0.0
1606987104419068190,926550,1606983503651151366,imu_link,0.0017804373055696487,0.00573719060048461,-0.8717092275619507,0.4899868667125702,0.0,0.0,0.0,0.0,0.0,0.0,0.0,0.0,0.0,-121.32145690917969,0.49998897314071655,-0.47314557433128357,0.0,0.0,0.0,0.0,0.0,0.0,0.0,0.0,0.0,0.0058837998658418655,0.022298453375697136,-0.00186179019510746,0.0,0.0,0.0,0.0,0.0,0.0,0.0,0.0,0.0
1606987104419099081,926551,1606983503651232822,imu_link,0.0017817150801420212,0.0057410369627177715,-0.8717084527015686,0.48998796939849854,0.0,0.0,0.0,0.0,0.0,0.0,0.0,0.0,0.0,-121.3213119506836,0.5003331303596497,-0.4734574258327484,0.0,0.0,0.0,0.0,0.0,0.0,0.0,0.0,0.0,0.002809456316754222,0.02420729026198387,0.030634678900241852,0.0,0.0,0.0,0.0,0.0,0.0,0.0,0.0,0.0
1606987104419109463,926552,1606983503651313153,imu_link,0.0017817150801420212,0.0057410369627177715,-0.8717084527015686,0.48998796939849854,0.0,0.0,0.0,0.0,0.0,0.0,0.0,0.0,0.0,-121.3213119506836,0.5003331303596497,-0.4734574258327484,0.0,0.0,0.0,0.0,0.0,0.0,0.0,0.0,0.0,0.002809456316754222,0.02420729026198387,0.030634678900241852,0.0,0.0,0.0,0.0,0.0,0.0,0.0,0.0,0.0
1606987104419121603,926553,1606983503651402824,imu_link,0.001780781545676291,0.005741856060922146,-0.8717098236083984,0.48998555541038513,0.0,0.0,0.0,0.0,0.0,0.0,0.0,0.0,0.0,-121.32164001464844,0.5002846121788025,-0.4735931158065796,0.0,0.0,0.0,0.0,0.0,0.0,0.0,0.0,0.0,-0.016373595222830772,0.013521183282136917,0.042129963636398315,0.0,0.0,0.0,0.0,0.0,0.0,0.0,0.0,0.0
1606987104419130218,926554,1606983503651499884,imu_link,0.001780781545676291,0.005741856060922146,-0.8717098236083984,0.48998555541038513,0.0,0.0,0.0,0.0,0.0,0.0,0.0,0.0,0.0,-121.32164001464844,0.5002846121788025,-0.4735931158065796,0.0,0.0,0.0,0.0,0.0,0.0,0.0,0.0,0.0,-0.016373595222830772,0.013521183282136917,0.042129963636398315,0.0,0.0,0.0,0.0,0.0,0.0,0.0,0.0,0.0
1606987104419145004,926555,1606983503651578346,imu_link,0.0017806605901569128,0.005743340123444796,-0.8717111349105835,0.48998335003852844,0.0,0.0,0.0,0.0,0.0,0.0,0.0,0.0,0.0,-121.3219223022461,0.5003546476364136,-0.47374942898750305,0.0,0.0,0.0,0.0,0.0,0.0,0.0,0.0,0.0,-0.025044463574886322,0.006279652006924152,0.01270683016628027,0.0,0.0,0.0,0.0,0.0,0.0,0.0,0.0,0.0
1606987104419157212,926556,1606983503651657275,imu_link,0.0017806605901569128,0.005743340123444796,-0.8717111349105835,0.48998335003852844,0.0,0.0,0.0,0.0,0.0,0.0,0.0,0.0,0.0,-121.3219223022461,0.5003546476364136,-0.47374942898750305,0.0,0.0,0.0,0.0,0.0,0.0,0.0,0.0,0.0,-0.025044463574886322,0.006279652006924152,0.01270683016628027,0.0,0.0,0.0,0.0,0.0,0.0,0.0,0.0,0.0
1606987104419163588,926557,1606983503651732724,imu_link,0.00177923368755728,0.005741417873650789,-0.8717107176780701,0.48998403549194336,0.0,0.0,0.0,0.0,0.0,0.0,0.0,0.0,0.0,-121.32184600830078,0.500104546546936,-0.47363710403442383,0.0,0.0,0.0,0.0,0.0,0.0,0.0,0.0,0.0,-0.020348351448774338,-0.0034348410554230213,0.00798854697495699,0.0,0.0,0.0,0.0,0.0,0.0,0.0,0.0,0.0
1606987104419169986,926558,1606983503651805092,imu_link,0.00177923368755728,0.005741417873650789,-0.8717107176780701,0.48998403549194336,0.0,0.0,0.0,0.0,0.0,0.0,0.0,0.0,0.0,-121.32184600830078,0.500104546546936,-0.47363710403442383,0.0,0.0,0.0,0.0,0.0,0.0,0.0,0.0,0.0,-0.020348351448774338,-0.0034348410554230213,0.00798854697495699,0.0,0.0,0.0,0.0,0.0,0.0,0.0,0.0,0.0
1606987104419173665,926559,1606983503664591173,imu_link,0.001777017256245017,0.005739150568842888,-0.871712327003479,0.48998117446899414,0.0,0.0,0.0,0.0,0.0,0.0,0.0,0.0,0.0,-121.32221221923828,0.49975430965423584,-0.47353672981262207,0.0,0.0,0.0,0.0,0.0,0.0,0.0,0.0,0.0,-0.007375031244009733,-0.011303971521556377,0.015321493148803711,0.0,0.0,0.0,0.0,0.0,0.0,0.0,0.0,0.0
1606987104419185551,926560,1606983503664776762,imu_link,0.001777017256245017,0.005739150568842888,-0.871712327003479,0.48998117446899414,0.0,0.0,0.0,0.0,0.0,0.0,0.0,0.0,0.0,-121.32221221923828,0.49975430965423584,-0.47353672981262207,0.0,0.0,0.0,0.0,0.0,0.0,0.0,0.0,0.0,-0.007375031244009733,-0.011303971521556377,0.015321493148803711,0.0,0.0,0.0,0.0,0.0,0.0,0.0,0.0,0.0
1606987104419193578,926561,1606983503664862698,imu_link,0.0017778882756829262,0.0057405768893659115,-0.8717125058174133,0.4899808168411255,0.0,0.0,0.0,0.0,0.0,0.0,0.0,0.0,0.0,-121.32225036621094,0.49992114305496216,-0.47363048791885376,0.0,0.0,0.0,0.0,0.0,0.0,0.0,0.0,0.0,0.011489266529679298,-0.008001411333680153,0.029335007071495056,0.0,0.0,0.0,0.0,0.0,0.0,0.0,0.0,0.0
1606987104419197637,926562,1606983503664961198,imu_link,0.0017778882756829262,0.0057405768893659115,-0.8717125058174133,0.4899808168411255,0.0,0.0,0.0,0.0,0.0,0.0,0.0,0.0,0.0,-121.32225036621094,0.49992114305496216,-0.47363048791885376,0.0,0.0,0.0,0.0,0.0,0.0,0.0,0.0,0.0,0.011489266529679298,-0.008001411333680153,0.029335007071495056,0.0,0.0,0.0,0.0,0.0,0.0,0.0,0.0,0.0
1606987104419202251,926563,1606983503665052951,imu_link,0.00177793821785599,0.005742344539612532,-0.8717128038406372,0.4899803102016449,0.0,0.0,0.0,0.0,0.0,0.0,0.0,0.0,0.0,-121.32231903076172,0.5000251531600952,-0.4738045930862427,0.0,0.0,0.0,0.0,0.0,0.0,0.0,0.0,0.0,0.019329627975821495,-0.013253233395516872,0.032608453184366226,0.0,0.0,0.0,0.0,0.0,0.0,0.0,0.0,0.0
1606987104531354240,926564,1606983503665153050,imu_link,0.00177793821785599,0.005742344539612532,-0.8717128038406372,0.4899803102016449,0.0,0.0,0.0,0.0,0.0,0.0,0.0,0.0,0.0,-121.32231903076172,0.5000251531600952,-0.4738045930862427,0.0,0.0,0.0,0.0,0.0,0.0,0.0,0.0,0.0,0.019329627975821495,-0.013253233395516872,0.032608453184366226,0.0,0.0,0.0,0.0,0.0,0.0,0.0,0.0,0.0
1606987104531375628,926565,1606983503665235356,imu_link,0.0017775663873180747,0.005743161775171757,-0.8717131614685059,0.48997968435287476,0.0,0.0,0.0,0.0,0.0,0.0,0.0,0.0,0.0,-121.32240295410156,0.5000335574150085,-0.4739074110984802,0.0,0.0,0.0,0.0,0.0,0.0,0.0,0.0,0.0,0.01763768680393696,-0.026115048676729202,0.018029484897851944,0.0,0.0,0.0,0.0,0.0,0.0,0.0,0.0,0.0
1606987104531384645,926566,1606983503665311773,imu_link,0.0017775663873180747,0.005743161775171757,-0.8717131614685059,0.48997968435287476,0.0,0.0,0.0,0.0,0.0,0.0,0.0,0.0,0.0,-121.32240295410156,0.5000335574150085,-0.4739074110984802,0.0,0.0,0.0,0.0,0.0,0.0,0.0,0.0,0.0,0.01763768680393696,-0.026115048676729202,0.018029484897851944,0.0,0.0,0.0,0.0,0.0,0.0,0.0,0.0,0.0
1606987104541384409,926567,1606983503665388939,imu_link,0.0017816097242757678,0.00574194360524416,-0.8717120885848999,0.48998165130615234,0.0,0.0,0.0,0.0,0.0,0.0,0.0,0.0,0.0,-121.32215881347656,0.5003700852394104,-0.4735575318336487,0.0,0.0,0.0,0.0,0.0,0.0,0.0,0.0,0.0,0.009286575950682163,-0.014774705283343792,0.002247971948236227,0.0,0.0,0.0,0.0,0.0,0.0,0.0,0.0,0.0
1606987104541404349,926568,1606983503665466985,imu_link,0.0017816097242757678,0.00574194360524416,-0.8717120885848999,0.48998165130615234,0.0,0.0,0.0,0.0,0.0,0.0,0.0,0.0,0.0,-121.32215881347656,0.5003700852394104,-0.4735575318336487,0.0,0.0,0.0,0.0,0.0,0.0,0.0,0.0,0.0,0.009286575950682163,-0.014774705283343792,0.002247971948236227,0.0,0.0,0.0,0.0,0.0,0.0,0.0,0.0,0.0
1606987104541411097,926569,1606983503665547550,imu_link,0.0017829909920692444,0.005741664208471775,-0.8717119097709656,0.48998188972473145,0.0,0.0,0.0,0.0,0.0,0.0,0.0,0.0,0.0,-121.32211303710938,0.500492513179779,-0.4734519422054291,0.0,0.0,0.0,0.0,0.0,0.0,0.0,0.0,0.0,-0.002703083446249366,0.01336807943880558,-0.0012998894089832902,0.0,0.0,0.0,0.0,0.0,0.0,0.0,0.0,0.0
1606987104541431031,926570,1606983503677451080,imu_link,0.0017829909920692444,0.005741664208471775,-0.8717119097709656,0.48998188972473145,0.0,0.0,0.0,0.0,0.0,0.0,0.0,0.0,0.0,-121.32211303710938,0.500492513179779,-0.4734519422054291,0.0,0.0,0.0,0.0,0.0,0.0,0.0,0.0,0.0,-0.002703083446249366,0.01336807943880558,-0.0012998894089832902,0.0,0.0,0.0,0.0,0.0,0.0,0.0,0.0,0.0
1606987104545019743,926571,1606983503677585289,imu_link,0.0017818480264395475,0.005743701010942459,-0.8717119097709656,0.48998185992240906,0.0,0.0,0.0,0.0,0.0,0.0,0.0,0.0,0.0,-121.32211303710938,0.5004926919937134,-0.47371968626976013,0.0,0.0,0.0,0.0,0.0,0.0,0.0,0.0,0.0,-0.012701916508376598,0.00844885129481554,-0.011977202259004116,0.0,0.0,0.0,0.0,0.0,0.0,0.0,0.0,0.0
1606987104545041435,926572,1606983503677717351,imu_link,0.0017818480264395475,0.005743701010942459,-0.8717119097709656,0.48998185992240906,0.0,0.0,0.0,0.0,0.0,0.0,0.0,0.0,0.0,-121.32211303710938,0.5004926919937134,-0.47371968626976013,0.0,0.0,0.0,0.0,0.0,0.0,0.0,0.0,0.0,-0.012701916508376598,0.00844885129481554,-0.011977202259004116,0.0,0.0,0.0,0.0,0.0,0.0,0.0,0.0,0.0
1606987104545139153,926573,1606983503677820429,imu_link,0.001781306229531765,0.005745153874158859,-0.8717128038406372,0.4899802505970001,0.0,0.0,0.0,0.0,0.0,0.0,0.0,0.0,0.0,-121.32233428955078,0.5005192756652832,-0.4738961160182953,0.0,0.0,0.0,0.0,0.0,0.0,0.0,0.0,0.0,-0.019044583663344383,-0.0008709257235750556,-0.009564138948917389,0.0,0.0,0.0,0.0,0.0,0.0,0.0,0.0,0.0
1606987104545153857,926574,1606983503677905991,imu_link,0.001781306229531765,0.005745153874158859,-0.8717128038406372,0.4899802505970001,0.0,0.0,0.0,0.0,0.0,0.0,0.0,0.0,0.0,-121.32233428955078,0.5005192756652832,-0.4738961160182953,0.0,0.0,0.0,0.0,0.0,0.0,0.0,0.0,0.0,-0.019044583663344383,-0.0008709257235750556,-0.009564138948917389,0.0,0.0,0.0,0.0,0.0,0.0,0.0,0.0,0.0
1606987104545171811,926575,1606983503678003238,imu_link,0.0017807293916121125,0.005743676330894232,-0.8717135787010193,0.4899788498878479,0.0,0.0,0.0,0.0,0.0,0.0,0.0,0.0,0.0,-121.322509765625,0.5003779530525208,-0.4737817049026489,0.0,0.0,0.0,0.0,0.0,0.0,0.0,0.0,0.0,-0.002818272216245532,-0.006147587671875954,0.0022116261534392834,0.0,0.0,0.0,0.0,0.0,0.0,0.0,0.0,0.0
1606987104547931970,926576,1606983503678081984,imu_link,0.0017807293916121125,0.005743676330894232,-0.8717135787010193,0.4899788498878479,0.0,0.0,0.0,0.0,0.0,0.0,0.0,0.0,0.0,-121.322509765625,0.5003779530525208,-0.4737817049026489,0.0,0.0,0.0,0.0,0.0,0.0,0.0,0.0,0.0,-0.002818272216245532,-0.006147587671875954,0.0022116261534392834,0.0,0.0,0.0,0.0,0.0,0.0,0.0,0.0,0.0
1606987104547985158,926577,1606983503678159684,imu_link,0.0017793045844882727,0.005744818598031998,-0.8717130422592163,0.4899797737598419,0.0,0.0,0.0,0.0,0.0,0.0,0.0,0.0,0.0,-121.3223876953125,0.5003002285957336,-0.4739753007888794,0.0,0.0,0.0,0.0,0.0,0.0,0.0,0.0,0.0,0.008206306956708431,-0.015292084775865078,-0.014655700884759426,0.0,0.0,0.0,0.0,0.0,0.0,0.0,0.0,0.0
1606987104548003363,926578,1606983503678237451,imu_link,0.0017793045844882727,0.005744818598031998,-0.8717130422592163,0.4899797737598419,0.0,0.0,0.0,0.0,0.0,0.0,0.0,0.0,0.0,-121.3223876953125,0.5003002285957336,-0.4739753007888794,0.0,0.0,0.0,0.0,0.0,0.0,0.0,0.0,0.0,0.008206306956708431,-0.015292084775865078,-0.014655700884759426,0.0,0.0,0.0,0.0,0.0,0.0,0.0,0.0,0.0
1606987104548020342,926579,1606983503678314866,imu_link,0.0017820528009906411,0.005744640715420246,-0.8717128038406372,0.48998016119003296,0.0,0.0,0.0,0.0,0.0,0.0,0.0,0.0,0.0,-121.32234954833984,0.5005649328231812,-0.4738030433654785,0.0,0.0,0.0,0.0,0.0,0.0,0.0,0.0,0.0,0.005919170565903187,-0.015650611370801926,-0.02539863996207714,0.0,0.0,0.0,0.0,0.0,0.0,0.0,0.0,0.0
1606987104577693981,926580,1606983503691158432,imu_link,0.0017820528009906411,0.005744640715420246,-0.8717128038406372,0.48998016119003296,0.0,0.0,0.0,0.0,0.0,0.0,0.0,0.0,0.0,-121.32234954833984,0.5005649328231812,-0.4738030433654785,0.0,0.0,0.0,0.0,0.0,0.0,0.0,0.0,0.0,0.005919170565903187,-0.015650611370801926,-0.02539863996207714,0.0,0.0,0.0,0.0,0.0,0.0,0.0,0.0,0.0
1606987104577732274,926581,1606983503691290613,imu_link,0.0017812734004110098,0.0057450709864497185,-0.8717133402824402,0.4899793267250061,0.0,0.0,0.0,0.0,0.0,0.0,0.0,0.0,0.0,-121.32245635986328,0.5005108714103699,-0.47389018535614014,0.0,0.0,0.0,0.0,0.0,0.0,0.0,0.0,0.0,0.0006762907141819596,-0.023760687559843063,-0.004574977792799473,0.0,0.0,0.0,0.0,0.0,0.0,0.0,0.0,0.0
1606987104577747681,926582,1606983503691456209,imu_link,0.0017812734004110098,0.0057450709864497185,-0.8717133402824402,0.4899793267250061,0.0,0.0,0.0,0.0,0.0,0.0,0.0,0.0,0.0,-121.32245635986328,0.5005108714103699,-0.47389018535614014,0.0,0.0,0.0,0.0,0.0,0.0,0.0,0.0,0.0,0.0006762907141819596,-0.023760687559843063,-0.004574977792799473,0.0,0.0,0.0,0.0,0.0,0.0,0.0,0.0,0.0
1606987104577759183,926583,1606983503691548431,imu_link,0.0017815707251429558,0.005741680972278118,-0.8717127442359924,0.4899804890155792,0.0,0.0,0.0,0.0,0.0,0.0,0.0,0.0,0.0,-121.32231140136719,0.5003508925437927,-0.4735342264175415,0.0,0.0,0.0,0.0,0.0,0.0,0.0,0.0,0.0,-0.00947707798331976,-0.01709084026515484,-0.00138281867839396,0.0,0.0,0.0,0.0,0.0,0.0,0.0,0.0,0.0
1606987104588818897,926584,1606983503691627570,imu_link,0.0017815707251429558,0.005741680972278118,-0.8717127442359924,0.4899804890155792,0.0,0.0,0.0,0.0,0.0,0.0,0.0,0.0,0.0,-121.32231140136719,0.5003508925437927,-0.4735342264175415,0.0,0.0,0.0,0.0,0.0,0.0,0.0,0.0,0.0,-0.00947707798331976,-0.01709084026515484,-0.00138281867839396,0.0,0.0,0.0,0.0,0.0,0.0,0.0,0.0,0.0
1606987104588840678,926585,1606983503691705715,imu_link,0.00178132439032197,0.005740772001445293,-0.8717125058174133,0.4899808168411255,0.0,0.0,0.0,0.0,0.0,0.0,0.0,0.0,0.0,-121.32225036621094,0.5002753734588623,-0.473457008600235,0.0,0.0,0.0,0.0,0.0,0.0,0.0,0.0,0.0,-0.0015716977650299668,-0.00822801236063242,-0.02097155526280403,0.0,0.0,0.0,0.0,0.0,0.0,0.0,0.0,0.0
1606987104588853892,926586,1606983503691799114,imu_link,0.00178132439032197,0.005740772001445293,-0.8717125058174133,0.4899808168411255,0.0,0.0,0.0,0.0,0.0,0.0,0.0,0.0,0.0,-121.32225036621094,0.5002753734588623,-0.473457008600235,0.0,0.0,0.0,0.0,0.0,0.0,0.0,0.0,0.0,-0.0015716977650299668,-0.00822801236063242,-0.02097155526280403,0.0,0.0,0.0,0.0,0.0,0.0,0.0,0.0,0.0
1606987104588876606,926587,1606983503691878650,imu_link,0.0017815791070461273,0.005739948246628046,-0.8717119097709656,0.48998185992240906,0.0,0.0,0.0,0.0,0.0,0.0,0.0,0.0,0.0,-121.32211303710938,0.5002551674842834,-0.4733598828315735,0.0,0.0,0.0,0.0,0.0,0.0,0.0,0.0,0.0,0.007122819311916828,-0.0032505104318261147,-0.010486356914043427,0.0,0.0,0.0,0.0,0.0,0.0,0.0,0.0,0.0
1606987104588895869,926588,1606983503691955698,imu_link,0.0017815791070461273,0.005739948246628046,-0.8717119097709656,0.48998185992240906,0.0,0.0,0.0,0.0,0.0,0.0,0.0,0.0,0.0,-121.32211303710938,0.5002551674842834,-0.4733598828315735,0.0,0.0,0.0,0.0,0.0,0.0,0.0,0.0,0.0,0.007122819311916828,-0.0032505104318261147,-0.010486356914043427,0.0,0.0,0.0,0.0,0.0,0.0,0.0,0.0,0.0
1606987104588905782,926589,1606983503692034891,imu_link,0.0017793201841413975,0.0057402243837714195,-0.8717113137245178,0.4899829030036926,0.0,0.0,0.0,0.0,0.0,0.0,0.0,0.0,0.0,-121.32198333740234,0.5000455379486084,-0.473513662815094,0.0,0.0,0.0,0.0,0.0,0.0,0.0,0.0,0.0,0.011790369637310505,-0.0030901653226464987,0.01678122580051422,0.0,0.0,0.0,0.0,0.0,0.0,0.0,0.0,0.0
1606987104588936645,926590,1606983503692110376,imu_link,0.0017793201841413975,0.0057402243837714195,-0.8717113137245178,0.4899829030036926,0.0,0.0,0.0,0.0,0.0,0.0,0.0,0.0,0.0,-121.32198333740234,0.5000455379486084,-0.473513662815094,0.0,0.0,0.0,0.0,0.0,0.0,0.0,0.0,0.0,0.011790369637310505,-0.0030901653226464987,0.01678122580051422,0.0,0.0,0.0,0.0,0.0,0.0,0.0,0.0,0.0
1606987104588990561,926591,1606983503704695903,imu_link,0.0017807414988055825,0.0057416511699557304,-0.8717111349105835,0.48998335003852844,0.0,0.0,0.0,0.0,0.0,0.0,0.0,0.0,0.0,-121.3219223022461,0.5002678632736206,-0.4735760986804962,0.0,0.0,0.0,0.0,0.0,0.0,0.0,0.0,0.0,0.009048661217093468,-0.001611184561625123,0.03876478597521782,0.0,0.0,0.0,0.0,0.0,0.0,0.0,0.0,0.0
1606987104599723899,926592,1606983503704871554,imu_link,0.0017807414988055825,0.0057416511699557304,-0.8717111349105835,0.48998335003852844,0.0,0.0,0.0,0.0,0.0,0.0,0.0,0.0,0.0,-121.3219223022461,0.5002678632736206,-0.4735760986804962,0.0,0.0,0.0,0.0,0.0,0.0,0.0,0.0,0.0,0.009048661217093468,-0.001611184561625123,0.03876478597521782,0.0,0.0,0.0,0.0,0.0,0.0,0.0,0.0,0.0
1606987104599750798,926593,1606983503704964056,imu_link,0.0017799343913793564,0.005741165019571781,-0.8717115521430969,0.4899825155735016,0.0,0.0,0.0,0.0,0.0,0.0,0.0,0.0,0.0,-121.32203674316406,0.500159502029419,-0.47357338666915894,0.0,0.0,0.0,0.0,0.0,0.0,0.0,0.0,0.0,0.0009731024620123208,0.006901467218995094,0.06007697060704231,0.0,0.0,0.0,0.0,0.0,0.0,0.0,0.0,0.0
1606987104599770691,926594,1606983503705055223,imu_link,0.0017799343913793564,0.005741165019571781,-0.8717115521430969,0.4899825155735016,0.0,0.0,0.0,0.0,0.0,0.0,0.0,0.0,0.0,-121.32203674316406,0.500159502029419,-0.47357338666915894,0.0,0.0,0.0,0.0,0.0,0.0,0.0,0.0,0.0,0.0009731024620123208,0.006901467218995094,0.06007697060704231,0.0,0.0,0.0,0.0,0.0,0.0,0.0,0.0,0.0
1606987104599794355,926595,1606983503705137734,imu_link,0.001776596182025969,0.005741634406149387,-0.8717108964920044,0.4899836778640747,0.0,0.0,0.0,0.0,0.0,0.0,0.0,0.0,0.0,-121.32188415527344,0.4998530149459839,-0.47380703687667847,0.0,0.0,0.0,0.0,0.0,0.0,0.0,0.0,0.0,0.005703587085008621,0.017639219760894775,0.033926669508218765,0.0,0.0,0.0,0.0,0.0,0.0,0.0,0.0,0.0
1606987104599840682,926596,1606983503705216422,imu_link,0.001776596182025969,0.005741634406149387,-0.8717108964920044,0.4899836778640747,0.0,0.0,0.0,0.0,0.0,0.0,0.0,0.0,0.0,-121.32188415527344,0.4998530149459839,-0.47380703687667847,0.0,0.0,0.0,0.0,0.0,0.0,0.0,0.0,0.0,0.005703587085008621,0.017639219760894775,0.033926669508218765,0.0,0.0,0.0,0.0,0.0,0.0,0.0,0.0,0.0
1606987104606236818,926597,1606983503705319656,imu_link,0.0017765189986675978,0.005741816014051437,-0.8717114925384521,0.48998263478279114,0.0,0.0,0.0,0.0,0.0,0.0,0.0,0.0,0.0,-121.322021484375,0.4998549222946167,-0.47383010387420654,0.0,0.0,0.0,0.0,0.0,0.0,0.0,0.0,0.0,0.018717700615525246,0.005210521165281534,0.005262189544737339,0.0,0.0,0.0,0.0,0.0,0.0,0.0,0.0,0.0
1606987104606256761,926598,1606983503705398542,imu_link,0.0017765189986675978,0.005741816014051437,-0.8717114925384521,0.48998263478279114,0.0,0.0,0.0,0.0,0.0,0.0,0.0,0.0,0.0,-121.322021484375,0.4998549222946167,-0.47383010387420654,0.0,0.0,0.0,0.0,0.0,0.0,0.0,0.0,0.0,0.018717700615525246,0.005210521165281534,0.005262189544737339,0.0,0.0,0.0,0.0,0.0,0.0,0.0,0.0,0.0
1606987104606269459,926599,1606983503705548586,imu_link,0.0017779978225007653,0.0057433112524449825,-0.8717103004455566,0.48998475074768066,0.0,0.0,0.0,0.0,0.0,0.0,0.0,0.0,0.0,-121.32173156738281,0.5000877976417542,-0.47389519214630127,0.0,0.0,0.0,0.0,0.0,0.0,0.0,0.0,0.0,0.028930282220244408,-0.011376317590475082,0.022626712918281555,0.0,0.0,0.0,0.0,0.0,0.0,0.0,0.0,0.0
1606987104606290526,926600,1606983503705632916,imu_link,0.0017779978225007653,0.0057433112524449825,-0.8717103004455566,0.48998475074768066,0.0,0.0,0.0,0.0,0.0,0.0,0.0,0.0,0.0,-121.32173156738281,0.5000877976417542,-0.47389519214630127,0.0,0.0,0.0,0.0,0.0,0.0,0.0,0.0,0.0,0.028930282220244408,-0.011376317590475082,0.022626712918281555,0.0,0.0,0.0,0.0,0.0,0.0,0.0,0.0,0.0
1606987104663631726,926601,1606983503705706642,imu_link,0.0017779978225007653,0.0057433112524449825,-0.8717103004455566,0.48998475074768066,0.0,0.0,0.0,0.0,0.0,0.0,0.0,0.0,0.0,-121.32173156738281,0.5000877976417542,-0.47389519214630127,0.0,0.0,0.0,0.0,0.0,0.0,0.0,0.0,0.0,0.0028218189254403114,0.0015987323131412268,0.02809889242053032,0.0,0.0,0.0,0.0,0.0,0.0,0.0,0.0,0.0
1606987104663660957,926602,1606983503718527603,imu_link,0.0017779978225007653,0.0057433112524449825,-0.8717103004455566,0.48998475074768066,0.0,0.0,0.0,0.0,0.0,0.0,0.0,0.0,0.0,-121.32173156738281,0.5000877976417542,-0.47389519214630127,0.0,0.0,0.0,0.0,0.0,0.0,0.0,0.0,0.0,0.0028218189254403114,0.0015987323131412268,0.02809889242053032,0.0,0.0,0.0,0.0,0.0,0.0,0.0,0.0,0.0
1606987104663696320,926603,1606983503718671486,imu_link,0.0017790767597034574,0.005744911264628172,-0.8717105388641357,0.48998430371284485,0.0,0.0,0.0,0.0,0.0,0.0,0.0,0.0,0.0,-121.3218002319336,0.5002851486206055,-0.47399473190307617,0.0,0.0,0.0,0.0,0.0,0.0,0.0,0.0,0.0,-0.006734606344252825,0.0057149166241288185,0.029411455616354942,0.0,0.0,0.0,0.0,0.0,0.0,0.0,0.0,0.0
1606987104663713727,926604,1606983503718867299,imu_link,0.0017790767597034574,0.005744911264628172,-0.8717105388641357,0.48998430371284485,0.0,0.0,0.0,0.0,0.0,0.0,0.0,0.0,0.0,-121.3218002319336,0.5002851486206055,-0.47399473190307617,0.0,0.0,0.0,0.0,0.0,0.0,0.0,0.0,0.0,-0.006734606344252825,0.0057149166241288185,0.029411455616354942,0.0,0.0,0.0,0.0,0.0,0.0,0.0,0.0,0.0
1606987104663725477,926605,1606983503719027851,imu_link,0.0017774221487343311,0.005744577385485172,-0.871709942817688,0.48998531699180603,0.0,0.0,0.0,0.0,0.0,0.0,0.0,0.0,0.0,-121.32166290283203,0.5001016855239868,-0.47405368089675903,0.0,0.0,0.0,0.0,0.0,0.0,0.0,0.0,0.0,0.024713685736060143,-0.000775802880525589,0.042132046073675156,0.0,0.0,0.0,0.0,0.0,0.0,0.0,0.0,0.0
1606987104663744403,926606,1606983503719121808,imu_link,0.0017774221487343311,0.005744577385485172,-0.871709942817688,0.48998531699180603,0.0,0.0,0.0,0.0,0.0,0.0,0.0,0.0,0.0,-121.32166290283203,0.5001016855239868,-0.47405368089675903,0.0,0.0,0.0,0.0,0.0,0.0,0.0,0.0,0.0,0.024713685736060143,-0.000775802880525589,0.042132046073675156,0.0,0.0,0.0,0.0,0.0,0.0,0.0,0.0,0.0
1606987104663814137,926607,1606983503719232935,imu_link,0.0017813772428780794,0.005746467038989067,-0.8717105388641357,0.48998427391052246,0.0,0.0,0.0,0.0,0.0,0.0,0.0,0.0,0.0,-121.3218002319336,0.5006023049354553,-0.47402095794677734,0.0,0.0,0.0,0.0,0.0,0.0,0.0,0.0,0.0,0.02850157767534256,-0.0008036267245188355,0.039608150720596313,0.0,0.0,0.0,0.0,0.0,0.0,0.0,0.0,0.0
1606987104663839555,926608,1606983503719320498,imu_link,0.0017813772428780794,0.005746467038989067,-0.8717105388641357,0.48998427391052246,0.0,0.0,0.0,0.0,0.0,0.0,0.0,0.0,0.0,-121.3218002319336,0.5006023049354553,-0.47402095794677734,0.0,0.0,0.0,0.0,0.0,0.0,0.0,0.0,0.0,0.02850157767534256,-0.0008036267245188355,0.039608150720596313,0.0,0.0,0.0,0.0,0.0,0.0,0.0,0.0,0.0
1606987104674655119,926609,1606983503719506654,imu_link,0.0017831955337896943,0.005747262854129076,-0.8717113733291626,0.4899827837944031,0.0,0.0,0.0,0.0,0.0,0.0,0.0,0.0,0.0,-121.32199096679688,0.5008278489112854,-0.4739992618560791,0.0,0.0,0.0,0.0,0.0,0.0,0.0,0.0,0.0,-0.002818143228068948,0.0011650965316221118,0.008632595650851727,0.0,0.0,0.0,0.0,0.0,0.0,0.0,0.0,0.0
1606987104674691200,926610,1606983503719597549,imu_link,0.0017831955337896943,0.005747262854129076,-0.8717113733291626,0.4899827837944031,0.0,0.0,0.0,0.0,0.0,0.0,0.0,0.0,0.0,-121.32199096679688,0.5008278489112854,-0.4739992618560791,0.0,0.0,0.0,0.0,0.0,0.0,0.0,0.0,0.0,-0.002818143228068948,0.0011650965316221118,0.008632595650851727,0.0,0.0,0.0,0.0,0.0,0.0,0.0,0.0,0.0
1606987104674709793,926611,1606983503719680321,imu_link,0.0017841947264969349,0.005748581141233444,-0.8717110753059387,0.48998329043388367,0.0,0.0,0.0,0.0,0.0,0.0,0.0,0.0,0.0,-121.32193756103516,0.5010019540786743,-0.4740745425224304,0.0,0.0,0.0,0.0,0.0,0.0,0.0,0.0,0.0,-0.025987861678004265,-0.0045799934305250645,-0.009417273104190826,0.0,0.0,0.0,0.0,0.0,0.0,0.0,0.0,0.0
1606987104674732663,926612,1606983503719768460,imu_link,0.0017841947264969349,0.005748581141233444,-0.8717110753059387,0.48998329043388367,0.0,0.0,0.0,0.0,0.0,0.0,0.0,0.0,0.0,-121.32193756103516,0.5010019540786743,-0.4740745425224304,0.0,0.0,0.0,0.0,0.0,0.0,0.0,0.0,0.0,-0.025987861678004265,-0.0045799934305250645,-0.009417273104190826,0.0,0.0,0.0,0.0,0.0,0.0,0.0,0.0,0.0
1606987104674756135,926613,1606983503731313964,imu_link,0.0017856369959190488,0.005748451687395573,-0.8717110753059387,0.48998332023620605,0.0,0.0,0.0,0.0,0.0,0.0,0.0,0.0,0.0,-121.32193756103516,0.5011387467384338,-0.4739806354045868,0.0,0.0,0.0,0.0,0.0,0.0,0.0,0.0,0.0,-0.030430300161242485,-0.01142758410423994,-0.023384079337120056,0.0,0.0,0.0,0.0,0.0,0.0,0.0,0.0,0.0
1606987104674804058,926614,1606983503731457321,imu_link,0.0017856369959190488,0.005748451687395573,-0.8717110753059387,0.48998332023620605,0.0,0.0,0.0,0.0,0.0,0.0,0.0,0.0,0.0,-121.32193756103516,0.5011387467384338,-0.4739806354045868,0.0,0.0,0.0,0.0,0.0,0.0,0.0,0.0,0.0,-0.030430300161242485,-0.01142758410423994,-0.023384079337120056,0.0,0.0,0.0,0.0,0.0,0.0,0.0,0.0,0.0
1606987104674847945,926615,1606983503731612240,imu_link,0.0017832526937127113,0.005746821407228708,-0.8717105984687805,0.4899842143058777,0.0,0.0,0.0,0.0,0.0,0.0,0.0,0.0,0.0,-121.32181549072266,0.5008094906806946,-0.473951131105423,0.0,0.0,0.0,0.0,0.0,0.0,0.0,0.0,0.0,-0.026286501437425613,-0.016832593828439713,-0.023071931675076485,0.0,0.0,0.0,0.0,0.0,0.0,0.0,0.0,0.0
1606987104674869745,926616,1606983503731718024,imu_link,0.0017832526937127113,0.005746821407228708,-0.8717105984687805,0.4899842143058777,0.0,0.0,0.0,0.0,0.0,0.0,0.0,0.0,0.0,-121.32181549072266,0.5008094906806946,-0.473951131105423,0.0,0.0,0.0,0.0,0.0,0.0,0.0,0.0,0.0,-0.026286501437425613,-0.016832593828439713,-0.023071931675076485,0.0,0.0,0.0,0.0,0.0,0.0,0.0,0.0,0.0
1606987104674881159,926617,1606983503731802926,imu_link,0.0017821481451392174,0.005746981594711542,-0.8717117309570312,0.4899821877479553,0.0,0.0,0.0,0.0,0.0,0.0,0.0,0.0,0.0,-121.32207489013672,0.5007069706916809,-0.4740303158760071,0.0,0.0,0.0,0.0,0.0,0.0,0.0,0.0,0.0,-0.011294238269329071,-0.0024940255098044872,0.007414279039949179,0.0,0.0,0.0,0.0,0.0,0.0,0.0,0.0,0.0
1606987104776035434,926618,1606983503731911783,imu_link,0.0017821481451392174,0.005746981594711542,-0.8717117309570312,0.4899821877479553,0.0,0.0,0.0,0.0,0.0,0.0,0.0,0.0,0.0,-121.32207489013672,0.5007069706916809,-0.4740303158760071,0.0,0.0,0.0,0.0,0.0,0.0,0.0,0.0,0.0,-0.011294238269329071,-0.0024940255098044872,0.007414279039949179,0.0,0.0,0.0,0.0,0.0,0.0,0.0,0.0,0.0
1606987104776054313,926619,1606983503731997301,imu_link,0.001781864557415247,0.005745162256062031,-0.871711790561676,0.4899820387363434,0.0,0.0,0.0,0.0,0.0,0.0,0.0,0.0,0.0,-121.32210540771484,0.5005764961242676,-0.47386467456817627,0.0,0.0,0.0,0.0,0.0,0.0,0.0,0.0,0.0,0.008187367580831051,0.01962057128548622,0.018309153616428375,0.0,0.0,0.0,0.0,0.0,0.0,0.0,0.0,0.0
1606987104776064947,926620,1606983503732092551,imu_link,0.001781864557415247,0.005745162256062031,-0.871711790561676,0.4899820387363434,0.0,0.0,0.0,0.0,0.0,0.0,0.0,0.0,0.0,-121.32210540771484,0.5005764961242676,-0.47386467456817627,0.0,0.0,0.0,0.0,0.0,0.0,0.0,0.0,0.0,0.008187367580831051,0.01962057128548622,0.018309153616428375,0.0,0.0,0.0,0.0,0.0,0.0,0.0,0.0,0.0
1606987104776085454,926621,1606983503732183963,imu_link,0.001780624850653112,0.0057435366325080395,-0.871712327003479,0.4899810552597046,0.0,0.0,0.0,0.0,0.0,0.0,0.0,0.0,0.0,-121.32222747802734,0.5003608465194702,-0.4737723767757416,0.0,0.0,0.0,0.0,0.0,0.0,0.0,0.0,0.0,0.011722748167812824,0.027212081477046013,0.015853386372327805,0.0,0.0,0.0,0.0,0.0,0.0,0.0,0.0,0.0
1606987104793676515,926622,1606983503732267321,imu_link,0.001780624850653112,0.0057435366325080395,-0.871712327003479,0.4899810552597046,0.0,0.0,0.0,0.0,0.0,0.0,0.0,0.0,0.0,-121.32222747802734,0.5003608465194702,-0.4737723767757416,0.0,0.0,0.0,0.0,0.0,0.0,0.0,0.0,0.0,0.011722748167812824,0.027212081477046013,0.015853386372327805,0.0,0.0,0.0,0.0,0.0,0.0,0.0,0.0,0.0
1606987104793702285,926623,1606983503744873600,imu_link,0.0017802666407078505,0.005746995098888874,-0.8717123866081238,0.4899810254573822,0.0,0.0,0.0,0.0,0.0,0.0,0.0,0.0,0.0,-121.3222427368164,0.5005192160606384,-0.47413793206214905,0.0,0.0,0.0,0.0,0.0,0.0,0.0,0.0,0.0,-0.0002423514233669266,0.024230655282735825,0.0212103258818388,0.0,0.0,0.0,0.0,0.0,0.0,0.0,0.0,0.0
1606987104793709484,926624,1606983503745027081,imu_link,0.0017802666407078505,0.005746995098888874,-0.8717123866081238,0.4899810254573822,0.0,0.0,0.0,0.0,0.0,0.0,0.0,0.0,0.0,-121.3222427368164,0.5005192160606384,-0.47413793206214905,0.0,0.0,0.0,0.0,0.0,0.0,0.0,0.0,0.0,-0.0002423514233669266,0.024230655282735825,0.0212103258818388,0.0,0.0,0.0,0.0,0.0,0.0,0.0,0.0,0.0
1606987104793725666,926625,1606983503745172823,imu_link,0.001779841142706573,0.005743769463151693,-0.8717130422592163,0.4899798631668091,0.0,0.0,0.0,0.0,0.0,0.0,0.0,0.0,0.0,-121.3223876953125,0.5002949237823486,-0.4738403558731079,0.0,0.0,0.0,0.0,0.0,0.0,0.0,0.0,0.0,0.00043019873555749655,0.013002059422433376,0.00783565454185009,0.0,0.0,0.0,0.0,0.0,0.0,0.0,0.0,0.0
1606987104797746709,926626,1606983503745270975,imu_link,0.001779841142706573,0.005743769463151693,-0.8717130422592163,0.4899798631668091,0.0,0.0,0.0,0.0,0.0,0.0,0.0,0.0,0.0,-121.3223876953125,0.5002949237823486,-0.4738403558731079,0.0,0.0,0.0,0.0,0.0,0.0,0.0,0.0,0.0,0.00043019873555749655,0.013002059422433376,0.00783565454185009,0.0,0.0,0.0,0.0,0.0,0.0,0.0,0.0,0.0
1606987104797784773,926627,1606983503745370275,imu_link,0.0017798185581341386,0.005745581351220608,-0.871712863445282,0.48998016119003296,0.0,0.0,0.0,0.0,0.0,0.0,0.0,0.0,0.0,-121.32234954833984,0.5003946423530579,-0.47402241826057434,0.0,0.0,0.0,0.0,0.0,0.0,0.0,0.0,0.0,-0.0028910699766129255,0.0011137098772451282,-0.004908740520477295,0.0,0.0,0.0,0.0,0.0,0.0,0.0,0.0,0.0
1606987104797819018,926628,1606983503745453683,imu_link,0.0017798185581341386,0.005745581351220608,-0.871712863445282,0.48998016119003296,0.0,0.0,0.0,0.0,0.0,0.0,0.0,0.0,0.0,-121.32234954833984,0.5003946423530579,-0.47402241826057434,0.0,0.0,0.0,0.0,0.0,0.0,0.0,0.0,0.0,-0.0028910699766129255,0.0011137098772451282,-0.004908740520477295,0.0,0.0,0.0,0.0,0.0,0.0,0.0,0.0,0.0
1606987104797850018,926629,1606983503745564780,imu_link,0.0017815671162679791,0.005744962953031063,-0.8717132806777954,0.48997941613197327,0.0,0.0,0.0,0.0,0.0,0.0,0.0,0.0,0.0,-121.32244110107422,0.500534176826477,-0.4738629162311554,0.0,0.0,0.0,0.0,0.0,0.0,0.0,0.0,0.0,-0.012085560709238052,0.004217174835503101,-0.009748340584337711,0.0,0.0,0.0,0.0,0.0,0.0,0.0,0.0,0.0
1606987104797882353,926630,1606983503745647281,imu_link,0.0017815671162679791,0.005744962953031063,-0.8717132806777954,0.48997941613197327,0.0,0.0,0.0,0.0,0.0,0.0,0.0,0.0,0.0,-121.32244110107422,0.500534176826477,-0.4738629162311554,0.0,0.0,0.0,0.0,0.0,0.0,0.0,0.0,0.0,-0.012085560709238052,0.004217174835503101,-0.009748340584337711,0.0,0.0,0.0,0.0,0.0,0.0,0.0,0.0,0.0
1606987104799908729,926631,1606983503745734849,imu_link,0.0017795367166399956,0.005743727553635836,-0.8717130422592163,0.4899798333644867,0.0,0.0,0.0,0.0,0.0,0.0,0.0,0.0,0.0,-121.3223876953125,0.5002622008323669,-0.4738532602787018,0.0,0.0,0.0,0.0,0.0,0.0,0.0,0.0,0.0,-0.010428115725517273,0.005468402989208698,-0.013312398456037045,0.0,0.0,0.0,0.0,0.0,0.0,0.0,0.0,0.0
1606987104799951980,926632,1606983503745817324,imu_link,0.0017795367166399956,0.005743727553635836,-0.8717130422592163,0.4899798333644867,0.0,0.0,0.0,0.0,0.0,0.0,0.0,0.0,0.0,-121.3223876953125,0.5002622008323669,-0.4738532602787018,0.0,0.0,0.0,0.0,0.0,0.0,0.0,0.0,0.0,-0.010428115725517273,0.005468402989208698,-0.013312398456037045,0.0,0.0,0.0,0.0,0.0,0.0,0.0,0.0,0.0
1606987104799969834,926633,1606983503745912700,imu_link,0.0017783419461920857,0.0057445671409368515,-0.8717132806777954,0.48997941613197327,0.0,0.0,0.0,0.0,0.0,0.0,0.0,0.0,0.0,-121.32244110107422,0.5001897811889648,-0.4740043878555298,0.0,0.0,0.0,0.0,0.0,0.0,0.0,0.0,0.0,-0.013854149729013443,-0.0007561420206911862,-0.013176324777305126,0.0,0.0,0.0,0.0,0.0,0.0,0.0,0.0,0.0
1606987104799983212,926634,1606983503758713347,imu_link,0.0017783419461920857,0.0057445671409368515,-0.8717132806777954,0.48997941613197327,0.0,0.0,0.0,0.0,0.0,0.0,0.0,0.0,0.0,-121.32244110107422,0.5001897811889648,-0.4740043878555298,0.0,0.0,0.0,0.0,0.0,0.0,0.0,0.0,0.0,-0.013854149729013443,-0.0007561420206911862,-0.013176324777305126,0.0,0.0,0.0,0.0,0.0,0.0,0.0,0.0,0.0
1606987104806888932,926635,1606983503758845261,imu_link,0.0017777131870388985,0.005742856301367283,-0.8717135190963745,0.4899790287017822,0.0,0.0,0.0,0.0,0.0,0.0,0.0,0.0,0.0,-121.32250213623047,0.5000306963920593,-0.47386905550956726,0.0,0.0,0.0,0.0,0.0,0.0,0.0,0.0,0.0,-0.01943373866379261,0.007924895733594894,-0.0062995837070047855,0.0,0.0,0.0,0.0,0.0,0.0,0.0,0.0,0.0
1606987104806923429,926636,1606983503759049483,imu_link,0.0017777131870388985,0.005742856301367283,-0.8717135190963745,0.4899790287017822,0.0,0.0,0.0,0.0,0.0,0.0,0.0,0.0,0.0,-121.32250213623047,0.5000306963920593,-0.47386905550956726,0.0,0.0,0.0,0.0,0.0,0.0,0.0,0.0,0.0,-0.01943373866379261,0.007924895733594894,-0.0062995837070047855,0.0,0.0,0.0,0.0,0.0,0.0,0.0,0.0,0.0
1606987104806934937,926637,1606983503759161236,imu_link,0.0017760773189365864,0.005741179920732975,-0.8717129230499268,0.4899800419807434,0.0,0.0,0.0,0.0,0.0,0.0,0.0,0.0,0.0,-121.32234954833984,0.49977371096611023,-0.4737928509712219,0.0,0.0,0.0,0.0,0.0,0.0,0.0,0.0,0.0,-0.0077331094071269035,0.015009384602308273,0.025709491223096848,0.0,0.0,0.0,0.0,0.0,0.0,0.0,0.0,0.0
1606987104806944078,926638,1606983503759255038,imu_link,0.0017760773189365864,0.005741179920732975,-0.8717129230499268,0.4899800419807434,0.0,0.0,0.0,0.0,0.0,0.0,0.0,0.0,0.0,-121.32234954833984,0.49977371096611023,-0.4737928509712219,0.0,0.0,0.0,0.0,0.0,0.0,0.0,0.0,0.0,-0.0077331094071269035,0.015009384602308273,0.025709491223096848,0.0,0.0,0.0,0.0,0.0,0.0,0.0,0.0,0.0
1606987104842398221,926639,1606983503759343358,imu_link,0.0017733013955876231,0.0057436320930719376,-0.871712863445282,0.48998013138771057,0.0,0.0,0.0,0.0,0.0,0.0,0.0,0.0,0.0,-121.32234954833984,0.49963411688804626,-0.47419360280036926,0.0,0.0,0.0,0.0,0.0,0.0,0.0,0.0,0.0,0.00711776502430439,0.0040749190375208855,0.048572659492492676,0.0,0.0,0.0,0.0,0.0,0.0,0.0,0.0,0.0
1606987104842438494,926640,1606983503759448742,imu_link,0.0017733013955876231,0.0057436320930719376,-0.871712863445282,0.48998013138771057,0.0,0.0,0.0,0.0,0.0,0.0,0.0,0.0,0.0,-121.32234954833984,0.49963411688804626,-0.47419360280036926,0.0,0.0,0.0,0.0,0.0,0.0,0.0,0.0,0.0,0.00711776502430439,0.0040749190375208855,0.048572659492492676,0.0,0.0,0.0,0.0,0.0,0.0,0.0,0.0,0.0
1606987104842470723,926641,1606983503759536805,imu_link,0.0017752954736351967,0.005744248162955046,-0.8717136383056641,0.4899789094924927,0.0,0.0,0.0,0.0,0.0,0.0,0.0,0.0,0.0,-121.322509765625,0.4998672604560852,-0.474143922328949,0.0,0.0,0.0,0.0,0.0,0.0,0.0,0.0,0.0,0.013106139376759529,-0.004699603654444218,0.04357378929853439,0.0,0.0,0.0,0.0,0.0,0.0,0.0,0.0,0.0
1606987104842495113,926642,1606983503759617663,imu_link,0.0017752954736351967,0.005744248162955046,-0.8717136383056641,0.4899789094924927,0.0,0.0,0.0,0.0,0.0,0.0,0.0,0.0,0.0,-121.322509765625,0.4998672604560852,-0.474143922328949,0.0,0.0,0.0,0.0,0.0,0.0,0.0,0.0,0.0,0.013106139376759529,-0.004699603654444218,0.04357378929853439,0.0,0.0,0.0,0.0,0.0,0.0,0.0,0.0,0.0
1606987104847510093,926643,1606983503759707831,imu_link,0.0017781925853341818,0.005743273999541998,-0.8717136383056641,0.4899787902832031,0.0,0.0,0.0,0.0,0.0,0.0,0.0,0.0,0.0,-121.32252502441406,0.5001018643379211,-0.4738839864730835,0.0,0.0,0.0,0.0,0.0,0.0,0.0,0.0,0.0,0.010765778832137585,-0.0019383084727451205,0.010635880753397942,0.0,0.0,0.0,0.0,0.0,0.0,0.0,0.0,0.0
1606987104847567148,926644,1606983503759793895,imu_link,0.0017781925853341818,0.005743273999541998,-0.8717136383056641,0.4899787902832031,0.0,0.0,0.0,0.0,0.0,0.0,0.0,0.0,0.0,-121.32252502441406,0.5001018643379211,-0.4738839864730835,0.0,0.0,0.0,0.0,0.0,0.0,0.0,0.0,0.0,0.010765778832137585,-0.0019383084727451205,0.010635880753397942,0.0,0.0,0.0,0.0,0.0,0.0,0.0,0.0,0.0
1606987104847589499,926645,1606983503772119115,imu_link,0.0017764681251719594,0.005743146408349276,-0.8717141151428223,0.48997798562049866,0.0,0.0,0.0,0.0,0.0,0.0,0.0,0.0,0.0,-121.3226318359375,0.4999220669269562,-0.473968505859375,0.0,0.0,0.0,0.0,0.0,0.0,0.0,0.0,0.0,0.01576789654791355,-0.014949987642467022,-0.011328955180943012,0.0,0.0,0.0,0.0,0.0,0.0,0.0,0.0,0.0
1606987104847615605,926646,1606983503772257660,imu_link,0.0017764681251719594,0.005743146408349276,-0.8717141151428223,0.48997798562049866,0.0,0.0,0.0,0.0,0.0,0.0,0.0,0.0,0.0,-121.3226318359375,0.4999220669269562,-0.473968505859375,0.0,0.0,0.0,0.0,0.0,0.0,0.0,0.0,0.0,0.01576789654791355,-0.014949987642467022,-0.011328955180943012,0.0,0.0,0.0,0.0,0.0,0.0,0.0,0.0,0.0
1606987104847632991,926647,1606983503772400451,imu_link,0.001779048005118966,0.005740965250879526,-0.8717138171195984,0.4899785816669464,0.0,0.0,0.0,0.0,0.0,0.0,0.0,0.0,0.0,-121.32255554199219,0.500057578086853,-0.4736053943634033,0.0,0.0,0.0,0.0,0.0,0.0,0.0,0.0,0.0,0.01567995548248291,-0.01907479763031006,0.0005514279473572969,0.0,0.0,0.0,0.0,0.0,0.0,0.0,0.0,0.0
1606987104923287335,926648,1606983503772481318,imu_link,0.001779048005118966,0.005740965250879526,-0.8717138171195984,0.4899785816669464,0.0,0.0,0.0,0.0,0.0,0.0,0.0,0.0,0.0,-121.32255554199219,0.500057578086853,-0.4736053943634033,0.0,0.0,0.0,0.0,0.0,0.0,0.0,0.0,0.0,0.01567995548248291,-0.01907479763031006,0.0005514279473572969,0.0,0.0,0.0,0.0,0.0,0.0,0.0,0.0,0.0
1606987104923324248,926649,1606983503772571747,imu_link,0.001778445322997868,0.005741318687796593,-0.8717135190963745,0.4899790585041046,0.0,0.0,0.0,0.0,0.0,0.0,0.0,0.0,0.0,-121.3224868774414,0.500017523765564,-0.47367432713508606,0.0,0.0,0.0,0.0,0.0,0.0,0.0,0.0,0.0,0.001923253177665174,-0.022113189101219177,0.015886420384049416,0.0,0.0,0.0,0.0,0.0,0.0,0.0,0.0,0.0
1606987104923359625,926650,1606983503772658097,imu_link,0.001778445322997868,0.005741318687796593,-0.8717135190963745,0.4899790585041046,0.0,0.0,0.0,0.0,0.0,0.0,0.0,0.0,0.0,-121.3224868774414,0.500017523765564,-0.47367432713508606,0.0,0.0,0.0,0.0,0.0,0.0,0.0,0.0,0.0,0.001923253177665174,-0.022113189101219177,0.015886420384049416,0.0,0.0,0.0,0.0,0.0,0.0,0.0,0.0,0.0
1606987104923412502,926651,1606983503772761957,imu_link,0.001780109480023384,0.005740170832723379,-0.8717132806777954,0.48997950553894043,0.0,0.0,0.0,0.0,0.0,0.0,0.0,0.0,0.0,-121.32243347167969,0.5001195669174194,-0.4734659194946289,0.0,0.0,0.0,0.0,0.0,0.0,0.0,0.0,0.0,0.0007006073137745261,-0.019388653337955475,0.029739070683717728,0.0,0.0,0.0,0.0,0.0,0.0,0.0,0.0,0.0
1606987104923430759,926652,1606983503772848097,imu_link,0.001780109480023384,0.005740170832723379,-0.8717132806777954,0.48997950553894043,0.0,0.0,0.0,0.0,0.0,0.0,0.0,0.0,0.0,-121.32243347167969,0.5001195669174194,-0.4734659194946289,0.0,0.0,0.0,0.0,0.0,0.0,0.0,0.0,0.0,0.0007006073137745261,-0.019388653337955475,0.029739070683717728,0.0,0.0,0.0,0.0,0.0,0.0,0.0,0.0,0.0
1606987104923459137,926653,1606983503773014176,imu_link,0.0017795084277167916,0.005740523803979158,-0.8717129230499268,0.48998016119003296,0.0,0.0,0.0,0.0,0.0,0.0,0.0,0.0,0.0,-121.32234954833984,0.5000796914100647,-0.47353458404541016,0.0,0.0,0.0,0.0,0.0,0.0,0.0,0.0,0.0,-0.01882093958556652,-0.008702402003109455,0.02214624360203743,0.0,0.0,0.0,0.0,0.0,0.0,0.0,0.0,0.0
1606987104923473267,926654,1606983503773107337,imu_link,0.0017795084277167916,0.005740523803979158,-0.8717129230499268,0.48998016119003296,0.0,0.0,0.0,0.0,0.0,0.0,0.0,0.0,0.0,-121.32234954833984,0.5000796914100647,-0.47353458404541016,0.0,0.0,0.0,0.0,0.0,0.0,0.0,0.0,0.0,-0.01882093958556652,-0.008702402003109455,0.02214624360203743,0.0,0.0,0.0,0.0,0.0,0.0,0.0,0.0,0.0
1606987104923485505,926655,1606983503773189321,imu_link,0.001775176264345646,0.005737982224673033,-0.8717138171195984,0.4899786412715912,0.0,0.0,0.0,0.0,0.0,0.0,0.0,0.0,0.0,-121.32254028320312,0.49950340390205383,-0.4735247790813446,0.0,0.0,0.0,0.0,0.0,0.0,0.0,0.0,0.0,-0.03126198798418045,-0.007970082573592663,0.01883753389120102,0.0,0.0,0.0,0.0,0.0,0.0,0.0,0.0,0.0
1606987104923498876,926656,1606983503786067080,imu_link,0.001775176264345646,0.005737982224673033,-0.8717138171195984,0.4899786412715912,0.0,0.0,0.0,0.0,0.0,0.0,0.0,0.0,0.0,-121.32254028320312,0.49950340390205383,-0.4735247790813446,0.0,0.0,0.0,0.0,0.0,0.0,0.0,0.0,0.0,-0.03126198798418045,-0.007970082573592663,0.01883753389120102,0.0,0.0,0.0,0.0,0.0,0.0,0.0,0.0,0.0
1606987104923509711,926657,1606983503786269728,imu_link,0.0017748507671058178,0.005737863946706057,-0.8717129826545715,0.48998016119003296,0.0,0.0,0.0,0.0,0.0,0.0,0.0,0.0,0.0,-121.32234954833984,0.49946507811546326,-0.4735303819179535,0.0,0.0,0.0,0.0,0.0,0.0,0.0,0.0,0.0,-0.0021366621367633343,-0.0062246122397482395,0.020430639386177063,0.0,0.0,0.0,0.0,0.0,0.0,0.0,0.0,0.0
1606987104923522889,926658,1606983503786450868,imu_link,0.0017748507671058178,0.005737863946706057,-0.8717129826545715,0.48998016119003296,0.0,0.0,0.0,0.0,0.0,0.0,0.0,0.0,0.0,-121.32234954833984,0.49946507811546326,-0.4735303819179535,0.0,0.0,0.0,0.0,0.0,0.0,0.0,0.0,0.0,-0.0021366621367633343,-0.0062246122397482395,0.020430639386177063,0.0,0.0,0.0,0.0,0.0,0.0,0.0,0.0,0.0
1606987104923533644,926659,1606983503786626364,imu_link,0.0017738636815920472,0.005735381040722132,-0.8717120885848999,0.4899817705154419,0.0,0.0,0.0,0.0,0.0,0.0,0.0,0.0,0.0,-121.32212829589844,0.4992278814315796,-0.473336786031723,0.0,0.0,0.0,0.0,0.0,0.0,0.0,0.0,0.0,0.01738840714097023,-0.021944843232631683,0.023078465834259987,0.0,0.0,0.0,0.0,0.0,0.0,0.0,0.0,0.0
1606987104936101624,926660,1606983503786811527,imu_link,0.0017738636815920472,0.005735381040722132,-0.8717120885848999,0.4899817705154419,0.0,0.0,0.0,0.0,0.0,0.0,0.0,0.0,0.0,-121.32212829589844,0.4992278814315796,-0.473336786031723,0.0,0.0,0.0,0.0,0.0,0.0,0.0,0.0,0.0,0.01738840714097023,-0.021944843232631683,0.023078465834259987,0.0,0.0,0.0,0.0,0.0,0.0,0.0,0.0,0.0
1606987104936112198,926661,1606983503787043279,imu_link,0.001773909549228847,0.005735655780881643,-0.8717132210731506,0.48997974395751953,0.0,0.0,0.0,0.0,0.0,0.0,0.0,0.0,0.0,-121.32240295410156,0.4992467761039734,-0.47336292266845703,0.0,0.0,0.0,0.0,0.0,0.0,0.0,0.0,0.0,-0.002635830081999302,-0.020336667075753212,0.03133022412657738,0.0,0.0,0.0,0.0,0.0,0.0,0.0,0.0,0.0
1606987104936128279,926662,1606983503787207328,imu_link,0.001773909549228847,0.005735655780881643,-0.8717132210731506,0.48997974395751953,0.0,0.0,0.0,0.0,0.0,0.0,0.0,0.0,0.0,-121.32240295410156,0.4992467761039734,-0.47336292266845703,0.0,0.0,0.0,0.0,0.0,0.0,0.0,0.0,0.0,-0.002635830081999302,-0.020336667075753212,0.03133022412657738,0.0,0.0,0.0,0.0,0.0,0.0,0.0,0.0,0.0
1606987104936134692,926663,1606983503787365945,imu_link,0.0017749518156051636,0.005733145400881767,-0.8717127442359924,0.4899805784225464,0.0,0.0,0.0,0.0,0.0,0.0,0.0,0.0,0.0,-121.32229614257812,0.499210387468338,-0.47305312752723694,0.0,0.0,0.0,0.0,0.0,0.0,0.0,0.0,0.0,-0.00030556999263353646,-0.009273499250411987,0.0309689249843359,0.0,0.0,0.0,0.0,0.0,0.0,0.0,0.0,0.0
1606987104936145154,926664,1606983503787520914,imu_link,0.0017749518156051636,0.005733145400881767,-0.8717127442359924,0.4899805784225464,0.0,0.0,0.0,0.0,0.0,0.0,0.0,0.0,0.0,-121.32229614257812,0.499210387468338,-0.47305312752723694,0.0,0.0,0.0,0.0,0.0,0.0,0.0,0.0,0.0,-0.00030556999263353646,-0.009273499250411987,0.0309689249843359,0.0,0.0,0.0,0.0,0.0,0.0,0.0,0.0,0.0
1606987104947028972,926665,1606983503787675657,imu_link,0.001776627148501575,0.005732591729611158,-0.8717129230499268,0.4899802505970001,0.0,0.0,0.0,0.0,0.0,0.0,0.0,0.0,0.0,-121.32231903076172,0.499346524477005,-0.47290390729904175,0.0,0.0,0.0,0.0,0.0,0.0,0.0,0.0,0.0,0.01733268052339554,-0.005279740784317255,0.022234328091144562,0.0,0.0,0.0,0.0,0.0,0.0,0.0,0.0,0.0
1606987104947058108,926666,1606983503787829654,imu_link,0.001776627148501575,0.005732591729611158,-0.8717129230499268,0.4899802505970001,0.0,0.0,0.0,0.0,0.0,0.0,0.0,0.0,0.0,-121.32231903076172,0.499346524477005,-0.47290390729904175,0.0,0.0,0.0,0.0,0.0,0.0,0.0,0.0,0.0,0.01733268052339554,-0.005279740784317255,0.022234328091144562,0.0,0.0,0.0,0.0,0.0,0.0,0.0,0.0,0.0
1606987104947063431,926667,1606983503798780453,imu_link,0.0017788495169952512,0.005733754485845566,-0.8717115521430969,0.48998260498046875,0.0,0.0,0.0,0.0,0.0,0.0,0.0,0.0,0.0,-121.322021484375,0.49963510036468506,-0.47289398312568665,0.0,0.0,0.0,0.0,0.0,0.0,0.0,0.0,0.0,0.006696607917547226,0.0035871178843080997,0.008858627639710903,0.0,0.0,0.0,0.0,0.0,0.0,0.0,0.0,0.0
1606987104952966318,926668,1606983503798932324,imu_link,0.0017788495169952512,0.005733754485845566,-0.8717115521430969,0.48998260498046875,0.0,0.0,0.0,0.0,0.0,0.0,0.0,0.0,0.0,-121.322021484375,0.49963510036468506,-0.47289398312568665,0.0,0.0,0.0,0.0,0.0,0.0,0.0,0.0,0.0,0.006696607917547226,0.0035871178843080997,0.008858627639710903,0.0,0.0,0.0,0.0,0.0,0.0,0.0,0.0,0.0
1606987104952986689,926669,1606983503799101921,imu_link,0.0017785285599529743,0.0057363249361515045,-0.8717113733291626,0.4899829626083374,0.0,0.0,0.0,0.0,0.0,0.0,0.0,0.0,0.0,-121.32198333740234,0.4997475743293762,-0.4731684923171997,0.0,0.0,0.0,0.0,0.0,0.0,0.0,0.0,0.0,0.010962295345962048,-0.001258998760022223,0.021040869876742363,0.0,0.0,0.0,0.0,0.0,0.0,0.0,0.0,0.0
1606987104952994968,926670,1606983503799252809,imu_link,0.0017785285599529743,0.0057363249361515045,-0.8717113733291626,0.4899829626083374,0.0,0.0,0.0,0.0,0.0,0.0,0.0,0.0,0.0,-121.32198333740234,0.4997475743293762,-0.4731684923171997,0.0,0.0,0.0,0.0,0.0,0.0,0.0,0.0,0.0,0.010962295345962048,-0.001258998760022223,0.021040869876742363,0.0,0.0,0.0,0.0,0.0,0.0,0.0,0.0,0.0
1606987104952998952,926671,1606983503799394795,imu_link,0.0017783244838938117,0.005735241807997227,-0.8717105984687805,0.48998430371284485,0.0,0.0,0.0,0.0,0.0,0.0,0.0,0.0,0.0,-121.32178497314453,0.49966710805892944,-0.47307103872299194,0.0,0.0,0.0,0.0,0.0,0.0,0.0,0.0,0.0,0.012945244088768959,-0.014319528825581074,0.031248826533555984,0.0,0.0,0.0,0.0,0.0,0.0,0.0,0.0,0.0
1606987104953012767,926672,1606983503799552057,imu_link,0.0017783244838938117,0.005735241807997227,-0.8717105984687805,0.48998430371284485,0.0,0.0,0.0,0.0,0.0,0.0,0.0,0.0,0.0,-121.32178497314453,0.49966710805892944,-0.47307103872299194,0.0,0.0,0.0,0.0,0.0,0.0,0.0,0.0,0.0,0.012945244088768959,-0.014319528825581074,0.031248826533555984,0.0,0.0,0.0,0.0,0.0,0.0,0.0,0.0,0.0
1606987104960205461,926673,1606983503799695028,imu_link,0.0017793127335608006,0.005735642742365599,-0.8717108964920044,0.48998379707336426,0.0,0.0,0.0,0.0,0.0,0.0,0.0,0.0,0.0,-121.32186889648438,0.4997880160808563,-0.4730559289455414,0.0,0.0,0.0,0.0,0.0,0.0,0.0,0.0,0.0,-7.796961290296167e-05,-0.010889149270951748,0.017640452831983566,0.0,0.0,0.0,0.0,0.0,0.0,0.0,0.0,0.0
1606987104960234338,926674,1606983503799832835,imu_link,0.0017793127335608006,0.005735642742365599,-0.8717108964920044,0.48998379707336426,0.0,0.0,0.0,0.0,0.0,0.0,0.0,0.0,0.0,-121.32186889648438,0.4997880160808563,-0.4730559289455414,0.0,0.0,0.0,0.0,0.0,0.0,0.0,0.0,0.0,-7.796961290296167e-05,-0.010889149270951748,0.017640452831983566,0.0,0.0,0.0,0.0,0.0,0.0,0.0,0.0,0.0
1606987104960238748,926675,1606983503799972221,imu_link,0.0017809433629736304,0.005735482554882765,-0.8717108368873596,0.4899838864803314,0.0,0.0,0.0,0.0,0.0,0.0,0.0,0.0,0.0,-121.32185363769531,0.49994197487831116,-0.4729483127593994,0.0,0.0,0.0,0.0,0.0,0.0,0.0,0.0,0.0,0.0027871988713741302,-0.004589880350977182,0.012723674066364765,0.0,0.0,0.0,0.0,0.0,0.0,0.0,0.0,0.0
1606987104960247418,926676,1606983503800108942,imu_link,0.0017809433629736304,0.005735482554882765,-0.8717108368873596,0.4899838864803314,0.0,0.0,0.0,0.0,0.0,0.0,0.0,0.0,0.0,-121.32185363769531,0.49994197487831116,-0.4729483127593994,0.0,0.0,0.0,0.0,0.0,0.0,0.0,0.0,0.0,0.0027871988713741302,-0.004589880350977182,0.012723674066364765,0.0,0.0,0.0,0.0,0.0,0.0,0.0,0.0,0.0
1606987105033149528,926677,1606983503812323856,imu_link,0.001781521481461823,0.005733234342187643,-0.871710479259491,0.48998451232910156,0.0,0.0,0.0,0.0,0.0,0.0,0.0,0.0,0.0,-121.32177734375,0.4998738169670105,-0.4726908504962921,0.0,0.0,0.0,0.0,0.0,0.0,0.0,0.0,0.0,0.010822372511029243,-0.023089123889803886,0.017100878059864044,0.0,0.0,0.0,0.0,0.0,0.0,0.0,0.0,0.0
1606987105033165334,926678,1606983503812528705,imu_link,0.001781521481461823,0.005733234342187643,-0.871710479259491,0.48998451232910156,0.0,0.0,0.0,0.0,0.0,0.0,0.0,0.0,0.0,-121.32177734375,0.4998738169670105,-0.4726908504962921,0.0,0.0,0.0,0.0,0.0,0.0,0.0,0.0,0.0,0.010822372511029243,-0.023089123889803886,0.017100878059864044,0.0,0.0,0.0,0.0,0.0,0.0,0.0,0.0,0.0
1606987105033183365,926679,1606983503812713643,imu_link,0.0017858889186754823,0.005731343291699886,-0.8717100024223328,0.4899854362010956,0.0,0.0,0.0,0.0,0.0,0.0,0.0,0.0,0.0,-121.3216552734375,0.5002044439315796,-0.47225621342658997,0.0,0.0,0.0,0.0,0.0,0.0,0.0,0.0,0.0,0.0066363089717924595,-0.013260488398373127,0.012164181098341942,0.0,0.0,0.0,0.0,0.0,0.0,0.0,0.0,0.0
1606987105033191142,926680,1606983503812889289,imu_link,0.0017858889186754823,0.005731343291699886,-0.8717100024223328,0.4899854362010956,0.0,0.0,0.0,0.0,0.0,0.0,0.0,0.0,0.0,-121.3216552734375,0.5002044439315796,-0.47225621342658997,0.0,0.0,0.0,0.0,0.0,0.0,0.0,0.0,0.0,0.0066363089717924595,-0.013260488398373127,0.012164181098341942,0.0,0.0,0.0,0.0,0.0,0.0,0.0,0.0,0.0
1606987105043412905,926681,1606983503813068213,imu_link,0.0017860160442069173,0.005732639692723751,-0.8717111945152283,0.48998335003852844,0.0,0.0,0.0,0.0,0.0,0.0,0.0,0.0,0.0,-121.3219223022461,0.5002887845039368,-0.47237974405288696,0.0,0.0,0.0,0.0,0.0,0.0,0.0,0.0,0.0,0.01395678985863924,9.189127013087273e-05,0.004787389189004898,0.0,0.0,0.0,0.0,0.0,0.0,0.0,0.0,0.0
1606987105043430002,926682,1606983503813234418,imu_link,0.0017860160442069173,0.005732639692723751,-0.8717111945152283,0.48998335003852844,0.0,0.0,0.0,0.0,0.0,0.0,0.0,0.0,0.0,-121.3219223022461,0.5002887845039368,-0.47237974405288696,0.0,0.0,0.0,0.0,0.0,0.0,0.0,0.0,0.0,0.01395678985863924,9.189127013087273e-05,0.004787389189004898,0.0,0.0,0.0,0.0,0.0,0.0,0.0,0.0,0.0
1606987105043438387,926683,1606983503813417331,imu_link,0.0017877561040222645,0.005733644124120474,-0.8717105984687805,0.489984393119812,0.0,0.0,0.0,0.0,0.0,0.0,0.0,0.0,0.0,-121.32178497314453,0.5005195736885071,-0.4723817706108093,0.0,0.0,0.0,0.0,0.0,0.0,0.0,0.0,0.0,0.013808985240757465,-0.002926396206021309,0.02304166555404663,0.0,0.0,0.0,0.0,0.0,0.0,0.0,0.0,0.0
1606987105043447247,926684,1606983503813576324,imu_link,0.0017877561040222645,0.005733644124120474,-0.8717105984687805,0.489984393119812,0.0,0.0,0.0,0.0,0.0,0.0,0.0,0.0,0.0,-121.32178497314453,0.5005195736885071,-0.4723817706108093,0.0,0.0,0.0,0.0,0.0,0.0,0.0,0.0,0.0,0.013808985240757465,-0.002926396206021309,0.02304166555404663,0.0,0.0,0.0,0.0,0.0,0.0,0.0,0.0,0.0
1606987105043459264,926685,1606983503813730862,imu_link,0.001786226173862815,0.005735991522669792,-0.8717105984687805,0.4899841248989105,0.0,0.0,0.0,0.0,0.0,0.0,0.0,0.0,0.0,-121.32181549072266,0.500498354434967,-0.47270241379737854,0.0,0.0,0.0,0.0,0.0,0.0,0.0,0.0,0.0,0.005490667652338743,-0.0013148754369467497,0.0348391979932785,0.0,0.0,0.0,0.0,0.0,0.0,0.0,0.0,0.0
1606987105077389027,926686,1606983503813872434,imu_link,0.001786226173862815,0.005735991522669792,-0.8717105984687805,0.4899841248989105,0.0,0.0,0.0,0.0,0.0,0.0,0.0,0.0,0.0,-121.32181549072266,0.500498354434967,-0.47270241379737854,0.0,0.0,0.0,0.0,0.0,0.0,0.0,0.0,0.0,0.005490667652338743,-0.0013148754369467497,0.0348391979932785,0.0,0.0,0.0,0.0,0.0,0.0,0.0,0.0,0.0
1606987105077411185,926687,1606983503814013837,imu_link,0.0017884594853967428,0.005736307706683874,-0.8717090487480164,0.4899871051311493,0.0,0.0,0.0,0.0,0.0,0.0,0.0,0.0,0.0,-121.3214340209961,0.5007408261299133,-0.472606897354126,0.0,0.0,0.0,0.0,0.0,0.0,0.0,0.0,0.0,-0.0029189265333116055,0.0019007736118510365,0.01059006992727518,0.0,0.0,0.0,0.0,0.0,0.0,0.0,0.0,0.0
1606987105077440528,926688,1606983503826219329,imu_link,0.0017884594853967428,0.005736307706683874,-0.8717090487480164,0.4899871051311493,0.0,0.0,0.0,0.0,0.0,0.0,0.0,0.0,0.0,-121.3214340209961,0.5007408261299133,-0.472606897354126,0.0,0.0,0.0,0.0,0.0,0.0,0.0,0.0,0.0,-0.0029189265333116055,0.0019007736118510365,0.01059006992727518,0.0,0.0,0.0,0.0,0.0,0.0,0.0,0.0,0.0
1606987105077458062,926689,1606983503826421562,imu_link,0.0017872662283480167,0.00573598500341177,-0.8717091679573059,0.4899866580963135,0.0,0.0,0.0,0.0,0.0,0.0,0.0,0.0,0.0,-121.32147216796875,0.5006032586097717,-0.4726419150829315,0.0,0.0,0.0,0.0,0.0,0.0,0.0,0.0,0.0,-0.02697969600558281,0.003777540987357497,0.01590890996158123,0.0,0.0,0.0,0.0,0.0,0.0,0.0,0.0,0.0
1606987105077470148,926690,1606983503826604726,imu_link,0.0017872662283480167,0.00573598500341177,-0.8717091679573059,0.4899866580963135,0.0,0.0,0.0,0.0,0.0,0.0,0.0,0.0,0.0,-121.32147216796875,0.5006032586097717,-0.4726419150829315,0.0,0.0,0.0,0.0,0.0,0.0,0.0,0.0,0.0,-0.02697969600558281,0.003777540987357497,0.01590890996158123,0.0,0.0,0.0,0.0,0.0,0.0,0.0,0.0,0.0
1606987105077477380,926691,1606983503826771351,imu_link,0.0017814234597608447,0.0057346704415977,-0.8717080950737,0.48998862504959106,0.0,0.0,0.0,0.0,0.0,0.0,0.0,0.0,0.0,-121.32122802734375,0.4999469220638275,-0.4728374779224396,0.0,0.0,0.0,0.0,0.0,0.0,0.0,0.0,0.0,-0.029654383659362793,-0.008746739476919174,0.03498709946870804,0.0,0.0,0.0,0.0,0.0,0.0,0.0,0.0,0.0
1606987105077568369,926692,1606983503826932179,imu_link,0.0017814234597608447,0.0057346704415977,-0.8717080950737,0.48998862504959106,0.0,0.0,0.0,0.0,0.0,0.0,0.0,0.0,0.0,-121.32122802734375,0.4999469220638275,-0.4728374779224396,0.0,0.0,0.0,0.0,0.0,0.0,0.0,0.0,0.0,-0.029654383659362793,-0.008746739476919174,0.03498709946870804,0.0,0.0,0.0,0.0,0.0,0.0,0.0,0.0,0.0
1606987105077598247,926693,1606983503827141949,imu_link,0.001782663632184267,0.005735027138143778,-0.871708333492279,0.48998820781707764,0.0,0.0,0.0,0.0,0.0,0.0,0.0,0.0,0.0,-121.32128143310547,0.5000905990600586,-0.4728037714958191,0.0,0.0,0.0,0.0,0.0,0.0,0.0,0.0,0.0,0.0025204140692949295,-0.002523534931242466,0.0034785226453095675,0.0,0.0,0.0,0.0,0.0,0.0,0.0,0.0,0.0
1606987105077613981,926694,1606983503827310700,imu_link,0.001782663632184267,0.005735027138143778,-0.871708333492279,0.48998820781707764,0.0,0.0,0.0,0.0,0.0,0.0,0.0,0.0,0.0,-121.32128143310547,0.5000905990600586,-0.4728037714958191,0.0,0.0,0.0,0.0,0.0,0.0,0.0,0.0,0.0,0.0025204140692949295,-0.002523534931242466,0.0034785226453095675,0.0,0.0,0.0,0.0,0.0,0.0,0.0,0.0,0.0
1606987105103008648,926695,1606983503827458316,imu_link,0.0017824192764237523,0.005735626444220543,-0.8717080950737,0.4899885952472687,0.0,0.0,0.0,0.0,0.0,0.0,0.0,0.0,0.0,-121.32122802734375,0.5001000165939331,-0.4728771150112152,0.0,0.0,0.0,0.0,0.0,0.0,0.0,0.0,0.0,0.008964842185378075,-0.0014943662099540234,0.0013916224706918001,0.0,0.0,0.0,0.0,0.0,0.0,0.0,0.0,0.0
1606987105103022451,926696,1606983503827604039,imu_link,0.0017824192764237523,0.005735626444220543,-0.8717080950737,0.4899885952472687,0.0,0.0,0.0,0.0,0.0,0.0,0.0,0.0,0.0,-121.32122802734375,0.5001000165939331,-0.4728771150112152,0.0,0.0,0.0,0.0,0.0,0.0,0.0,0.0,0.0,0.008964842185378075,-0.0014943662099540234,0.0013916224706918001,0.0,0.0,0.0,0.0,0.0,0.0,0.0,0.0,0.0
1606987105103037043,926697,1606983503827750683,imu_link,0.0017820741049945354,0.005736685823649168,-0.8717077374458313,0.4899894893169403,0.0,0.0,0.0,0.0,0.0,0.0,0.0,0.0,0.0,-121.32112121582031,0.500125527381897,-0.47300171852111816,0.0,0.0,0.0,0.0,0.0,0.0,0.0,0.0,0.0,-0.01834997534751892,-0.009784595109522343,0.03770944103598595,0.0,0.0,0.0,0.0,0.0,0.0,0.0,0.0,0.0
1606987105103045865,926698,1606983503827894922,imu_link,0.0017820741049945354,0.005736685823649168,-0.8717077374458313,0.4899894893169403,0.0,0.0,0.0,0.0,0.0,0.0,0.0,0.0,0.0,-121.32112121582031,0.500125527381897,-0.47300171852111816,0.0,0.0,0.0,0.0,0.0,0.0,0.0,0.0,0.0,-0.01834997534751892,-0.009784595109522343,0.03770944103598595,0.0,0.0,0.0,0.0,0.0,0.0,0.0,0.0,0.0
1606987105111484053,926699,1606983503839599780,imu_link,0.0017814337043091655,0.005733634810894728,-0.8717069029808044,0.4899909794330597,0.0,0.0,0.0,0.0,0.0,0.0,0.0,0.0,0.0,-121.32093048095703,0.499891072511673,-0.47273215651512146,0.0,0.0,0.0,0.0,0.0,0.0,0.0,0.0,0.0,-0.00910817738622427,-0.0075418706983327866,0.03995080292224884,0.0,0.0,0.0,0.0,0.0,0.0,0.0,0.0,0.0
1606987105111495183,926700,1606983503839799959,imu_link,0.0017814337043091655,0.005733634810894728,-0.8717069029808044,0.4899909794330597,0.0,0.0,0.0,0.0,0.0,0.0,0.0,0.0,0.0,-121.32093048095703,0.499891072511673,-0.47273215651512146,0.0,0.0,0.0,0.0,0.0,0.0,0.0,0.0,0.0,-0.00910817738622427,-0.0075418706983327866,0.03995080292224884,0.0,0.0,0.0,0.0,0.0,0.0,0.0,0.0,0.0
1606987105111504363,926701,1606983503839984456,imu_link,0.0017829430289566517,0.005733138415962458,-0.8717063665390015,0.4899918735027313,0.0,0.0,0.0,0.0,0.0,0.0,0.0,0.0,0.0,-121.32080841064453,0.5000144243240356,-0.47259724140167236,0.0,0.0,0.0,0.0,0.0,0.0,0.0,0.0,0.0,-0.004445310682058334,-0.01742544025182724,0.015999628230929375,0.0,0.0,0.0,0.0,0.0,0.0,0.0,0.0,0.0
1606987105111541793,926702,1606983503840163480,imu_link,0.0017829430289566517,0.005733138415962458,-0.8717063665390015,0.4899918735027313,0.0,0.0,0.0,0.0,0.0,0.0,0.0,0.0,0.0,-121.32080841064453,0.5000144243240356,-0.47259724140167236,0.0,0.0,0.0,0.0,0.0,0.0,0.0,0.0,0.0,-0.004445310682058334,-0.01742544025182724,0.015999628230929375,0.0,0.0,0.0,0.0,0.0,0.0,0.0,0.0,0.0
1606987105119145131,926703,1606983503840355294,imu_link,0.001784711261279881,0.005734305363148451,-0.8717043399810791,0.48999544978141785,0.0,0.0,0.0,0.0,0.0,0.0,0.0,0.0,0.0,-121.32032775878906,0.5002585649490356,-0.4726124703884125,0.0,0.0,0.0,0.0,0.0,0.0,0.0,0.0,0.0,-0.005075627006590366,-0.018885072320699692,0.029223833233118057,0.0,0.0,0.0,0.0,0.0,0.0,0.0,0.0,0.0
1606987105119158409,926704,1606983503840541615,imu_link,0.001784711261279881,0.005734305363148451,-0.8717043399810791,0.48999544978141785,0.0,0.0,0.0,0.0,0.0,0.0,0.0,0.0,0.0,-121.32032775878906,0.5002585649490356,-0.4726124703884125,0.0,0.0,0.0,0.0,0.0,0.0,0.0,0.0,0.0,-0.005075627006590366,-0.018885072320699692,0.029223833233118057,0.0,0.0,0.0,0.0,0.0,0.0,0.0,0.0,0.0
1606987105119171240,926705,1606983503840700643,imu_link,0.0017847239505499601,0.005734950769692659,-0.8717048168182373,0.4899946451187134,0.0,0.0,0.0,0.0,0.0,0.0,0.0,0.0,0.0,-121.3204345703125,0.5002955794334412,-0.47267666459083557,0.0,0.0,0.0,0.0,0.0,0.0,0.0,0.0,0.0,0.00359898479655385,-0.007027905900031328,0.047707341611385345,0.0,0.0,0.0,0.0,0.0,0.0,0.0,0.0,0.0
1606987105119178229,926706,1606983503840861104,imu_link,0.0017847239505499601,0.005734950769692659,-0.8717048168182373,0.4899946451187134,0.0,0.0,0.0,0.0,0.0,0.0,0.0,0.0,0.0,-121.3204345703125,0.5002955794334412,-0.47267666459083557,0.0,0.0,0.0,0.0,0.0,0.0,0.0,0.0,0.0,0.00359898479655385,-0.007027905900031328,0.047707341611385345,0.0,0.0,0.0,0.0,0.0,0.0,0.0,0.0,0.0
1606987105222397252,926707,1606983503841018504,imu_link,0.0017857097554951906,0.005733491852879524,-0.8717047572135925,0.48999473452568054,0.0,0.0,0.0,0.0,0.0,0.0,0.0,0.0,0.0,-121.32041931152344,0.5003122091293335,-0.4724755883216858,0.0,0.0,0.0,0.0,0.0,0.0,0.0,0.0,0.0,0.006128593347966671,-0.001428411342203617,0.044305913150310516,0.0,0.0,0.0,0.0,0.0,0.0,0.0,0.0,0.0
1606987105222416339,926708,1606983503841173532,imu_link,0.0017857097554951906,0.005733491852879524,-0.8717047572135925,0.48999473452568054,0.0,0.0,0.0,0.0,0.0,0.0,0.0,0.0,0.0,-121.32041931152344,0.5003122091293335,-0.4724755883216858,0.0,0.0,0.0,0.0,0.0,0.0,0.0,0.0,0.0,0.006128593347966671,-0.001428411342203617,0.044305913150310516,0.0,0.0,0.0,0.0,0.0,0.0,0.0,0.0,0.0
1606987105222424413,926709,1606983503841330511,imu_link,0.0017857176717370749,0.005735624115914106,-0.8717056512832642,0.4899931252002716,0.0,0.0,0.0,0.0,0.0,0.0,0.0,0.0,0.0,-121.32064056396484,0.5004318952560425,-0.47268903255462646,0.0,0.0,0.0,0.0,0.0,0.0,0.0,0.0,0.0,0.007856073789298534,-0.004137915093451738,0.025363996624946594,0.0,0.0,0.0,0.0,0.0,0.0,0.0,0.0,0.0
1606987105222439821,926710,1606983503852355760,imu_link,0.0017857176717370749,0.005735624115914106,-0.8717056512832642,0.4899931252002716,0.0,0.0,0.0,0.0,0.0,0.0,0.0,0.0,0.0,-121.32064056396484,0.5004318952560425,-0.47268903255462646,0.0,0.0,0.0,0.0,0.0,0.0,0.0,0.0,0.0,0.007856073789298534,-0.004137915093451738,0.025363996624946594,0.0,0.0,0.0,0.0,0.0,0.0,0.0,0.0,0.0
1606987105222451716,926711,1606983503852483566,imu_link,0.0017883568070828915,0.005736570339649916,-0.8717050552368164,0.4899941682815552,0.0,0.0,0.0,0.0,0.0,0.0,0.0,0.0,0.0,-121.32050323486328,0.5007491707801819,-0.47263482213020325,0.0,0.0,0.0,0.0,0.0,0.0,0.0,0.0,0.0,0.004156135488301516,-0.010079530999064445,0.001269343076273799,0.0,0.0,0.0,0.0,0.0,0.0,0.0,0.0,0.0
1606987105223661770,926712,1606983503852601853,imu_link,0.0017883568070828915,0.005736570339649916,-0.8717050552368164,0.4899941682815552,0.0,0.0,0.0,0.0,0.0,0.0,0.0,0.0,0.0,-121.32050323486328,0.5007491707801819,-0.47263482213020325,0.0,0.0,0.0,0.0,0.0,0.0,0.0,0.0,0.0,0.004156135488301516,-0.010079530999064445,0.001269343076273799,0.0,0.0,0.0,0.0,0.0,0.0,0.0,0.0,0.0
1606987105223682995,926713,1606983503852715556,imu_link,0.0017861851956695318,0.0057360329665243626,-0.8717057108879089,0.48999306559562683,0.0,0.0,0.0,0.0,0.0,0.0,0.0,0.0,0.0,-121.3206558227539,0.5005014538764954,-0.4727036952972412,0.0,0.0,0.0,0.0,0.0,0.0,0.0,0.0,0.0,-0.0032990642357617617,-0.007360003422945738,0.007581413257867098,0.0,0.0,0.0,0.0,0.0,0.0,0.0,0.0,0.0
1606987105223705777,926714,1606983503852812290,imu_link,0.0017861851956695318,0.0057360329665243626,-0.8717057108879089,0.48999306559562683,0.0,0.0,0.0,0.0,0.0,0.0,0.0,0.0,0.0,-121.3206558227539,0.5005014538764954,-0.4727036952972412,0.0,0.0,0.0,0.0,0.0,0.0,0.0,0.0,0.0,-0.0032990642357617617,-0.007360003422945738,0.007581413257867098,0.0,0.0,0.0,0.0,0.0,0.0,0.0,0.0,0.0
1606987105223718331,926715,1606983503852889766,imu_link,0.0017879473743960261,0.0057367319241166115,-0.8717054128646851,0.4899933934211731,0.0,0.0,0.0,0.0,0.0,0.0,0.0,0.0,0.0,-121.32060241699219,0.5007169246673584,-0.4726743698120117,0.0,0.0,0.0,0.0,0.0,0.0,0.0,0.0,0.0,-0.01020276639610529,0.0048507931642234325,0.014917940832674503,0.0,0.0,0.0,0.0,0.0,0.0,0.0,0.0,0.0
1606987105225831032,926716,1606983503852945755,imu_link,0.0017879473743960261,0.0057367319241166115,-0.8717054128646851,0.4899933934211731,0.0,0.0,0.0,0.0,0.0,0.0,0.0,0.0,0.0,-121.32060241699219,0.5007169246673584,-0.4726743698120117,0.0,0.0,0.0,0.0,0.0,0.0,0.0,0.0,0.0,-0.01020276639610529,0.0048507931642234325,0.014917940832674503,0.0,0.0,0.0,0.0,0.0,0.0,0.0,0.0,0.0
1606987105225852567,926717,1606983503853004705,imu_link,0.001788077293895185,0.005736134015023708,-0.8717057704925537,0.48999276757240295,0.0,0.0,0.0,0.0,0.0,0.0,0.0,0.0,0.0,-121.3206787109375,0.5006960034370422,-0.47260770201683044,0.0,0.0,0.0,0.0,0.0,0.0,0.0,0.0,0.0,-0.0023465591948479414,0.004610080737620592,0.02590973861515522,0.0,0.0,0.0,0.0,0.0,0.0,0.0,0.0,0.0
1606987105225861249,926718,1606983503853063782,imu_link,0.001788077293895185,0.005736134015023708,-0.8717057704925537,0.48999276757240295,0.0,0.0,0.0,0.0,0.0,0.0,0.0,0.0,0.0,-121.3206787109375,0.5006960034370422,-0.47260770201683044,0.0,0.0,0.0,0.0,0.0,0.0,0.0,0.0,0.0,-0.0023465591948479414,0.004610080737620592,0.02590973861515522,0.0,0.0,0.0,0.0,0.0,0.0,0.0,0.0,0.0
1606987105225868161,926719,1606983503853122204,imu_link,0.001785917324014008,0.005736729595810175,-0.8717048764228821,0.4899943768978119,0.0,0.0,0.0,0.0,0.0,0.0,0.0,0.0,0.0,-121.32048034667969,0.5005145072937012,-0.4727875888347626,0.0,0.0,0.0,0.0,0.0,0.0,0.0,0.0,0.0,0.0026445789262652397,0.0036043073050677776,0.01562747173011303,0.0,0.0,0.0,0.0,0.0,0.0,0.0,0.0,0.0
1606987105266566781,926720,1606983503866392205,imu_link,0.001785917324014008,0.005736729595810175,-0.8717048764228821,0.4899943768978119,0.0,0.0,0.0,0.0,0.0,0.0,0.0,0.0,0.0,-121.32048034667969,0.5005145072937012,-0.4727875888347626,0.0,0.0,0.0,0.0,0.0,0.0,0.0,0.0,0.0,0.0026445789262652397,0.0036043073050677776,0.01562747173011303,0.0,0.0,0.0,0.0,0.0,0.0,0.0,0.0,0.0
1606987105266591371,926721,1606983503866526681,imu_link,0.0017868962604552507,0.005737612023949623,-0.8717047572135925,0.489994615316391,0.0,0.0,0.0,0.0,0.0,0.0,0.0,0.0,0.0,-121.3204345703125,0.5006620287895203,-0.47282060980796814,0.0,0.0,0.0,0.0,0.0,0.0,0.0,0.0,0.0,-0.011766014620661736,0.005964229349046946,0.0014580825809389353,0.0,0.0,0.0,0.0,0.0,0.0,0.0,0.0,0.0
1606987105266602670,926722,1606983503866690300,imu_link,0.0017868962604552507,0.005737612023949623,-0.8717047572135925,0.489994615316391,0.0,0.0,0.0,0.0,0.0,0.0,0.0,0.0,0.0,-121.3204345703125,0.5006620287895203,-0.47282060980796814,0.0,0.0,0.0,0.0,0.0,0.0,0.0,0.0,0.0,-0.011766014620661736,0.005964229349046946,0.0014580825809389353,0.0,0.0,0.0,0.0,0.0,0.0,0.0,0.0,0.0
1606987105266617180,926723,1606983503866779386,imu_link,0.0017839136999100447,0.005736236460506916,-0.8717040419578552,0.48999592661857605,0.0,0.0,0.0,0.0,0.0,0.0,0.0,0.0,0.0,-121.32027435302734,0.5002875328063965,-0.47284990549087524,0.0,0.0,0.0,0.0,0.0,0.0,0.0,0.0,0.0,-0.016768546774983406,-0.011339284479618073,-0.004221886396408081,0.0,0.0,0.0,0.0,0.0,0.0,0.0,0.0,0.0
1606987105405020847,926724,1606983503866854528,imu_link,0.0017839136999100447,0.005736236460506916,-0.8717040419578552,0.48999592661857605,0.0,0.0,0.0,0.0,0.0,0.0,0.0,0.0,0.0,-121.32027435302734,0.5002875328063965,-0.47284990549087524,0.0,0.0,0.0,0.0,0.0,0.0,0.0,0.0,0.0,-0.016768546774983406,-0.011339284479618073,-0.004221886396408081,0.0,0.0,0.0,0.0,0.0,0.0,0.0,0.0,0.0
1606987105405035767,926725,1606983503866936661,imu_link,0.001785166678018868,0.005736531224101782,-0.8717054128646851,0.48999348282814026,0.0,0.0,0.0,0.0,0.0,0.0,0.0,0.0,0.0,-121.32058715820312,0.5004279017448425,-0.47281038761138916,0.0,0.0,0.0,0.0,0.0,0.0,0.0,0.0,0.0,0.0021886981558054686,-0.013013018295168877,-0.0006586080999113619,0.0,0.0,0.0,0.0,0.0,0.0,0.0,0.0,0.0
1606987105405045137,926726,1606983503867071008,imu_link,0.001785166678018868,0.005736531224101782,-0.8717054128646851,0.48999348282814026,0.0,0.0,0.0,0.0,0.0,0.0,0.0,0.0,0.0,-121.32058715820312,0.5004279017448425,-0.47281038761138916,0.0,0.0,0.0,0.0,0.0,0.0,0.0,0.0,0.0,0.0021886981558054686,-0.013013018295168877,-0.0006586080999113619,0.0,0.0,0.0,0.0,0.0,0.0,0.0,0.0,0.0
1606987105405053720,926727,1606983503867150212,imu_link,0.0017850076546892524,0.005735309794545174,-0.871705949306488,0.48999255895614624,0.0,0.0,0.0,0.0,0.0,0.0,0.0,0.0,0.0,-121.32070922851562,0.5003429651260376,-0.47269782423973083,0.0,0.0,0.0,0.0,0.0,0.0,0.0,0.0,0.0,0.004614907316863537,-0.01910719834268093,0.01445776503533125,0.0,0.0,0.0,0.0,0.0,0.0,0.0,0.0,0.0
1606987105405059601,926728,1606983503867223186,imu_link,0.0017850076546892524,0.005735309794545174,-0.871705949306488,0.48999255895614624,0.0,0.0,0.0,0.0,0.0,0.0,0.0,0.0,0.0,-121.32070922851562,0.5003429651260376,-0.47269782423973083,0.0,0.0,0.0,0.0,0.0,0.0,0.0,0.0,0.0,0.004614907316863537,-0.01910719834268093,0.01445776503533125,0.0,0.0,0.0,0.0,0.0,0.0,0.0,0.0,0.0
1606987105438899884,926729,1606983503867300092,imu_link,0.0017842742381617427,0.0057350043207407,-0.8717064261436462,0.4899917244911194,0.0,0.0,0.0,0.0,0.0,0.0,0.0,0.0,0.0,-121.32081604003906,0.5002521276473999,-0.4727090001106262,0.0,0.0,0.0,0.0,0.0,0.0,0.0,0.0,0.0,-0.006524739786982536,-0.034617919474840164,0.021964510902762413,0.0,0.0,0.0,0.0,0.0,0.0,0.0,0.0,0.0
1606987105438917111,926730,1606983503867371681,imu_link,0.0017842742381617427,0.0057350043207407,-0.8717064261436462,0.4899917244911194,0.0,0.0,0.0,0.0,0.0,0.0,0.0,0.0,0.0,-121.32081604003906,0.5002521276473999,-0.4727090001106262,0.0,0.0,0.0,0.0,0.0,0.0,0.0,0.0,0.0,-0.006524739786982536,-0.034617919474840164,0.021964510902762413,0.0,0.0,0.0,0.0,0.0,0.0,0.0,0.0,0.0
1606987105438922339,926731,1606983503879805363,imu_link,0.0017874098848551512,0.005730262957513332,-0.8717069029808044,0.4899909198284149,0.0,0.0,0.0,0.0,0.0,0.0,0.0,0.0,0.0,-121.32093048095703,0.5002986788749695,-0.47205978631973267,0.0,0.0,0.0,0.0,0.0,0.0,0.0,0.0,0.0,-0.005792930722236633,-0.02661530300974846,0.022689584642648697,0.0,0.0,0.0,0.0,0.0,0.0,0.0,0.0,0.0
1606987105438955612,926732,1606983503879934523,imu_link,0.0017874098848551512,0.005730262957513332,-0.8717069029808044,0.4899909198284149,0.0,0.0,0.0,0.0,0.0,0.0,0.0,0.0,0.0,-121.32093048095703,0.5002986788749695,-0.47205978631973267,0.0,0.0,0.0,0.0,0.0,0.0,0.0,0.0,0.0,-0.005792930722236633,-0.02661530300974846,0.022689584642648697,0.0,0.0,0.0,0.0,0.0,0.0,0.0,0.0,0.0
1606987105441934773,926733,1606983503880102206,imu_link,0.0017873799661174417,0.005730010103434324,-0.8717078566551208,0.489989310503006,0.0,0.0,0.0,0.0,0.0,0.0,0.0,0.0,0.0,-121.32113647460938,0.5002806186676025,-0.47203707695007324,0.0,0.0,0.0,0.0,0.0,0.0,0.0,0.0,0.0,-0.012177973054349422,-0.007010399363934994,0.010811581276357174,0.0,0.0,0.0,0.0,0.0,0.0,0.0,0.0,0.0
1606987105441951201,926734,1606983503880191727,imu_link,0.0017873799661174417,0.005730010103434324,-0.8717078566551208,0.489989310503006,0.0,0.0,0.0,0.0,0.0,0.0,0.0,0.0,0.0,-121.32113647460938,0.5002806186676025,-0.47203707695007324,0.0,0.0,0.0,0.0,0.0,0.0,0.0,0.0,0.0,-0.012177973054349422,-0.007010399363934994,0.010811581276357174,0.0,0.0,0.0,0.0,0.0,0.0,0.0,0.0,0.0
1606987105442016273,926735,1606983503880262417,imu_link,0.0017861250089481473,0.005727906245738268,-0.8717078566551208,0.48998910188674927,0.0,0.0,0.0,0.0,0.0,0.0,0.0,0.0,0.0,-121.32115936279297,0.5000370144844055,-0.47189754247665405,0.0,0.0,0.0,0.0,0.0,0.0,0.0,0.0,0.0,-0.006118972785770893,0.01431034505367279,0.012318148277699947,0.0,0.0,0.0,0.0,0.0,0.0,0.0,0.0,0.0
1606987105442025640,926736,1606983503880340071,imu_link,0.0017861250089481473,0.005727906245738268,-0.8717078566551208,0.48998910188674927,0.0,0.0,0.0,0.0,0.0,0.0,0.0,0.0,0.0,-121.32115936279297,0.5000370144844055,-0.47189754247665405,0.0,0.0,0.0,0.0,0.0,0.0,0.0,0.0,0.0,-0.006118972785770893,0.01431034505367279,0.012318148277699947,0.0,0.0,0.0,0.0,0.0,0.0,0.0,0.0,0.0
1606987105446589229,926737,1606983503880434944,imu_link,0.0017835855251178145,0.005728926043957472,-0.8717076778411865,0.48998960852622986,0.0,0.0,0.0,0.0,0.0,0.0,0.0,0.0,0.0,-121.32110595703125,0.4998408854007721,-0.47214165329933167,0.0,0.0,0.0,0.0,0.0,0.0,0.0,0.0,0.0,0.0216080192476511,0.02350715361535549,0.02070840448141098,0.0,0.0,0.0,0.0,0.0,0.0,0.0,0.0,0.0
1606987105446617003,926738,1606983503880512898,imu_link,0.0017835855251178145,0.005728926043957472,-0.8717076778411865,0.48998960852622986,0.0,0.0,0.0,0.0,0.0,0.0,0.0,0.0,0.0,-121.32110595703125,0.4998408854007721,-0.47214165329933167,0.0,0.0,0.0,0.0,0.0,0.0,0.0,0.0,0.0,0.0216080192476511,0.02350715361535549,0.02070840448141098,0.0,0.0,0.0,0.0,0.0,0.0,0.0,0.0,0.0
1606987105446629807,926739,1606983503880666525,imu_link,0.0017840095097199082,0.005734560079872608,-0.8717055916786194,0.48999330401420593,0.0,0.0,0.0,0.0,0.0,0.0,0.0,0.0,0.0,-121.32061004638672,0.5002015829086304,-0.4726785719394684,0.0,0.0,0.0,0.0,0.0,0.0,0.0,0.0,0.0,0.018508218228816986,0.00908412504941225,0.012230808846652508,0.0,0.0,0.0,0.0,0.0,0.0,0.0,0.0,0.0
1606987105446644779,926740,1606983503880752345,imu_link,0.0017840095097199082,0.005734560079872608,-0.8717055916786194,0.48999330401420593,0.0,0.0,0.0,0.0,0.0,0.0,0.0,0.0,0.0,-121.32061004638672,0.5002015829086304,-0.4726785719394684,0.0,0.0,0.0,0.0,0.0,0.0,0.0,0.0,0.0,0.018508218228816986,0.00908412504941225,0.012230808846652508,0.0,0.0,0.0,0.0,0.0,0.0,0.0,0.0,0.0
1606987105503750150,926741,1606983503880828183,imu_link,0.0017851601587608457,0.005735037848353386,-0.8717053532600403,0.4899936318397522,0.0,0.0,0.0,0.0,0.0,0.0,0.0,0.0,0.0,-121.32057189941406,0.5003435015678406,-0.47266143560409546,0.0,0.0,0.0,0.0,0.0,0.0,0.0,0.0,0.0,0.00564660644158721,-0.0047967941500246525,0.01691865362226963,0.0,0.0,0.0,0.0,0.0,0.0,0.0,0.0,0.0
1606987105503775970,926742,1606983503893721547,imu_link,0.0017851601587608457,0.005735037848353386,-0.8717053532600403,0.4899936318397522,0.0,0.0,0.0,0.0,0.0,0.0,0.0,0.0,0.0,-121.32057189941406,0.5003435015678406,-0.47266143560409546,0.0,0.0,0.0,0.0,0.0,0.0,0.0,0.0,0.0,0.00564660644158721,-0.0047967941500246525,0.01691865362226963,0.0,0.0,0.0,0.0,0.0,0.0,0.0,0.0,0.0
1606987105503792379,926743,1606983503893849571,imu_link,0.0017851587617769837,0.005736058112233877,-0.8717054724693298,0.4899934232234955,0.0,0.0,0.0,0.0,0.0,0.0,0.0,0.0,0.0,-121.32060241699219,0.5004005432128906,-0.47276362776756287,0.0,0.0,0.0,0.0,0.0,0.0,0.0,0.0,0.0,0.004434168338775635,-0.0004151673929300159,0.01950787752866745,0.0,0.0,0.0,0.0,0.0,0.0,0.0,0.0,0.0
1606987105503802072,926744,1606983503894016803,imu_link,0.0017851587617769837,0.005736058112233877,-0.8717054724693298,0.4899934232234955,0.0,0.0,0.0,0.0,0.0,0.0,0.0,0.0,0.0,-121.32060241699219,0.5004005432128906,-0.47276362776756287,0.0,0.0,0.0,0.0,0.0,0.0,0.0,0.0,0.0,0.004434168338775635,-0.0004151673929300159,0.01950787752866745,0.0,0.0,0.0,0.0,0.0,0.0,0.0,0.0,0.0
1606987105503816919,926745,1606983503894109497,imu_link,0.001785094733349979,0.005737703293561935,-0.8717057704925537,0.4899928867816925,0.0,0.0,0.0,0.0,0.0,0.0,0.0,0.0,0.0,-121.32067108154297,0.5004862546920776,-0.4729318916797638,0.0,0.0,0.0,0.0,0.0,0.0,0.0,0.0,0.0,0.003953264094889164,-0.003911436069756746,0.03903705254197121,0.0,0.0,0.0,0.0,0.0,0.0,0.0,0.0,0.0
1606987105513741046,926746,1606983503894191297,imu_link,0.001785094733349979,0.005737703293561935,-0.8717057704925537,0.4899928867816925,0.0,0.0,0.0,0.0,0.0,0.0,0.0,0.0,0.0,-121.32067108154297,0.5004862546920776,-0.4729318916797638,0.0,0.0,0.0,0.0,0.0,0.0,0.0,0.0,0.0,0.003953264094889164,-0.003911436069756746,0.03903705254197121,0.0,0.0,0.0,0.0,0.0,0.0,0.0,0.0,0.0
1606987105513763810,926747,1606983503894271058,imu_link,0.0017847761046141386,0.005740328226238489,-0.8717052936553955,0.48999378085136414,0.0,0.0,0.0,0.0,0.0,0.0,0.0,0.0,0.0,-121.320556640625,0.5006023049354553,-0.47321149706840515,0.0,0.0,0.0,0.0,0.0,0.0,0.0,0.0,0.0,0.0004992196336388588,-0.003958902321755886,0.029436612501740456,0.0,0.0,0.0,0.0,0.0,0.0,0.0,0.0,0.0
1606987105513773762,926748,1606983503894369946,imu_link,0.0017847761046141386,0.005740328226238489,-0.8717052936553955,0.48999378085136414,0.0,0.0,0.0,0.0,0.0,0.0,0.0,0.0,0.0,-121.320556640625,0.5006023049354553,-0.47321149706840515,0.0,0.0,0.0,0.0,0.0,0.0,0.0,0.0,0.0,0.0004992196336388588,-0.003958902321755886,0.029436612501740456,0.0,0.0,0.0,0.0,0.0,0.0,0.0,0.0,0.0
1606987105513787543,926749,1606983503894452140,imu_link,0.0017855898477137089,0.005740101914852858,-0.8717058300971985,0.48999276757240295,0.0,0.0,0.0,0.0,0.0,0.0,0.0,0.0,0.0,-121.3206787109375,0.500670313835144,-0.47314372658729553,0.0,0.0,0.0,0.0,0.0,0.0,0.0,0.0,0.0,0.00910146627575159,0.0051024360582232475,0.013869883492588997,0.0,0.0,0.0,0.0,0.0,0.0,0.0,0.0,0.0
1606987105528768580,926750,1606983503894527991,imu_link,0.0017855898477137089,0.005740101914852858,-0.8717058300971985,0.48999276757240295,0.0,0.0,0.0,0.0,0.0,0.0,0.0,0.0,0.0,-121.3206787109375,0.500670313835144,-0.47314372658729553,0.0,0.0,0.0,0.0,0.0,0.0,0.0,0.0,0.0,0.00910146627575159,0.0051024360582232475,0.013869883492588997,0.0,0.0,0.0,0.0,0.0,0.0,0.0,0.0,0.0
1606987105528790019,926751,1606983503894605285,imu_link,0.0017866126727312803,0.005741795990616083,-0.8717057108879089,0.48999297618865967,0.0,0.0,0.0,0.0,0.0,0.0,0.0,0.0,0.0,-121.3206558227539,0.5008677840232849,-0.4732553958892822,0.0,0.0,0.0,0.0,0.0,0.0,0.0,0.0,0.0,0.02355026826262474,0.009164296090602875,0.028058404102921486,0.0,0.0,0.0,0.0,0.0,0.0,0.0,0.0,0.0
1606987105528804492,926752,1606983503894684522,imu_link,0.0017866126727312803,0.005741795990616083,-0.8717057108879089,0.48999297618865967,0.0,0.0,0.0,0.0,0.0,0.0,0.0,0.0,0.0,-121.3206558227539,0.5008677840232849,-0.4732553958892822,0.0,0.0,0.0,0.0,0.0,0.0,0.0,0.0,0.0,0.02355026826262474,0.009164296090602875,0.028058404102921486,0.0,0.0,0.0,0.0,0.0,0.0,0.0,0.0,0.0
1606987105528845101,926753,1606983503907137511,imu_link,0.0017876032507047057,0.0057434034533798695,-0.8717071413993835,0.4899901747703552,0.0,0.0,0.0,0.0,0.0,0.0,0.0,0.0,0.0,-121.3210220336914,0.5010554194450378,-0.4733620285987854,0.0,0.0,0.0,0.0,0.0,0.0,0.0,0.0,0.0,0.012443683110177517,-0.003708061296492815,0.021096784621477127,0.0,0.0,0.0,0.0,0.0,0.0,0.0,0.0,0.0
1606987105537555395,926754,1606983503907269790,imu_link,0.0017876032507047057,0.0057434034533798695,-0.8717071413993835,0.4899901747703552,0.0,0.0,0.0,0.0,0.0,0.0,0.0,0.0,0.0,-121.3210220336914,0.5010554194450378,-0.4733620285987854,0.0,0.0,0.0,0.0,0.0,0.0,0.0,0.0,0.0,0.012443683110177517,-0.003708061296492815,0.021096784621477127,0.0,0.0,0.0,0.0,0.0,0.0,0.0,0.0,0.0
1606987105537593949,926755,1606983503907433801,imu_link,0.0017901308601722121,0.005745802540332079,-0.8717071413993835,0.48999035358428955,0.0,0.0,0.0,0.0,0.0,0.0,0.0,0.0,0.0,-121.32100677490234,0.5014427304267883,-0.4734596014022827,0.0,0.0,0.0,0.0,0.0,0.0,0.0,0.0,0.0,0.0034820297732949257,-0.006652882322669029,0.016355089843273163,0.0,0.0,0.0,0.0,0.0,0.0,0.0,0.0,0.0
1606987105537652525,926756,1606983503907519652,imu_link,0.0017901308601722121,0.005745802540332079,-0.8717071413993835,0.48999035358428955,0.0,0.0,0.0,0.0,0.0,0.0,0.0,0.0,0.0,-121.32100677490234,0.5014427304267883,-0.4734596014022827,0.0,0.0,0.0,0.0,0.0,0.0,0.0,0.0,0.0,0.0034820297732949257,-0.006652882322669029,0.016355089843273163,0.0,0.0,0.0,0.0,0.0,0.0,0.0,0.0,0.0
1606987105537670722,926757,1606983503907596885,imu_link,0.0017899865051731467,0.005743981339037418,-0.8717077374458313,0.48998934030532837,0.0,0.0,0.0,0.0,0.0,0.0,0.0,0.0,0.0,-121.3211441040039,0.5013254880905151,-0.47328636050224304,0.0,0.0,0.0,0.0,0.0,0.0,0.0,0.0,0.0,0.0068584466353058815,-0.0033759295474737883,0.015653491020202637,0.0,0.0,0.0,0.0,0.0,0.0,0.0,0.0,0.0
1606987105561299123,926758,1606983503907697206,imu_link,0.0017899865051731467,0.005743981339037418,-0.8717077374458313,0.48998934030532837,0.0,0.0,0.0,0.0,0.0,0.0,0.0,0.0,0.0,-121.3211441040039,0.5013254880905151,-0.47328636050224304,0.0,0.0,0.0,0.0,0.0,0.0,0.0,0.0,0.0,0.0068584466353058815,-0.0033759295474737883,0.015653491020202637,0.0,0.0,0.0,0.0,0.0,0.0,0.0,0.0,0.0
1606987105561337503,926759,1606983503907777521,imu_link,0.0017919003730639815,0.005744844675064087,-0.8717079758644104,0.48998865485191345,0.0,0.0,0.0,0.0,0.0,0.0,0.0,0.0,0.0,-121.32122802734375,0.5015648007392883,-0.47326552867889404,0.0,0.0,0.0,0.0,0.0,0.0,0.0,0.0,0.0,0.005108344368636608,0.0013862930936738849,0.012488216161727905,0.0,0.0,0.0,0.0,0.0,0.0,0.0,0.0,0.0
1606987105561361096,926760,1606983503907851439,imu_link,0.0017919003730639815,0.005744844675064087,-0.8717079758644104,0.48998865485191345,0.0,0.0,0.0,0.0,0.0,0.0,0.0,0.0,0.0,-121.32122802734375,0.5015648007392883,-0.47326552867889404,0.0,0.0,0.0,0.0,0.0,0.0,0.0,0.0,0.0,0.005108344368636608,0.0013862930936738849,0.012488216161727905,0.0,0.0,0.0,0.0,0.0,0.0,0.0,0.0,0.0
1606987105561367540,926761,1606983503907928332,imu_link,0.0017923159757629037,0.0057456535287201405,-0.8717074990272522,0.4899895489215851,0.0,0.0,0.0,0.0,0.0,0.0,0.0,0.0,0.0,-121.32110595703125,0.501652181148529,-0.4733225405216217,0.0,0.0,0.0,0.0,0.0,0.0,0.0,0.0,0.0,0.012607481330633163,-0.005319550633430481,0.008870450779795647,0.0,0.0,0.0,0.0,0.0,0.0,0.0,0.0,0.0
1606987105561373024,926762,1606983503908000352,imu_link,0.0017923159757629037,0.0057456535287201405,-0.8717074990272522,0.4899895489215851,0.0,0.0,0.0,0.0,0.0,0.0,0.0,0.0,0.0,-121.32110595703125,0.501652181148529,-0.4733225405216217,0.0,0.0,0.0,0.0,0.0,0.0,0.0,0.0,0.0,0.012607481330633163,-0.005319550633430481,0.008870450779795647,0.0,0.0,0.0,0.0,0.0,0.0,0.0,0.0,0.0
1606987105561382059,926763,1606983503908077138,imu_link,0.0017947318265214562,0.005747395101934671,-0.8717077374458313,0.48998913168907166,0.0,0.0,0.0,0.0,0.0,0.0,0.0,0.0,0.0,-121.32115936279297,0.5019910931587219,-0.4733611047267914,0.0,0.0,0.0,0.0,0.0,0.0,0.0,0.0,0.0,0.0107612619176507,0.005525031592696905,0.009780376218259335,0.0,0.0,0.0,0.0,0.0,0.0,0.0,0.0,0.0
1606987105561394727,926764,1606983503919973184,imu_link,0.0017947318265214562,0.005747395101934671,-0.8717077374458313,0.48998913168907166,0.0,0.0,0.0,0.0,0.0,0.0,0.0,0.0,0.0,-121.32115936279297,0.5019910931587219,-0.4733611047267914,0.0,0.0,0.0,0.0,0.0,0.0,0.0,0.0,0.0,0.0107612619176507,0.005525031592696905,0.009780376218259335,0.0,0.0,0.0,0.0,0.0,0.0,0.0,0.0,0.0
1606987105561417038,926765,1606983503920119943,imu_link,0.0017954508075490594,0.005748141556978226,-0.8717097043991089,0.48998576402664185,0.0,0.0,0.0,0.0,0.0,0.0,0.0,0.0,0.0,-121.32160949707031,0.5021029710769653,-0.4733971953392029,0.0,0.0,0.0,0.0,0.0,0.0,0.0,0.0,0.0,0.004887332674115896,0.015173608437180519,-0.004170375410467386,0.0,0.0,0.0,0.0,0.0,0.0,0.0,0.0,0.0
1606987105561427342,926766,1606983503920263946,imu_link,0.0017954508075490594,0.005748141556978226,-0.8717097043991089,0.48998576402664185,0.0,0.0,0.0,0.0,0.0,0.0,0.0,0.0,0.0,-121.32160949707031,0.5021029710769653,-0.4733971953392029,0.0,0.0,0.0,0.0,0.0,0.0,0.0,0.0,0.0,0.004887332674115896,0.015173608437180519,-0.004170375410467386,0.0,0.0,0.0,0.0,0.0,0.0,0.0,0.0,0.0
1606987105563406653,926767,1606983503920357518,imu_link,0.0017942213453352451,0.005752169992774725,-0.8717101216316223,0.4899848699569702,0.0,0.0,0.0,0.0,0.0,0.0,0.0,0.0,0.0,-121.32172393798828,0.5022059082984924,-0.473869264125824,0.0,0.0,0.0,0.0,0.0,0.0,0.0,0.0,0.0,0.020606713369488716,0.008438950404524803,0.013367264531552792,0.0,0.0,0.0,0.0,0.0,0.0,0.0,0.0,0.0
1606987105563415758,926768,1606983503920452743,imu_link,0.0017942213453352451,0.005752169992774725,-0.8717101216316223,0.4899848699569702,0.0,0.0,0.0,0.0,0.0,0.0,0.0,0.0,0.0,-121.32172393798828,0.5022059082984924,-0.473869264125824,0.0,0.0,0.0,0.0,0.0,0.0,0.0,0.0,0.0,0.020606713369488716,0.008438950404524803,0.013367264531552792,0.0,0.0,0.0,0.0,0.0,0.0,0.0,0.0,0.0
1606987105563432949,926769,1606983503920568306,imu_link,0.0017941404366865754,0.005749673582613468,-0.8717095851898193,0.489985853433609,0.0,0.0,0.0,0.0,0.0,0.0,0.0,0.0,0.0,-121.32159423828125,0.5020581483840942,-0.4736238718032837,0.0,0.0,0.0,0.0,0.0,0.0,0.0,0.0,0.0,0.008132426999509335,0.00447425851598382,0.019079163670539856,0.0,0.0,0.0,0.0,0.0,0.0,0.0,0.0,0.0
1606987105563444844,926770,1606983503920656660,imu_link,0.0017941404366865754,0.005749673582613468,-0.8717095851898193,0.489985853433609,0.0,0.0,0.0,0.0,0.0,0.0,0.0,0.0,0.0,-121.32159423828125,0.5020581483840942,-0.4736238718032837,0.0,0.0,0.0,0.0,0.0,0.0,0.0,0.0,0.0,0.008132426999509335,0.00447425851598382,0.019079163670539856,0.0,0.0,0.0,0.0,0.0,0.0,0.0,0.0,0.0
1606987105563459750,926771,1606983503920740093,imu_link,0.0017945664003491402,0.005749637261033058,-0.8717107772827148,0.48998376727104187,0.0,0.0,0.0,0.0,0.0,0.0,0.0,0.0,0.0,-121.32186889648438,0.5020975470542908,-0.4735974967479706,0.0,0.0,0.0,0.0,0.0,0.0,0.0,0.0,0.0,-0.013627778738737106,-0.01832645572721958,-0.005269487854093313,0.0,0.0,0.0,0.0,0.0,0.0,0.0,0.0,0.0
1606987105563467173,926772,1606983503920830879,imu_link,0.0017945664003491402,0.005749637261033058,-0.8717107772827148,0.48998376727104187,0.0,0.0,0.0,0.0,0.0,0.0,0.0,0.0,0.0,-121.32186889648438,0.5020975470542908,-0.4735974967479706,0.0,0.0,0.0,0.0,0.0,0.0,0.0,0.0,0.0,-0.013627778738737106,-0.01832645572721958,-0.005269487854093313,0.0,0.0,0.0,0.0,0.0,0.0,0.0,0.0,0.0
1606987105563494907,926773,1606983503920922135,imu_link,0.0017933899071067572,0.005748966708779335,-0.8717120289802551,0.48998159170150757,0.0,0.0,0.0,0.0,0.0,0.0,0.0,0.0,0.0,-121.32215881347656,0.5019412040710449,-0.47359782457351685,0.0,0.0,0.0,0.0,0.0,0.0,0.0,0.0,0.0,-0.020276809111237526,-0.021939197555184364,-0.012859713286161423,0.0,0.0,0.0,0.0,0.0,0.0,0.0,0.0,0.0
1606987105563542986,926774,1606983503933825081,imu_link,0.0017933899071067572,0.005748966708779335,-0.8717120289802551,0.48998159170150757,0.0,0.0,0.0,0.0,0.0,0.0,0.0,0.0,0.0,-121.32215881347656,0.5019412040710449,-0.47359782457351685,0.0,0.0,0.0,0.0,0.0,0.0,0.0,0.0,0.0,-0.020276809111237526,-0.021939197555184364,-0.012859713286161423,0.0,0.0,0.0,0.0,0.0,0.0,0.0,0.0,0.0
1606987105585989269,926775,1606983503933980561,imu_link,0.0017911058384925127,0.005742294248193502,-0.8717114329338074,0.4899826645851135,0.0,0.0,0.0,0.0,0.0,0.0,0.0,0.0,0.0,-121.32200622558594,0.5013389587402344,-0.47305893898010254,0.0,0.0,0.0,0.0,0.0,0.0,0.0,0.0,0.0,-0.028379596769809723,-0.012155415490269661,0.00845435168594122,0.0,0.0,0.0,0.0,0.0,0.0,0.0,0.0,0.0
1606987105586020135,926776,1606983503934158097,imu_link,0.0017911058384925127,0.005742294248193502,-0.8717114329338074,0.4899826645851135,0.0,0.0,0.0,0.0,0.0,0.0,0.0,0.0,0.0,-121.32200622558594,0.5013389587402344,-0.47305893898010254,0.0,0.0,0.0,0.0,0.0,0.0,0.0,0.0,0.0,-0.028379596769809723,-0.012155415490269661,0.00845435168594122,0.0,0.0,0.0,0.0,0.0,0.0,0.0,0.0,0.0
1606987105586037425,926777,1606983503934257968,imu_link,0.0017882614629343152,0.0057411701418459415,-0.8717098832130432,0.48998546600341797,0.0,0.0,0.0,0.0,0.0,0.0,0.0,0.0,0.0,-121.32164001464844,0.5009932518005371,-0.47310465574264526,0.0,0.0,0.0,0.0,0.0,0.0,0.0,0.0,0.0,-0.01572921872138977,0.00595898786559701,0.022034691646695137,0.0,0.0,0.0,0.0,0.0,0.0,0.0,0.0,0.0
1606987105586049381,926778,1606983503934339892,imu_link,0.0017882614629343152,0.0057411701418459415,-0.8717098832130432,0.48998546600341797,0.0,0.0,0.0,0.0,0.0,0.0,0.0,0.0,0.0,-121.32164001464844,0.5009932518005371,-0.47310465574264526,0.0,0.0,0.0,0.0,0.0,0.0,0.0,0.0,0.0,-0.01572921872138977,0.00595898786559701,0.022034691646695137,0.0,0.0,0.0,0.0,0.0,0.0,0.0,0.0,0.0
1606987105586071804,926779,1606983503934428603,imu_link,0.0017831048462539911,0.005743003450334072,-0.8717085719108582,0.4899878203868866,0.0,0.0,0.0,0.0,0.0,0.0,0.0,0.0,0.0,-121.32133483886719,0.5005822777748108,-0.47357600927352905,0.0,0.0,0.0,0.0,0.0,0.0,0.0,0.0,0.0,-0.005583351477980614,0.011769307777285576,0.0369659960269928,0.0,0.0,0.0,0.0,0.0,0.0,0.0,0.0,0.0
1606987105586105402,926780,1606983503934535876,imu_link,0.0017831048462539911,0.005743003450334072,-0.8717085719108582,0.4899878203868866,0.0,0.0,0.0,0.0,0.0,0.0,0.0,0.0,0.0,-121.32133483886719,0.5005822777748108,-0.47357600927352905,0.0,0.0,0.0,0.0,0.0,0.0,0.0,0.0,0.0,-0.005583351477980614,0.011769307777285576,0.0369659960269928,0.0,0.0,0.0,0.0,0.0,0.0,0.0,0.0,0.0
1606987105586135968,926781,1606983503934666132,imu_link,0.0017808215925469995,0.005744112655520439,-0.8717091083526611,0.4899868667125702,0.0,0.0,0.0,0.0,0.0,0.0,0.0,0.0,0.0,-121.32145690917969,0.5004159808158875,-0.4738154709339142,0.0,0.0,0.0,0.0,0.0,0.0,0.0,0.0,0.0,0.008845632895827293,0.01490941271185875,0.07110661268234253,0.0,0.0,0.0,0.0,0.0,0.0,0.0,0.0,0.0
1606987105586160726,926782,1606983503934747805,imu_link,0.0017808215925469995,0.005744112655520439,-0.8717091083526611,0.4899868667125702,0.0,0.0,0.0,0.0,0.0,0.0,0.0,0.0,0.0,-121.32145690917969,0.5004159808158875,-0.4738154709339142,0.0,0.0,0.0,0.0,0.0,0.0,0.0,0.0,0.0,0.008845632895827293,0.01490941271185875,0.07110661268234253,0.0,0.0,0.0,0.0,0.0,0.0,0.0,0.0,0.0
1606987105586171264,926783,1606983503934826298,imu_link,0.0017808704869821668,0.0057455734349787235,-0.8717088103294373,0.4899873435497284,0.0,0.0,0.0,0.0,0.0,0.0,0.0,0.0,0.0,-121.32139587402344,0.5005031824111938,-0.47395843267440796,0.0,0.0,0.0,0.0,0.0,0.0,0.0,0.0,0.0,0.015129081904888153,0.014538613148033619,0.05790717154741287,0.0,0.0,0.0,0.0,0.0,0.0,0.0,0.0,0.0
1606987105586182451,926784,1606983503934907298,imu_link,0.0017808704869821668,0.0057455734349787235,-0.8717088103294373,0.4899873435497284,0.0,0.0,0.0,0.0,0.0,0.0,0.0,0.0,0.0,-121.32139587402344,0.5005031824111938,-0.47395843267440796,0.0,0.0,0.0,0.0,0.0,0.0,0.0,0.0,0.0,0.015129081904888153,0.014538613148033619,0.05790717154741287,0.0,0.0,0.0,0.0,0.0,0.0,0.0,0.0,0.0
1606987105586201137,926785,1606983503947239290,imu_link,0.0017813497688621283,0.005747513379901648,-0.8717105984687805,0.4899841547012329,0.0,0.0,0.0,0.0,0.0,0.0,0.0,0.0,0.0,-121.32181549072266,0.5006582140922546,-0.4741271734237671,0.0,0.0,0.0,0.0,0.0,0.0,0.0,0.0,0.0,-0.008179930038750172,0.015313432551920414,0.026165876537561417,0.0,0.0,0.0,0.0,0.0,0.0,0.0,0.0,0.0
1606987105586251201,926786,1606983503947356507,imu_link,0.0017813497688621283,0.005747513379901648,-0.8717105984687805,0.4899841547012329,0.0,0.0,0.0,0.0,0.0,0.0,0.0,0.0,0.0,-121.32181549072266,0.5006582140922546,-0.4741271734237671,0.0,0.0,0.0,0.0,0.0,0.0,0.0,0.0,0.0,-0.008179930038750172,0.015313432551920414,0.026165876537561417,0.0,0.0,0.0,0.0,0.0,0.0,0.0,0.0,0.0
1606987105586269808,926787,1606983503947492199,imu_link,0.0017819609493017197,0.005748758092522621,-0.8717111349105835,0.4899832308292389,0.0,0.0,0.0,0.0,0.0,0.0,0.0,0.0,0.0,-121.32193756103516,0.5007886290550232,-0.47421765327453613,0.0,0.0,0.0,0.0,0.0,0.0,0.0,0.0,0.0,-0.0029364072252064943,0.020692648366093636,0.01646224595606327,0.0,0.0,0.0,0.0,0.0,0.0,0.0,0.0,0.0
1606987105586286248,926788,1606983503947568380,imu_link,0.0017819609493017197,0.005748758092522621,-0.8717111349105835,0.4899832308292389,0.0,0.0,0.0,0.0,0.0,0.0,0.0,0.0,0.0,-121.32193756103516,0.5007886290550232,-0.47421765327453613,0.0,0.0,0.0,0.0,0.0,0.0,0.0,0.0,0.0,-0.0029364072252064943,0.020692648366093636,0.01646224595606327,0.0,0.0,0.0,0.0,0.0,0.0,0.0,0.0,0.0
1606987105586342681,926789,1606983503947651876,imu_link,0.001781797967851162,0.005748382303863764,-0.871712327003479,0.4899810552597046,0.0,0.0,0.0,0.0,0.0,0.0,0.0,0.0,0.0,-121.32222747802734,0.5007500648498535,-0.4741905927658081,0.0,0.0,0.0,0.0,0.0,0.0,0.0,0.0,0.0,0.009601091034710407,0.008588558994233608,0.013466395437717438,0.0,0.0,0.0,0.0,0.0,0.0,0.0,0.0,0.0
1606987105586352163,926790,1606983503947724381,imu_link,0.001781797967851162,0.005748382303863764,-0.871712327003479,0.4899810552597046,0.0,0.0,0.0,0.0,0.0,0.0,0.0,0.0,0.0,-121.32222747802734,0.5007500648498535,-0.4741905927658081,0.0,0.0,0.0,0.0,0.0,0.0,0.0,0.0,0.0,0.009601091034710407,0.008588558994233608,0.013466395437717438,0.0,0.0,0.0,0.0,0.0,0.0,0.0,0.0,0.0
1606987105619870542,926791,1606983503947820492,imu_link,0.0017808207776397467,0.0057495394721627235,-0.8717127442359924,0.4899802803993225,0.0,0.0,0.0,0.0,0.0,0.0,0.0,0.0,0.0,-121.32233428955078,0.500717043876648,-0.47436147928237915,0.0,0.0,0.0,0.0,0.0,0.0,0.0,0.0,0.0,0.00040111958514899015,0.013974595814943314,0.020919397473335266,0.0,0.0,0.0,0.0,0.0,0.0,0.0,0.0,0.0
1606987105619907036,926792,1606983503947904469,imu_link,0.0017808207776397467,0.0057495394721627235,-0.8717127442359924,0.4899802803993225,0.0,0.0,0.0,0.0,0.0,0.0,0.0,0.0,0.0,-121.32233428955078,0.500717043876648,-0.47436147928237915,0.0,0.0,0.0,0.0,0.0,0.0,0.0,0.0,0.0,0.00040111958514899015,0.013974595814943314,0.020919397473335266,0.0,0.0,0.0,0.0,0.0,0.0,0.0,0.0,0.0
1606987105619918355,926793,1606983503947982201,imu_link,0.0017801489448174834,0.005748848430812359,-0.8717124462127686,0.48998090624809265,0.0,0.0,0.0,0.0,0.0,0.0,0.0,0.0,0.0,-121.3222427368164,0.500611424446106,-0.4743298292160034,0.0,0.0,0.0,0.0,0.0,0.0,0.0,0.0,0.0,-0.00037084674113430083,0.02327326498925686,0.037160348147153854,0.0,0.0,0.0,0.0,0.0,0.0,0.0,0.0,0.0
1606987105619937516,926794,1606983503948059633,imu_link,0.0017801489448174834,0.005748848430812359,-0.8717124462127686,0.48998090624809265,0.0,0.0,0.0,0.0,0.0,0.0,0.0,0.0,0.0,-121.3222427368164,0.500611424446106,-0.4743298292160034,0.0,0.0,0.0,0.0,0.0,0.0,0.0,0.0,0.0,-0.00037084674113430083,0.02327326498925686,0.037160348147153854,0.0,0.0,0.0,0.0,0.0,0.0,0.0,0.0,0.0
1606987105619957106,926795,1606983503948136330,imu_link,0.001778596662916243,0.005751935765147209,-0.8717125654220581,0.4899806082248688,0.0,0.0,0.0,0.0,0.0,0.0,0.0,0.0,0.0,-121.32228088378906,0.5006295442581177,-0.4747254550457001,0.0,0.0,0.0,0.0,0.0,0.0,0.0,0.0,0.0,0.010168008506298065,0.000730605679564178,0.025230813771486282,0.0,0.0,0.0,0.0,0.0,0.0,0.0,0.0,0.0
1606987105619964441,926796,1606983503961067974,imu_link,0.001778596662916243,0.005751935765147209,-0.8717125654220581,0.4899806082248688,0.0,0.0,0.0,0.0,0.0,0.0,0.0,0.0,0.0,-121.32228088378906,0.5006295442581177,-0.4747254550457001,0.0,0.0,0.0,0.0,0.0,0.0,0.0,0.0,0.0,0.010168008506298065,0.000730605679564178,0.025230813771486282,0.0,0.0,0.0,0.0,0.0,0.0,0.0,0.0,0.0
1606987105619979105,926797,1606983503961197032,imu_link,0.0017755429726094007,0.005753910169005394,-0.8717132806777954,0.4899792969226837,0.0,0.0,0.0,0.0,0.0,0.0,0.0,0.0,0.0,-121.32245635986328,0.5004346966743469,-0.4750949740409851,0.0,0.0,0.0,0.0,0.0,0.0,0.0,0.0,0.0,0.019300121814012527,-0.0030902372673153877,0.01281534694135189,0.0,0.0,0.0,0.0,0.0,0.0,0.0,0.0,0.0
1606987105619990858,926798,1606983503961342635,imu_link,0.0017755429726094007,0.005753910169005394,-0.8717132806777954,0.4899792969226837,0.0,0.0,0.0,0.0,0.0,0.0,0.0,0.0,0.0,-121.32245635986328,0.5004346966743469,-0.4750949740409851,0.0,0.0,0.0,0.0,0.0,0.0,0.0,0.0,0.0,0.019300121814012527,-0.0030902372673153877,0.01281534694135189,0.0,0.0,0.0,0.0,0.0,0.0,0.0,0.0,0.0
1606987105620000969,926799,1606983503961424831,imu_link,0.0017777094617486,0.00575300445780158,-0.871712863445282,0.4899801015853882,0.0,0.0,0.0,0.0,0.0,0.0,0.0,0.0,0.0,-121.32234954833984,0.5006006956100464,-0.4748823642730713,0.0,0.0,0.0,0.0,0.0,0.0,0.0,0.0,0.0,0.011358175426721573,0.011375809088349342,0.016224054619669914,0.0,0.0,0.0,0.0,0.0,0.0,0.0,0.0,0.0
1606987105716179433,926800,1606983503961505346,imu_link,0.0017777094617486,0.00575300445780158,-0.871712863445282,0.4899801015853882,0.0,0.0,0.0,0.0,0.0,0.0,0.0,0.0,0.0,-121.32234954833984,0.5006006956100464,-0.4748823642730713,0.0,0.0,0.0,0.0,0.0,0.0,0.0,0.0,0.0,0.011358175426721573,0.011375809088349342,0.016224054619669914,0.0,0.0,0.0,0.0,0.0,0.0,0.0,0.0,0.0
1606987105716210057,926801,1606983503961580676,imu_link,0.0017768113175407052,0.005752922967076302,-0.8717126846313477,0.48998045921325684,0.0,0.0,0.0,0.0,0.0,0.0,0.0,0.0,0.0,-121.32231140136719,0.500506579875946,-0.4749245345592499,0.0,0.0,0.0,0.0,0.0,0.0,0.0,0.0,0.0,-0.00039831173489801586,0.004450820852071047,0.03517886623740196,0.0,0.0,0.0,0.0,0.0,0.0,0.0,0.0,0.0
1606987105716235187,926802,1606983503961678283,imu_link,0.0017768113175407052,0.005752922967076302,-0.8717126846313477,0.48998045921325684,0.0,0.0,0.0,0.0,0.0,0.0,0.0,0.0,0.0,-121.32231140136719,0.500506579875946,-0.4749245345592499,0.0,0.0,0.0,0.0,0.0,0.0,0.0,0.0,0.0,-0.00039831173489801586,0.004450820852071047,0.03517886623740196,0.0,0.0,0.0,0.0,0.0,0.0,0.0,0.0,0.0
1606987105719350467,926803,1606983503961753761,imu_link,0.001777010504156351,0.005753192584961653,-0.8717115521430969,0.4899824559688568,0.0,0.0,0.0,0.0,0.0,0.0,0.0,0.0,0.0,-121.3220443725586,0.5005427002906799,-0.47493913769721985,0.0,0.0,0.0,0.0,0.0,0.0,0.0,0.0,0.0,-0.0010215828660875559,-0.016883457079529762,0.016963187605142593,0.0,0.0,0.0,0.0,0.0,0.0,0.0,0.0,0.0
1606987105719370224,926804,1606983503961830359,imu_link,0.001777010504156351,0.005753192584961653,-0.8717115521430969,0.4899824559688568,0.0,0.0,0.0,0.0,0.0,0.0,0.0,0.0,0.0,-121.3220443725586,0.5005427002906799,-0.47493913769721985,0.0,0.0,0.0,0.0,0.0,0.0,0.0,0.0,0.0,-0.0010215828660875559,-0.016883457079529762,0.016963187605142593,0.0,0.0,0.0,0.0,0.0,0.0,0.0,0.0,0.0
1606987105719402172,926805,1606983503961905449,imu_link,0.0017757563618943095,0.005752858705818653,-0.871712863445282,0.48998013138771057,0.0,0.0,0.0,0.0,0.0,0.0,0.0,0.0,0.0,-121.32234954833984,0.5003973841667175,-0.4749774634838104,0.0,0.0,0.0,0.0,0.0,0.0,0.0,0.0,0.0,-0.0004089861176908016,-0.02248677983880043,-0.017907684668898582,0.0,0.0,0.0,0.0,0.0,0.0,0.0,0.0,0.0
1606987105719419732,926806,1606983503961981813,imu_link,0.0017757563618943095,0.005752858705818653,-0.871712863445282,0.48998013138771057,0.0,0.0,0.0,0.0,0.0,0.0,0.0,0.0,0.0,-121.32234954833984,0.5003973841667175,-0.4749774634838104,0.0,0.0,0.0,0.0,0.0,0.0,0.0,0.0,0.0,-0.0004089861176908016,-0.02248677983880043,-0.017907684668898582,0.0,0.0,0.0,0.0,0.0,0.0,0.0,0.0,0.0
1606987105735325326,926807,1606983503974580580,imu_link,0.0017783959629014134,0.005751504097133875,-0.8717125058174133,0.4899807274341583,0.0,0.0,0.0,0.0,0.0,0.0,0.0,0.0,0.0,-121.322265625,0.5005853176116943,-0.4746935963630676,0.0,0.0,0.0,0.0,0.0,0.0,0.0,0.0,0.0,0.0014027374563738704,-0.013394772075116634,-0.014175022020936012,0.0,0.0,0.0,0.0,0.0,0.0,0.0,0.0,0.0
1606987105735367237,926808,1606983503974710458,imu_link,0.0017783959629014134,0.005751504097133875,-0.8717125058174133,0.4899807274341583,0.0,0.0,0.0,0.0,0.0,0.0,0.0,0.0,0.0,-121.322265625,0.5005853176116943,-0.4746935963630676,0.0,0.0,0.0,0.0,0.0,0.0,0.0,0.0,0.0,0.0014027374563738704,-0.013394772075116634,-0.014175022020936012,0.0,0.0,0.0,0.0,0.0,0.0,0.0,0.0,0.0
1606987105735389434,926809,1606983503974857465,imu_link,0.0017780482303351164,0.005752585828304291,-0.8717130422592163,0.48997974395751953,0.0,0.0,0.0,0.0,0.0,0.0,0.0,0.0,0.0,-121.32240295410156,0.5006108283996582,-0.4748217463493347,0.0,0.0,0.0,0.0,0.0,0.0,0.0,0.0,0.0,0.015458011999726295,0.002180076902732253,-0.0027014175429940224,0.0,0.0,0.0,0.0,0.0,0.0,0.0,0.0,0.0
1606987105735404586,926810,1606983503974982808,imu_link,0.0017780482303351164,0.005752585828304291,-0.8717130422592163,0.48997974395751953,0.0,0.0,0.0,0.0,0.0,0.0,0.0,0.0,0.0,-121.32240295410156,0.5006108283996582,-0.4748217463493347,0.0,0.0,0.0,0.0,0.0,0.0,0.0,0.0,0.0,0.015458011999726295,0.002180076902732253,-0.0027014175429940224,0.0,0.0,0.0,0.0,0.0,0.0,0.0,0.0,0.0
1606987105741553737,926811,1606983503975065209,imu_link,0.0017806089017540216,0.005754643119871616,-0.8717135190963745,0.48997893929481506,0.0,0.0,0.0,0.0,0.0,0.0,0.0,0.0,0.0,-121.322509765625,0.5009817481040955,-0.4748839735984802,0.0,0.0,0.0,0.0,0.0,0.0,0.0,0.0,0.0,0.02431187778711319,0.0057374341413378716,0.014830485917627811,0.0,0.0,0.0,0.0,0.0,0.0,0.0,0.0,0.0
1606987105741614271,926812,1606983503975246382,imu_link,0.0017806089017540216,0.005754643119871616,-0.8717135190963745,0.48997893929481506,0.0,0.0,0.0,0.0,0.0,0.0,0.0,0.0,0.0,-121.322509765625,0.5009817481040955,-0.4748839735984802,0.0,0.0,0.0,0.0,0.0,0.0,0.0,0.0,0.0,0.02431187778711319,0.0057374341413378716,0.014830485917627811,0.0,0.0,0.0,0.0,0.0,0.0,0.0,0.0,0.0
1606987105741655288,926813,1606983503975330676,imu_link,0.0017796042375266552,0.005754522979259491,-0.8717125654220581,0.48998063802719116,0.0,0.0,0.0,0.0,0.0,0.0,0.0,0.0,0.0,-121.32229614257812,0.5008755922317505,-0.4749274253845215,0.0,0.0,0.0,0.0,0.0,0.0,0.0,0.0,0.0,0.012337788008153439,-0.02349063940346241,-0.0026371674612164497,0.0,0.0,0.0,0.0,0.0,0.0,0.0,0.0,0.0
1606987105741667007,926814,1606983503975445947,imu_link,0.0017796042375266552,0.005754522979259491,-0.8717125654220581,0.48998063802719116,0.0,0.0,0.0,0.0,0.0,0.0,0.0,0.0,0.0,-121.32229614257812,0.5008755922317505,-0.4749274253845215,0.0,0.0,0.0,0.0,0.0,0.0,0.0,0.0,0.0,0.012337788008153439,-0.02349063940346241,-0.0026371674612164497,0.0,0.0,0.0,0.0,0.0,0.0,0.0,0.0,0.0
1606987105741692337,926815,1606983503975528262,imu_link,0.0017829047283157706,0.005753550212830305,-0.8717125654220581,0.48998063802719116,0.0,0.0,0.0,0.0,0.0,0.0,0.0,0.0,0.0,-121.32229614257812,0.5011506080627441,-0.4746449589729309,0.0,0.0,0.0,0.0,0.0,0.0,0.0,0.0,0.0,-0.002808127086609602,-0.036850977689027786,-0.008352739736437798,0.0,0.0,0.0,0.0,0.0,0.0,0.0,0.0,0.0
1606987105744810657,926816,1606983503975602790,imu_link,0.0017829047283157706,0.005753550212830305,-0.8717125654220581,0.48998063802719116,0.0,0.0,0.0,0.0,0.0,0.0,0.0,0.0,0.0,-121.32229614257812,0.5011506080627441,-0.4746449589729309,0.0,0.0,0.0,0.0,0.0,0.0,0.0,0.0,0.0,-0.002808127086609602,-0.036850977689027786,-0.008352739736437798,0.0,0.0,0.0,0.0,0.0,0.0,0.0,0.0,0.0
1606987105744841353,926817,1606983503975679964,imu_link,0.0017838452477008104,0.005753850098699331,-0.8717126846313477,0.4899803400039673,0.0,0.0,0.0,0.0,0.0,0.0,0.0,0.0,0.0,-121.32231903076172,0.5012612342834473,-0.47462233901023865,0.0,0.0,0.0,0.0,0.0,0.0,0.0,0.0,0.0,-0.007576548028737307,-0.01843995973467827,0.02443331852555275,0.0,0.0,0.0,0.0,0.0,0.0,0.0,0.0,0.0
1606987105744875787,926818,1606983503987396650,imu_link,0.0017838452477008104,0.005753850098699331,-0.8717126846313477,0.4899803400039673,0.0,0.0,0.0,0.0,0.0,0.0,0.0,0.0,0.0,-121.32231903076172,0.5012612342834473,-0.47462233901023865,0.0,0.0,0.0,0.0,0.0,0.0,0.0,0.0,0.0,-0.007576548028737307,-0.01843995973467827,0.02443331852555275,0.0,0.0,0.0,0.0,0.0,0.0,0.0,0.0,0.0
1606987105744900424,926819,1606983503987525985,imu_link,0.0017843287205323577,0.005753576755523682,-0.8717131018638611,0.48997947573661804,0.0,0.0,0.0,0.0,0.0,0.0,0.0,0.0,0.0,-121.32243347167969,0.5012937188148499,-0.47456830739974976,0.0,0.0,0.0,0.0,0.0,0.0,0.0,0.0,0.0,0.0013381487224251032,-0.004709795583039522,0.038121480494737625,0.0,0.0,0.0,0.0,0.0,0.0,0.0,0.0,0.0
1606987105749875314,926820,1606983503987651516,imu_link,0.0017843287205323577,0.005753576755523682,-0.8717131018638611,0.48997947573661804,0.0,0.0,0.0,0.0,0.0,0.0,0.0,0.0,0.0,-121.32243347167969,0.5012937188148499,-0.47456830739974976,0.0,0.0,0.0,0.0,0.0,0.0,0.0,0.0,0.0,0.0013381487224251032,-0.004709795583039522,0.038121480494737625,0.0,0.0,0.0,0.0,0.0,0.0,0.0,0.0,0.0
1606987105749934552,926821,1606983503987738281,imu_link,0.0017840820364654064,0.005752049386501312,-0.8717130422592163,0.4899798333644867,0.0,0.0,0.0,0.0,0.0,0.0,0.0,0.0,0.0,-121.3223876953125,0.5011835098266602,-0.47442933917045593,0.0,0.0,0.0,0.0,0.0,0.0,0.0,0.0,0.0,0.0030816439539194107,-0.005746450275182724,0.035884007811546326,0.0,0.0,0.0,0.0,0.0,0.0,0.0,0.0,0.0
1606987105749948857,926822,1606983503987813592,imu_link,0.0017840820364654064,0.005752049386501312,-0.8717130422592163,0.4899798333644867,0.0,0.0,0.0,0.0,0.0,0.0,0.0,0.0,0.0,-121.3223876953125,0.5011835098266602,-0.47442933917045593,0.0,0.0,0.0,0.0,0.0,0.0,0.0,0.0,0.0,0.0030816439539194107,-0.005746450275182724,0.035884007811546326,0.0,0.0,0.0,0.0,0.0,0.0,0.0,0.0,0.0
1606987105749961489,926823,1606983503987907717,imu_link,0.0017841602675616741,0.005752476863563061,-0.8717141151428223,0.4899776577949524,0.0,0.0,0.0,0.0,0.0,0.0,0.0,0.0,0.0,-121.32267761230469,0.5012141466140747,-0.47446903586387634,0.0,0.0,0.0,0.0,0.0,0.0,0.0,0.0,0.0,-0.013587892055511475,-0.002258645137771964,0.005425608716905117,0.0,0.0,0.0,0.0,0.0,0.0,0.0,0.0,0.0
1606987105749978302,926824,1606983503987985685,imu_link,0.0017841602675616741,0.005752476863563061,-0.8717141151428223,0.4899776577949524,0.0,0.0,0.0,0.0,0.0,0.0,0.0,0.0,0.0,-121.32267761230469,0.5012141466140747,-0.47446903586387634,0.0,0.0,0.0,0.0,0.0,0.0,0.0,0.0,0.0,-0.013587892055511475,-0.002258645137771964,0.005425608716905117,0.0,0.0,0.0,0.0,0.0,0.0,0.0,0.0,0.0
1606987105753882030,926825,1606983503988063558,imu_link,0.0017829852877184749,0.005753862205892801,-0.8717139363288879,0.48997822403907776,0.0,0.0,0.0,0.0,0.0,0.0,0.0,0.0,0.0,-121.3226089477539,0.5011748671531677,-0.47467300295829773,0.0,0.0,0.0,0.0,0.0,0.0,0.0,0.0,0.0,-0.019677922129631042,-0.010086380876600742,-0.01376261655241251,0.0,0.0,0.0,0.0,0.0,0.0,0.0,0.0,0.0
1606987105753916376,926826,1606983503988140500,imu_link,0.0017829852877184749,0.005753862205892801,-0.8717139363288879,0.48997822403907776,0.0,0.0,0.0,0.0,0.0,0.0,0.0,0.0,0.0,-121.3226089477539,0.5011748671531677,-0.47467300295829773,0.0,0.0,0.0,0.0,0.0,0.0,0.0,0.0,0.0,-0.019677922129631042,-0.010086380876600742,-0.01376261655241251,0.0,0.0,0.0,0.0,0.0,0.0,0.0,0.0,0.0
1606987105753989361,926827,1606983503988218000,imu_link,0.0017818210180848837,0.005752090830355883,-0.871714174747467,0.4899778366088867,0.0,0.0,0.0,0.0,0.0,0.0,0.0,0.0,0.0,-121.32266235351562,0.5009589195251465,-0.4745616316795349,0.0,0.0,0.0,0.0,0.0,0.0,0.0,0.0,0.0,-0.009125947952270508,0.005295165814459324,0.022676514461636543,0.0,0.0,0.0,0.0,0.0,0.0,0.0,0.0,0.0
1606987105754010019,926828,1606983504001121299,imu_link,0.0017818210180848837,0.005752090830355883,-0.871714174747467,0.4899778366088867,0.0,0.0,0.0,0.0,0.0,0.0,0.0,0.0,0.0,-121.32266235351562,0.5009589195251465,-0.4745616316795349,0.0,0.0,0.0,0.0,0.0,0.0,0.0,0.0,0.0,-0.009125947952270508,0.005295165814459324,0.022676514461636543,0.0,0.0,0.0,0.0,0.0,0.0,0.0,0.0,0.0
1606987105823932507,926829,1606983504001246682,imu_link,0.001780792372301221,0.005749697797000408,-0.8717144131660461,0.4899774491786957,0.0,0.0,0.0,0.0,0.0,0.0,0.0,0.0,0.0,-121.32270050048828,0.5007215142250061,-0.4743805229663849,0.0,0.0,0.0,0.0,0.0,0.0,0.0,0.0,0.0,-0.001720112981274724,0.028177307918667793,0.0375191755592823,0.0,0.0,0.0,0.0,0.0,0.0,0.0,0.0,0.0
1606987105823953615,926830,1606983504001416604,imu_link,0.001780792372301221,0.005749697797000408,-0.8717144131660461,0.4899774491786957,0.0,0.0,0.0,0.0,0.0,0.0,0.0,0.0,0.0,-121.32270050048828,0.5007215142250061,-0.4743805229663849,0.0,0.0,0.0,0.0,0.0,0.0,0.0,0.0,0.0,-0.001720112981274724,0.028177307918667793,0.0375191755592823,0.0,0.0,0.0,0.0,0.0,0.0,0.0,0.0,0.0
1606987105823963117,926831,1606983504001498193,imu_link,0.0017783400835469365,0.005752976518124342,-0.871713399887085,0.48997917771339417,0.0,0.0,0.0,0.0,0.0,0.0,0.0,0.0,0.0,-121.32247161865234,0.5006616115570068,-0.47484469413757324,0.0,0.0,0.0,0.0,0.0,0.0,0.0,0.0,0.0,-0.008877693675458431,0.01467288937419653,0.04027292877435684,0.0,0.0,0.0,0.0,0.0,0.0,0.0,0.0,0.0
1606987105823973959,926832,1606983504001648327,imu_link,0.0017783400835469365,0.005752976518124342,-0.871713399887085,0.48997917771339417,0.0,0.0,0.0,0.0,0.0,0.0,0.0,0.0,0.0,-121.32247161865234,0.5006616115570068,-0.47484469413757324,0.0,0.0,0.0,0.0,0.0,0.0,0.0,0.0,0.0,-0.008877693675458431,0.01467288937419653,0.04027292877435684,0.0,0.0,0.0,0.0,0.0,0.0,0.0,0.0,0.0
1606987105823994155,926833,1606983504001728456,imu_link,0.0017782567301765084,0.005751647520810366,-0.8717143535614014,0.48997747898101807,0.0,0.0,0.0,0.0,0.0,0.0,0.0,0.0,0.0,-121.32270050048828,0.5005777478218079,-0.4747175872325897,0.0,0.0,0.0,0.0,0.0,0.0,0.0,0.0,0.0,-0.020894676446914673,0.002135418588295579,0.019145576283335686,0.0,0.0,0.0,0.0,0.0,0.0,0.0,0.0,0.0
1606987105824008425,926834,1606983504001895932,imu_link,0.0017782567301765084,0.005751647520810366,-0.8717143535614014,0.48997747898101807,0.0,0.0,0.0,0.0,0.0,0.0,0.0,0.0,0.0,-121.32270050048828,0.5005777478218079,-0.4747175872325897,0.0,0.0,0.0,0.0,0.0,0.0,0.0,0.0,0.0,-0.020894676446914673,0.002135418588295579,0.019145576283335686,0.0,0.0,0.0,0.0,0.0,0.0,0.0,0.0,0.0
1606987105824015378,926835,1606983504001977124,imu_link,0.0017763663781806827,0.005750850308686495,-0.8717137575149536,0.48997852206230164,0.0,0.0,0.0,0.0,0.0,0.0,0.0,0.0,0.0,-121.32257080078125,0.5003446936607361,-0.47474348545074463,0.0,0.0,0.0,0.0,0.0,0.0,0.0,0.0,0.0,-0.004430611152201891,0.00027232180582359433,-0.0006401565624400973,0.0,0.0,0.0,0.0,0.0,0.0,0.0,0.0,0.0
1606987105824071235,926836,1606983504002083672,imu_link,0.0017763663781806827,0.005750850308686495,-0.8717137575149536,0.48997852206230164,0.0,0.0,0.0,0.0,0.0,0.0,0.0,0.0,0.0,-121.32257080078125,0.5003446936607361,-0.47474348545074463,0.0,0.0,0.0,0.0,0.0,0.0,0.0,0.0,0.0,-0.004430611152201891,0.00027232180582359433,-0.0006401565624400973,0.0,0.0,0.0,0.0,0.0,0.0,0.0,0.0,0.0
1606987105824095744,926837,1606983504002165938,imu_link,0.0017766006058081985,0.005750204902142286,-0.871714174747467,0.48997777700424194,0.0,0.0,0.0,0.0,0.0,0.0,0.0,0.0,0.0,-121.32266235351562,0.500331461429596,-0.4746663272380829,0.0,0.0,0.0,0.0,0.0,0.0,0.0,0.0,0.0,0.020023958757519722,0.00891874823719263,0.005131923593580723,0.0,0.0,0.0,0.0,0.0,0.0,0.0,0.0,0.0
1606987105863445975,926838,1606983504002245037,imu_link,0.0017766006058081985,0.005750204902142286,-0.871714174747467,0.48997777700424194,0.0,0.0,0.0,0.0,0.0,0.0,0.0,0.0,0.0,-121.32266235351562,0.500331461429596,-0.4746663272380829,0.0,0.0,0.0,0.0,0.0,0.0,0.0,0.0,0.0,0.020023958757519722,0.00891874823719263,0.005131923593580723,0.0,0.0,0.0,0.0,0.0,0.0,0.0,0.0,0.0
1606987105863472945,926839,1606983504014642263,imu_link,0.0017783049261197448,0.005750675220042467,-0.8717139959335327,0.48997804522514343,0.0,0.0,0.0,0.0,0.0,0.0,0.0,0.0,0.0,-121.32262420654297,0.5005282163619995,-0.47461748123168945,0.0,0.0,0.0,0.0,0.0,0.0,0.0,0.0,0.0,0.011524229310452938,0.02160707488656044,0.0002996980329044163,0.0,0.0,0.0,0.0,0.0,0.0,0.0,0.0,0.0
1606987105863491846,926840,1606983504014709996,imu_link,0.0017783049261197448,0.005750675220042467,-0.8717139959335327,0.48997804522514343,0.0,0.0,0.0,0.0,0.0,0.0,0.0,0.0,0.0,-121.32262420654297,0.5005282163619995,-0.47461748123168945,0.0,0.0,0.0,0.0,0.0,0.0,0.0,0.0,0.0,0.011524229310452938,0.02160707488656044,0.0002996980329044163,0.0,0.0,0.0,0.0,0.0,0.0,0.0,0.0,0.0
1606987105863542917,926841,1606983504014791830,imu_link,0.0017791509162634611,0.005750666372478008,-0.8717138171195984,0.4899783432483673,0.0,0.0,0.0,0.0,0.0,0.0,0.0,0.0,0.0,-121.32257843017578,0.5006124377250671,-0.4745689928531647,0.0,0.0,0.0,0.0,0.0,0.0,0.0,0.0,0.0,-0.010405659675598145,0.010516874492168427,0.022494995966553688,0.0,0.0,0.0,0.0,0.0,0.0,0.0,0.0,0.0
1606987105863570189,926842,1606983504014836604,imu_link,0.0017791509162634611,0.005750666372478008,-0.8717138171195984,0.4899783432483673,0.0,0.0,0.0,0.0,0.0,0.0,0.0,0.0,0.0,-121.32257843017578,0.5006124377250671,-0.4745689928531647,0.0,0.0,0.0,0.0,0.0,0.0,0.0,0.0,0.0,-0.010405659675598145,0.010516874492168427,0.022494995966553688,0.0,0.0,0.0,0.0,0.0,0.0,0.0,0.0,0.0
1606987105863579326,926843,1606983504014880499,imu_link,0.0017758120084181428,0.005752165801823139,-0.8717132806777954,0.4899793565273285,0.0,0.0,0.0,0.0,0.0,0.0,0.0,0.0,0.0,-121.32245635986328,0.5003636479377747,-0.4749055802822113,0.0,0.0,0.0,0.0,0.0,0.0,0.0,0.0,0.0,-0.007531419862061739,-0.005915340967476368,0.0226424653083086,0.0,0.0,0.0,0.0,0.0,0.0,0.0,0.0,0.0
1606987105863590708,926844,1606983504014918854,imu_link,0.0017758120084181428,0.005752165801823139,-0.8717132806777954,0.4899793565273285,0.0,0.0,0.0,0.0,0.0,0.0,0.0,0.0,0.0,-121.32245635986328,0.5003636479377747,-0.4749055802822113,0.0,0.0,0.0,0.0,0.0,0.0,0.0,0.0,0.0,-0.007531419862061739,-0.005915340967476368,0.0226424653083086,0.0,0.0,0.0,0.0,0.0,0.0,0.0,0.0,0.0
1606987105863613247,926845,1606983504015014952,imu_link,0.0017756603192538023,0.005749843083322048,-0.8717132210731506,0.48997941613197327,0.0,0.0,0.0,0.0,0.0,0.0,0.0,0.0,0.0,-121.32244110107422,0.5002180933952332,-0.4746820628643036,0.0,0.0,0.0,0.0,0.0,0.0,0.0,0.0,0.0,0.0063209449872374535,-0.013954400084912777,0.005084068048745394,0.0,0.0,0.0,0.0,0.0,0.0,0.0,0.0,0.0
1606987105863631792,926846,1606983504015075295,imu_link,0.0017756603192538023,0.005749843083322048,-0.8717132210731506,0.48997941613197327,0.0,0.0,0.0,0.0,0.0,0.0,0.0,0.0,0.0,-121.32244110107422,0.5002180933952332,-0.4746820628643036,0.0,0.0,0.0,0.0,0.0,0.0,0.0,0.0,0.0,0.0063209449872374535,-0.013954400084912777,0.005084068048745394,0.0,0.0,0.0,0.0,0.0,0.0,0.0,0.0,0.0
