%time,field.header.seq,field.header.stamp,field.header.frame_id,field.orientation.x,field.orientation.y,field.orientation.z,field.orientation.w,field.orientation_covariance0,field.orientation_covariance1,field.orientation_covariance2,field.orientation_covariance3,field.orientation_covariance4,field.orientation_covariance5,field.orientation_covariance6,field.orientation_covariance7,field.orientation_covariance8,field.angular_velocity.x,field.angular_velocity.y,field.angular_velocity.z,field.angular_velocity_covariance0,field.angular_velocity_covariance1,field.angular_velocity_covariance2,field.angular_velocity_covariance3,field.angular_velocity_covariance4,field.angular_velocity_covariance5,field.angular_velocity_covariance6,field.angular_velocity_covariance7,field.angular_velocity_covariance8,field.linear_acceleration.x,field.linear_acceleration.y,field.linear_acceleration.z,field.linear_acceleration_covariance0,field.linear_acceleration_covariance1,field.linear_acceleration_covariance2,field.linear_acceleration_covariance3,field.linear_acceleration_covariance4,field.linear_acceleration_covariance5,field.linear_acceleration_covariance6,field.linear_acceleration_covariance7,field.linear_acceleration_covariance8
1606986292135890208,276876,1606982691551041947,imu_link,0.0006211109575815499,0.005005810875445604,0.5242270231246948,0.8515636324882507,0.0,0.0,0.0,0.0,0.0,0.0,0.0,0.0,0.0,63.23476028442383,0.45117029547691345,0.36133185029029846,0.0,0.0,0.0,0.0,0.0,0.0,0.0,0.0,0.0,0.00394268287345767,-0.01130402646958828,-0.0014102678978815675,0.0,0.0,0.0,0.0,0.0,0.0,0.0,0.0,0.0
1606986292135916348,276877,1606982691551148482,imu_link,0.0006219579372555017,0.005006010644137859,0.5242252349853516,0.8515647053718567,0.0,0.0,0.0,0.0,0.0,0.0,0.0,0.0,0.0,63.23451614379883,0.4511396288871765,0.36142557859420776,0.0,0.0,0.0,0.0,0.0,0.0,0.0,0.0,0.0,-0.0010559923248365521,-0.009228766895830631,0.019757630303502083,0.0,0.0,0.0,0.0,0.0,0.0,0.0,0.0,0.0
1606986292135927470,276878,1606982691551296331,imu_link,0.0006219579372555017,0.005006010644137859,0.5242252349853516,0.8515647053718567,0.0,0.0,0.0,0.0,0.0,0.0,0.0,0.0,0.0,63.23451614379883,0.4511396288871765,0.36142557859420776,0.0,0.0,0.0,0.0,0.0,0.0,0.0,0.0,0.0,-0.0010559923248365521,-0.009228766895830631,0.019757630303502083,0.0,0.0,0.0,0.0,0.0,0.0,0.0,0.0,0.0
1606986292135951593,276879,1606982691551369340,imu_link,0.0006248670979402959,0.005004720762372017,0.5242219567298889,0.8515667915344238,0.0,0.0,0.0,0.0,0.0,0.0,0.0,0.0,0.0,63.234073638916016,0.45084047317504883,0.3616302013397217,0.0,0.0,0.0,0.0,0.0,0.0,0.0,0.0,0.0,-0.0022423965856432915,0.0064172884449362755,0.018420232459902763,0.0,0.0,0.0,0.0,0.0,0.0,0.0,0.0,0.0
1606986292135980896,276880,1606982691551447824,imu_link,0.0006248670979402959,0.005004720762372017,0.5242219567298889,0.8515667915344238,0.0,0.0,0.0,0.0,0.0,0.0,0.0,0.0,0.0,63.234073638916016,0.45084047317504883,0.3616302013397217,0.0,0.0,0.0,0.0,0.0,0.0,0.0,0.0,0.0,-0.0022423965856432915,0.0064172884449362755,0.018420232459902763,0.0,0.0,0.0,0.0,0.0,0.0,0.0,0.0,0.0
1606986292135994097,276881,1606982691551524227,imu_link,0.0006242558010853827,0.005006303079426289,0.5242215991020203,0.8515670299530029,0.0,0.0,0.0,0.0,0.0,0.0,0.0,0.0,0.0,63.23402404785156,0.45103174448013306,0.36166539788246155,0.0,0.0,0.0,0.0,0.0,0.0,0.0,0.0,0.0,-0.001730928081087768,0.0098646841943264,0.014403527602553368,0.0,0.0,0.0,0.0,0.0,0.0,0.0,0.0,0.0
1606986292136002453,276882,1606982691551611086,imu_link,0.0006242558010853827,0.005006303079426289,0.5242215991020203,0.8515670299530029,0.0,0.0,0.0,0.0,0.0,0.0,0.0,0.0,0.0,63.23402404785156,0.45103174448013306,0.36166539788246155,0.0,0.0,0.0,0.0,0.0,0.0,0.0,0.0,0.0,-0.001730928081087768,0.0098646841943264,0.014403527602553368,0.0,0.0,0.0,0.0,0.0,0.0,0.0,0.0,0.0
1606986292136015386,276883,1606982691551687485,imu_link,0.0006219922797754407,0.005003174301236868,0.5242202281951904,0.8515678644180298,0.0,0.0,0.0,0.0,0.0,0.0,0.0,0.0,0.0,63.23384094238281,0.45086294412612915,0.36125585436820984,0.0,0.0,0.0,0.0,0.0,0.0,0.0,0.0,0.0,-0.00031527315150015056,0.0001944220857694745,0.0016958273481577635,0.0,0.0,0.0,0.0,0.0,0.0,0.0,0.0,0.0
1606986292138904348,276884,1606982691551753299,imu_link,0.0006219922797754407,0.005003174301236868,0.5242202281951904,0.8515678644180298,0.0,0.0,0.0,0.0,0.0,0.0,0.0,0.0,0.0,63.23384094238281,0.45086294412612915,0.36125585436820984,0.0,0.0,0.0,0.0,0.0,0.0,0.0,0.0,0.0,-0.00031527315150015056,0.0001944220857694745,0.0016958273481577635,0.0,0.0,0.0,0.0,0.0,0.0,0.0,0.0,0.0
1606986292138915384,276885,1606982691551826340,imu_link,0.0006214088061824441,0.00500474963337183,0.5242186784744263,0.8515686988830566,0.0,0.0,0.0,0.0,0.0,0.0,0.0,0.0,0.0,63.23363494873047,0.45105233788490295,0.3612927794456482,0.0,0.0,0.0,0.0,0.0,0.0,0.0,0.0,0.0,-0.02093631587922573,0.005098642781376839,0.000266533374087885,0.0,0.0,0.0,0.0,0.0,0.0,0.0,0.0,0.0
1606986292138920685,276886,1606982691551894712,imu_link,0.0006214088061824441,0.00500474963337183,0.5242186784744263,0.8515686988830566,0.0,0.0,0.0,0.0,0.0,0.0,0.0,0.0,0.0,63.23363494873047,0.45105233788490295,0.3612927794456482,0.0,0.0,0.0,0.0,0.0,0.0,0.0,0.0,0.0,-0.02093631587922573,0.005098642781376839,0.000266533374087885,0.0,0.0,0.0,0.0,0.0,0.0,0.0,0.0,0.0
1606986292148668465,276887,1606982691564496716,imu_link,0.0006238355999812484,0.00500098243355751,0.5242196917533875,0.8515681624412537,0.0,0.0,0.0,0.0,0.0,0.0,0.0,0.0,0.0,63.23377227783203,0.4505385756492615,0.36130374670028687,0.0,0.0,0.0,0.0,0.0,0.0,0.0,0.0,0.0,-0.026968492195010185,0.023241344839334488,-0.01191298384219408,0.0,0.0,0.0,0.0,0.0,0.0,0.0,0.0,0.0
1606986292149703195,276888,1606982691564634320,imu_link,0.0006238355999812484,0.00500098243355751,0.5242196917533875,0.8515681624412537,0.0,0.0,0.0,0.0,0.0,0.0,0.0,0.0,0.0,63.23377227783203,0.4505385756492615,0.36130374670028687,0.0,0.0,0.0,0.0,0.0,0.0,0.0,0.0,0.0,-0.026968492195010185,0.023241344839334488,-0.01191298384219408,0.0,0.0,0.0,0.0,0.0,0.0,0.0,0.0,0.0
1606986292149735061,276889,1606982691564895083,imu_link,0.000623699277639389,0.005000178702175617,0.5242181420326233,0.8515691757202148,0.0,0.0,0.0,0.0,0.0,0.0,0.0,0.0,0.0,63.23355484008789,0.450469046831131,0.36124131083488464,0.0,0.0,0.0,0.0,0.0,0.0,0.0,0.0,0.0,-0.013262278400361538,0.015131679363548756,-0.016066765412688255,0.0,0.0,0.0,0.0,0.0,0.0,0.0,0.0,0.0
1606986292149745500,276890,1606982691564986675,imu_link,0.000623699277639389,0.005000178702175617,0.5242181420326233,0.8515691757202148,0.0,0.0,0.0,0.0,0.0,0.0,0.0,0.0,0.0,63.23355484008789,0.450469046831131,0.36124131083488464,0.0,0.0,0.0,0.0,0.0,0.0,0.0,0.0,0.0,-0.013262278400361538,0.015131679363548756,-0.016066765412688255,0.0,0.0,0.0,0.0,0.0,0.0,0.0,0.0,0.0
1606986292149763813,276891,1606982691565095637,imu_link,0.0006226576515473425,0.004997223149985075,0.5242171883583069,0.8515697717666626,0.0,0.0,0.0,0.0,0.0,0.0,0.0,0.0,0.0,63.23342514038086,0.45024365186691284,0.3609616160392761,0.0,0.0,0.0,0.0,0.0,0.0,0.0,0.0,0.0,-0.002009099815040827,-0.007026681676506996,-0.013021308928728104,0.0,0.0,0.0,0.0,0.0,0.0,0.0,0.0,0.0
1606986292149772463,276892,1606982691565186578,imu_link,0.0006226576515473425,0.004997223149985075,0.5242171883583069,0.8515697717666626,0.0,0.0,0.0,0.0,0.0,0.0,0.0,0.0,0.0,63.23342514038086,0.45024365186691284,0.3609616160392761,0.0,0.0,0.0,0.0,0.0,0.0,0.0,0.0,0.0,-0.002009099815040827,-0.007026681676506996,-0.013021308928728104,0.0,0.0,0.0,0.0,0.0,0.0,0.0,0.0,0.0
1606986292149785511,276893,1606982691565290979,imu_link,0.0006226576515473425,0.004997223149985075,0.5242171883583069,0.8515697717666626,0.0,0.0,0.0,0.0,0.0,0.0,0.0,0.0,0.0,63.23342514038086,0.45024365186691284,0.3609616160392761,0.0,0.0,0.0,0.0,0.0,0.0,0.0,0.0,0.0,-0.00491830101236701,-0.001887562801130116,-0.022573718801140785,0.0,0.0,0.0,0.0,0.0,0.0,0.0,0.0,0.0
1606986292149811335,276894,1606982691565370082,imu_link,0.0006226576515473425,0.004997223149985075,0.5242171883583069,0.8515697717666626,0.0,0.0,0.0,0.0,0.0,0.0,0.0,0.0,0.0,63.23342514038086,0.45024365186691284,0.3609616160392761,0.0,0.0,0.0,0.0,0.0,0.0,0.0,0.0,0.0,-0.00491830101236701,-0.001887562801130116,-0.022573718801140785,0.0,0.0,0.0,0.0,0.0,0.0,0.0,0.0,0.0
1606986292150728872,276895,1606982691565446529,imu_link,0.0006215459434315562,0.004996607080101967,0.5242165327072144,0.851570188999176,0.0,0.0,0.0,0.0,0.0,0.0,0.0,0.0,0.0,63.233333587646484,0.4502505958080292,0.36081573367118835,0.0,0.0,0.0,0.0,0.0,0.0,0.0,0.0,0.0,0.01053327415138483,0.004110223148018122,-0.0020699084270745516,0.0,0.0,0.0,0.0,0.0,0.0,0.0,0.0,0.0
1606986292150739674,276896,1606982691565526910,imu_link,0.0006215459434315562,0.004996607080101967,0.5242165327072144,0.851570188999176,0.0,0.0,0.0,0.0,0.0,0.0,0.0,0.0,0.0,63.233333587646484,0.4502505958080292,0.36081573367118835,0.0,0.0,0.0,0.0,0.0,0.0,0.0,0.0,0.0,0.01053327415138483,0.004110223148018122,-0.0020699084270745516,0.0,0.0,0.0,0.0,0.0,0.0,0.0,0.0,0.0
1606986292150764522,276897,1606982691565603047,imu_link,0.0006220903596840799,0.004997937008738518,0.5242167115211487,0.8515700697898865,0.0,0.0,0.0,0.0,0.0,0.0,0.0,0.0,0.0,63.233360290527344,0.45034754276275635,0.3609488904476166,0.0,0.0,0.0,0.0,0.0,0.0,0.0,0.0,0.0,0.005370709113776684,-0.003115030936896801,-0.02540351077914238,0.0,0.0,0.0,0.0,0.0,0.0,0.0,0.0,0.0
1606986292162515243,276898,1606982691578360677,imu_link,0.0006220903596840799,0.004997937008738518,0.5242167115211487,0.8515700697898865,0.0,0.0,0.0,0.0,0.0,0.0,0.0,0.0,0.0,63.233360290527344,0.45034754276275635,0.3609488904476166,0.0,0.0,0.0,0.0,0.0,0.0,0.0,0.0,0.0,0.005370709113776684,-0.003115030936896801,-0.02540351077914238,0.0,0.0,0.0,0.0,0.0,0.0,0.0,0.0,0.0
1606986292163200813,276899,1606982691578501984,imu_link,0.0006220665527507663,0.004999431315809488,0.52422034740448,0.8515676856040955,0.0,0.0,0.0,0.0,0.0,0.0,0.0,0.0,0.0,63.23386001586914,0.4504931569099426,0.36103835701942444,0.0,0.0,0.0,0.0,0.0,0.0,0.0,0.0,0.0,-0.01975114829838276,-0.0020452390890568495,-0.01903279684484005,0.0,0.0,0.0,0.0,0.0,0.0,0.0,0.0,0.0
1606986292163219932,276900,1606982691578656195,imu_link,0.0006220665527507663,0.004999431315809488,0.52422034740448,0.8515676856040955,0.0,0.0,0.0,0.0,0.0,0.0,0.0,0.0,0.0,63.23386001586914,0.4504931569099426,0.36103835701942444,0.0,0.0,0.0,0.0,0.0,0.0,0.0,0.0,0.0,-0.01975114829838276,-0.0020452390890568495,-0.01903279684484005,0.0,0.0,0.0,0.0,0.0,0.0,0.0,0.0,0.0
1606986292163242263,276901,1606982691578735965,imu_link,0.0006198595510795712,0.004999789875000715,0.5242213010787964,0.8515670895576477,0.0,0.0,0.0,0.0,0.0,0.0,0.0,0.0,0.0,63.23398971557617,0.4506603479385376,0.36084499955177307,0.0,0.0,0.0,0.0,0.0,0.0,0.0,0.0,0.0,-0.001830561668612063,-0.002273817313835025,0.015399680472910404,0.0,0.0,0.0,0.0,0.0,0.0,0.0,0.0,0.0
1606986292163262574,276902,1606982691578814241,imu_link,0.0006198595510795712,0.004999789875000715,0.5242213010787964,0.8515670895576477,0.0,0.0,0.0,0.0,0.0,0.0,0.0,0.0,0.0,63.23398971557617,0.4506603479385376,0.36084499955177307,0.0,0.0,0.0,0.0,0.0,0.0,0.0,0.0,0.0,-0.001830561668612063,-0.002273817313835025,0.015399680472910404,0.0,0.0,0.0,0.0,0.0,0.0,0.0,0.0,0.0
1606986292168300187,276903,1606982691578931252,imu_link,0.0006216549663804471,0.004998266696929932,0.5242229104042053,0.8515662550926208,0.0,0.0,0.0,0.0,0.0,0.0,0.0,0.0,0.0,63.234195709228516,0.45040324330329895,0.3609294891357422,0.0,0.0,0.0,0.0,0.0,0.0,0.0,0.0,0.0,0.0005951218772679567,0.0041608987376093864,-0.01414235308766365,0.0,0.0,0.0,0.0,0.0,0.0,0.0,0.0,0.0
1606986292168325207,276904,1606982691579054597,imu_link,0.0006216549663804471,0.004998266696929932,0.5242229104042053,0.8515662550926208,0.0,0.0,0.0,0.0,0.0,0.0,0.0,0.0,0.0,63.234195709228516,0.45040324330329895,0.3609294891357422,0.0,0.0,0.0,0.0,0.0,0.0,0.0,0.0,0.0,0.0005951218772679567,0.0041608987376093864,-0.01414235308766365,0.0,0.0,0.0,0.0,0.0,0.0,0.0,0.0,0.0
1606986292168335434,276905,1606982691579133410,imu_link,0.0006228219135664403,0.004997640382498503,0.5242221355438232,0.8515666127204895,0.0,0.0,0.0,0.0,0.0,0.0,0.0,0.0,0.0,63.234092712402344,0.4502722918987274,0.36100536584854126,0.0,0.0,0.0,0.0,0.0,0.0,0.0,0.0,0.0,-0.012620698660612106,-0.001217168290168047,-0.030889129266142845,0.0,0.0,0.0,0.0,0.0,0.0,0.0,0.0,0.0
1606986292168358860,276906,1606982691579246602,imu_link,0.0006228219135664403,0.004997640382498503,0.5242221355438232,0.8515666127204895,0.0,0.0,0.0,0.0,0.0,0.0,0.0,0.0,0.0,63.234092712402344,0.4502722918987274,0.36100536584854126,0.0,0.0,0.0,0.0,0.0,0.0,0.0,0.0,0.0,-0.012620698660612106,-0.001217168290168047,-0.030889129266142845,0.0,0.0,0.0,0.0,0.0,0.0,0.0,0.0,0.0
1606986292168409290,276907,1606982691579333869,imu_link,0.0006244088872335851,0.004993728827685118,0.524223804473877,0.8515657186508179,0.0,0.0,0.0,0.0,0.0,0.0,0.0,0.0,0.0,63.234310150146484,0.44979462027549744,0.3609260618686676,0.0,0.0,0.0,0.0,0.0,0.0,0.0,0.0,0.0,0.002017035847529769,-0.008326688781380653,-0.001071410020813346,0.0,0.0,0.0,0.0,0.0,0.0,0.0,0.0,0.0
1606986292168418759,276908,1606982691579418379,imu_link,0.0006244088872335851,0.004993728827685118,0.524223804473877,0.8515657186508179,0.0,0.0,0.0,0.0,0.0,0.0,0.0,0.0,0.0,63.234310150146484,0.44979462027549744,0.3609260618686676,0.0,0.0,0.0,0.0,0.0,0.0,0.0,0.0,0.0,0.002017035847529769,-0.008326688781380653,-0.001071410020813346,0.0,0.0,0.0,0.0,0.0,0.0,0.0,0.0,0.0
1606986292175335421,276909,1606982691591200001,imu_link,0.0006235659820958972,0.004994269926100969,0.5242217779159546,0.8515669703483582,0.0,0.0,0.0,0.0,0.0,0.0,0.0,0.0,0.0,63.234039306640625,0.44989892840385437,0.36087527871131897,0.0,0.0,0.0,0.0,0.0,0.0,0.0,0.0,0.0,0.02882232517004013,-0.013653196394443512,0.042714837938547134,0.0,0.0,0.0,0.0,0.0,0.0,0.0,0.0,0.0
1606986292175935449,276910,1606982691591340406,imu_link,0.0006235659820958972,0.004994269926100969,0.5242217779159546,0.8515669703483582,0.0,0.0,0.0,0.0,0.0,0.0,0.0,0.0,0.0,63.234039306640625,0.44989892840385437,0.36087527871131897,0.0,0.0,0.0,0.0,0.0,0.0,0.0,0.0,0.0,0.02882232517004013,-0.013653196394443512,0.042714837938547134,0.0,0.0,0.0,0.0,0.0,0.0,0.0,0.0,0.0
1606986292175965163,276911,1606982691591471544,imu_link,0.0006239442736841738,0.00499672070145607,0.5242220163345337,0.851566731929779,0.0,0.0,0.0,0.0,0.0,0.0,0.0,0.0,0.0,63.23407745361328,0.4501152038574219,0.3610595762729645,0.0,0.0,0.0,0.0,0.0,0.0,0.0,0.0,0.0,0.027934605255723,-0.022683529183268547,0.02313063107430935,0.0,0.0,0.0,0.0,0.0,0.0,0.0,0.0,0.0
1606986292175973622,276912,1606982691591546457,imu_link,0.0006239442736841738,0.00499672070145607,0.5242220163345337,0.851566731929779,0.0,0.0,0.0,0.0,0.0,0.0,0.0,0.0,0.0,63.23407745361328,0.4501152038574219,0.3610595762729645,0.0,0.0,0.0,0.0,0.0,0.0,0.0,0.0,0.0,0.027934605255723,-0.022683529183268547,0.02313063107430935,0.0,0.0,0.0,0.0,0.0,0.0,0.0,0.0,0.0
1606986292175978743,276913,1606982691591623841,imu_link,0.0006221664370968938,0.004997603595256805,0.5242204666137695,0.8515677452087402,0.0,0.0,0.0,0.0,0.0,0.0,0.0,0.0,0.0,63.23386764526367,0.4503088593482971,0.36093825101852417,0.0,0.0,0.0,0.0,0.0,0.0,0.0,0.0,0.0,0.02222941815853119,-0.019370488822460175,0.01103852316737175,0.0,0.0,0.0,0.0,0.0,0.0,0.0,0.0,0.0
1606986292176855491,276914,1606982691591723096,imu_link,0.0006221664370968938,0.004997603595256805,0.5242204666137695,0.8515677452087402,0.0,0.0,0.0,0.0,0.0,0.0,0.0,0.0,0.0,63.23386764526367,0.4503088593482971,0.36093825101852417,0.0,0.0,0.0,0.0,0.0,0.0,0.0,0.0,0.0,0.02222941815853119,-0.019370488822460175,0.01103852316737175,0.0,0.0,0.0,0.0,0.0,0.0,0.0,0.0,0.0
1606986292176872723,276915,1606982691591808825,imu_link,0.0006227997946552932,0.005000642966479063,0.5242201089859009,0.8515679240226746,0.0,0.0,0.0,0.0,0.0,0.0,0.0,0.0,0.0,63.23381805419922,0.4505675435066223,0.3611825108528137,0.0,0.0,0.0,0.0,0.0,0.0,0.0,0.0,0.0,0.008959591388702393,-0.012876797467470169,0.021168822422623634,0.0,0.0,0.0,0.0,0.0,0.0,0.0,0.0,0.0
1606986292176884800,276916,1606982691591886129,imu_link,0.0006227997946552932,0.005000642966479063,0.5242201089859009,0.8515679240226746,0.0,0.0,0.0,0.0,0.0,0.0,0.0,0.0,0.0,63.23381805419922,0.4505675435066223,0.3611825108528137,0.0,0.0,0.0,0.0,0.0,0.0,0.0,0.0,0.0,0.008959591388702393,-0.012876797467470169,0.021168822422623634,0.0,0.0,0.0,0.0,0.0,0.0,0.0,0.0,0.0
1606986292176907008,276917,1606982691591961282,imu_link,0.000622748804744333,0.005001316778361797,0.5242227911949158,0.8515662550926208,0.0,0.0,0.0,0.0,0.0,0.0,0.0,0.0,0.0,63.234188079833984,0.45063516497612,0.3612194359302521,0.0,0.0,0.0,0.0,0.0,0.0,0.0,0.0,0.0,-0.00738083990290761,0.003556618234142661,0.02410593442618847,0.0,0.0,0.0,0.0,0.0,0.0,0.0,0.0,0.0
1606986292176921356,276918,1606982691592038145,imu_link,0.000622748804744333,0.005001316778361797,0.5242227911949158,0.8515662550926208,0.0,0.0,0.0,0.0,0.0,0.0,0.0,0.0,0.0,63.234188079833984,0.45063516497612,0.3612194359302521,0.0,0.0,0.0,0.0,0.0,0.0,0.0,0.0,0.0,-0.00738083990290761,0.003556618234142661,0.02410593442618847,0.0,0.0,0.0,0.0,0.0,0.0,0.0,0.0,0.0
1606986292188963925,276919,1606982691604734499,imu_link,0.0006217227200977504,0.005000543314963579,0.5242226123809814,0.8515663743019104,0.0,0.0,0.0,0.0,0.0,0.0,0.0,0.0,0.0,63.234161376953125,0.45062142610549927,0.36107271909713745,0.0,0.0,0.0,0.0,0.0,0.0,0.0,0.0,0.0,-0.009983900934457779,0.002776126144453883,0.019074762240052223,0.0,0.0,0.0,0.0,0.0,0.0,0.0,0.0,0.0
1606986292191809178,276920,1606982691604877013,imu_link,0.0006217227200977504,0.005000543314963579,0.5242226123809814,0.8515663743019104,0.0,0.0,0.0,0.0,0.0,0.0,0.0,0.0,0.0,63.234161376953125,0.45062142610549927,0.36107271909713745,0.0,0.0,0.0,0.0,0.0,0.0,0.0,0.0,0.0,-0.009983900934457779,0.002776126144453883,0.019074762240052223,0.0,0.0,0.0,0.0,0.0,0.0,0.0,0.0,0.0
1606986292191841351,276921,1606982691605061425,imu_link,0.0006215806351974607,0.005001226905733347,0.524223268032074,0.851565957069397,0.0,0.0,0.0,0.0,0.0,0.0,0.0,0.0,0.0,63.234249114990234,0.4506964087486267,0.36110028624534607,0.0,0.0,0.0,0.0,0.0,0.0,0.0,0.0,0.0,-0.014018240384757519,-0.0016045918455347419,0.006478618830442429,0.0,0.0,0.0,0.0,0.0,0.0,0.0,0.0,0.0
1606986292191855141,276922,1606982691605171730,imu_link,0.0006215806351974607,0.005001226905733347,0.524223268032074,0.851565957069397,0.0,0.0,0.0,0.0,0.0,0.0,0.0,0.0,0.0,63.234249114990234,0.4506964087486267,0.36110028624534607,0.0,0.0,0.0,0.0,0.0,0.0,0.0,0.0,0.0,-0.014018240384757519,-0.0016045918455347419,0.006478618830442429,0.0,0.0,0.0,0.0,0.0,0.0,0.0,0.0,0.0
1606986292191909310,276923,1606982691605249776,imu_link,0.0006220681243576109,0.00500138895586133,0.5242174863815308,0.8515695929527283,0.0,0.0,0.0,0.0,0.0,0.0,0.0,0.0,0.0,63.233463287353516,0.45068541169166565,0.3611545264720917,0.0,0.0,0.0,0.0,0.0,0.0,0.0,0.0,0.0,-0.004889579024165869,0.007781104650348425,0.009428736753761768,0.0,0.0,0.0,0.0,0.0,0.0,0.0,0.0,0.0
1606986292191928369,276924,1606982691605330914,imu_link,0.0006220681243576109,0.00500138895586133,0.5242174863815308,0.8515695929527283,0.0,0.0,0.0,0.0,0.0,0.0,0.0,0.0,0.0,63.233463287353516,0.45068541169166565,0.3611545264720917,0.0,0.0,0.0,0.0,0.0,0.0,0.0,0.0,0.0,-0.004889579024165869,0.007781104650348425,0.009428736753761768,0.0,0.0,0.0,0.0,0.0,0.0,0.0,0.0,0.0
1606986292191946455,276925,1606982691605435691,imu_link,0.0006212354637682438,0.005001229699701071,0.5242171883583069,0.8515697717666626,0.0,0.0,0.0,0.0,0.0,0.0,0.0,0.0,0.0,63.23342514038086,0.45072004199028015,0.36106353998184204,0.0,0.0,0.0,0.0,0.0,0.0,0.0,0.0,0.0,-0.0018529564840719104,0.012579841539263725,-0.0015969203086569905,0.0,0.0,0.0,0.0,0.0,0.0,0.0,0.0,0.0
1606986292191977745,276926,1606982691605513912,imu_link,0.0006212354637682438,0.005001229699701071,0.5242171883583069,0.8515697717666626,0.0,0.0,0.0,0.0,0.0,0.0,0.0,0.0,0.0,63.23342514038086,0.45072004199028015,0.36106353998184204,0.0,0.0,0.0,0.0,0.0,0.0,0.0,0.0,0.0,-0.0018529564840719104,0.012579841539263725,-0.0015969203086569905,0.0,0.0,0.0,0.0,0.0,0.0,0.0,0.0,0.0
1606986292192002976,276927,1606982691605592634,imu_link,0.000619041093159467,0.005001370795071125,0.5242111086845398,0.8515734672546387,0.0,0.0,0.0,0.0,0.0,0.0,0.0,0.0,0.0,63.232608795166016,0.4508681297302246,0.3608546555042267,0.0,0.0,0.0,0.0,0.0,0.0,0.0,0.0,0.0,-0.001975220162421465,0.005806453060358763,-0.01340137142688036,0.0,0.0,0.0,0.0,0.0,0.0,0.0,0.0,0.0
1606986292192013718,276928,1606982691605672179,imu_link,0.000619041093159467,0.005001370795071125,0.5242111086845398,0.8515734672546387,0.0,0.0,0.0,0.0,0.0,0.0,0.0,0.0,0.0,63.232608795166016,0.4508681297302246,0.3608546555042267,0.0,0.0,0.0,0.0,0.0,0.0,0.0,0.0,0.0,-0.001975220162421465,0.005806453060358763,-0.01340137142688036,0.0,0.0,0.0,0.0,0.0,0.0,0.0,0.0,0.0
1606986292192626211,276929,1606982691605756474,imu_link,0.0006177594768814743,0.005001147277653217,0.5242124199867249,0.8515726923942566,0.0,0.0,0.0,0.0,0.0,0.0,0.0,0.0,0.0,63.2327880859375,0.45092275738716125,0.360716849565506,0.0,0.0,0.0,0.0,0.0,0.0,0.0,0.0,0.0,0.010623548179864883,-0.002995071467012167,-0.007667512632906437,0.0,0.0,0.0,0.0,0.0,0.0,0.0,0.0,0.0
1606986292202714410,276930,1606982691618513863,imu_link,0.0006177594768814743,0.005001147277653217,0.5242124199867249,0.8515726923942566,0.0,0.0,0.0,0.0,0.0,0.0,0.0,0.0,0.0,63.2327880859375,0.45092275738716125,0.360716849565506,0.0,0.0,0.0,0.0,0.0,0.0,0.0,0.0,0.0,0.010623548179864883,-0.002995071467012167,-0.007667512632906437,0.0,0.0,0.0,0.0,0.0,0.0,0.0,0.0,0.0
1606986292203766576,276931,1606982691618624435,imu_link,0.0006185516831465065,0.00500572519376874,0.5242133736610413,0.8515720963478088,0.0,0.0,0.0,0.0,0.0,0.0,0.0,0.0,0.0,63.23291778564453,0.451321542263031,0.3610697090625763,0.0,0.0,0.0,0.0,0.0,0.0,0.0,0.0,0.0,0.020183071494102478,0.012156999669969082,0.006702167447656393,0.0,0.0,0.0,0.0,0.0,0.0,0.0,0.0,0.0
1606986292203786343,276932,1606982691618759969,imu_link,0.0006185516831465065,0.00500572519376874,0.5242133736610413,0.8515720963478088,0.0,0.0,0.0,0.0,0.0,0.0,0.0,0.0,0.0,63.23291778564453,0.451321542263031,0.3610697090625763,0.0,0.0,0.0,0.0,0.0,0.0,0.0,0.0,0.0,0.020183071494102478,0.012156999669969082,0.006702167447656393,0.0,0.0,0.0,0.0,0.0,0.0,0.0,0.0,0.0
1606986292203793322,276933,1606982691618824149,imu_link,0.0006181979551911354,0.005006417632102966,0.5242124795913696,0.8515726327896118,0.0,0.0,0.0,0.0,0.0,0.0,0.0,0.0,0.0,63.23279571533203,0.4514107406139374,0.3610762655735016,0.0,0.0,0.0,0.0,0.0,0.0,0.0,0.0,0.0,0.019115636125206947,0.033984337002038956,-0.00590892881155014,0.0,0.0,0.0,0.0,0.0,0.0,0.0,0.0,0.0
1606986292203845236,276934,1606982691618887392,imu_link,0.0006181979551911354,0.005006417632102966,0.5242124795913696,0.8515726327896118,0.0,0.0,0.0,0.0,0.0,0.0,0.0,0.0,0.0,63.23279571533203,0.4514107406139374,0.3610762655735016,0.0,0.0,0.0,0.0,0.0,0.0,0.0,0.0,0.0,0.019115636125206947,0.033984337002038956,-0.00590892881155014,0.0,0.0,0.0,0.0,0.0,0.0,0.0,0.0,0.0
1606986292203866223,276935,1606982691619006952,imu_link,0.000614553689956665,0.00500724371522665,0.524212658405304,0.8515725135803223,0.0,0.0,0.0,0.0,0.0,0.0,0.0,0.0,0.0,63.23282241821289,0.45171016454696655,0.36077040433883667,0.0,0.0,0.0,0.0,0.0,0.0,0.0,0.0,0.0,0.011159983463585377,0.007257136050611734,-0.011791503988206387,0.0,0.0,0.0,0.0,0.0,0.0,0.0,0.0,0.0
1606986292203882614,276936,1606982691619097362,imu_link,0.000614553689956665,0.00500724371522665,0.524212658405304,0.8515725135803223,0.0,0.0,0.0,0.0,0.0,0.0,0.0,0.0,0.0,63.23282241821289,0.45171016454696655,0.36077040433883667,0.0,0.0,0.0,0.0,0.0,0.0,0.0,0.0,0.0,0.011159983463585377,0.007257136050611734,-0.011791503988206387,0.0,0.0,0.0,0.0,0.0,0.0,0.0,0.0,0.0
1606986292203895067,276937,1606982691619160011,imu_link,0.0006145936786197126,0.005006563384085894,0.5242120027542114,0.8515728712081909,0.0,0.0,0.0,0.0,0.0,0.0,0.0,0.0,0.0,63.23273468017578,0.45164164900779724,0.36073312163352966,0.0,0.0,0.0,0.0,0.0,0.0,0.0,0.0,0.0,0.017257455736398697,0.0027176705189049244,-0.007856100797653198,0.0,0.0,0.0,0.0,0.0,0.0,0.0,0.0,0.0
1606986292203912643,276938,1606982691619221637,imu_link,0.0006145936786197126,0.005006563384085894,0.5242120027542114,0.8515728712081909,0.0,0.0,0.0,0.0,0.0,0.0,0.0,0.0,0.0,63.23273468017578,0.45164164900779724,0.36073312163352966,0.0,0.0,0.0,0.0,0.0,0.0,0.0,0.0,0.0,0.017257455736398697,0.0027176705189049244,-0.007856100797653198,0.0,0.0,0.0,0.0,0.0,0.0,0.0,0.0,0.0
1606986292203926729,276939,1606982691619292557,imu_link,0.0006131970440037549,0.005006630904972553,0.5242095589637756,0.8515744209289551,0.0,0.0,0.0,0.0,0.0,0.0,0.0,0.0,0.0,63.232398986816406,0.45173320174217224,0.360599547624588,0.0,0.0,0.0,0.0,0.0,0.0,0.0,0.0,0.0,0.023626361042261124,0.013596459291875362,-0.005634979344904423,0.0,0.0,0.0,0.0,0.0,0.0,0.0,0.0,0.0
1606986292203935559,276940,1606982691619363165,imu_link,0.0006131970440037549,0.005006630904972553,0.5242095589637756,0.8515744209289551,0.0,0.0,0.0,0.0,0.0,0.0,0.0,0.0,0.0,63.232398986816406,0.45173320174217224,0.360599547624588,0.0,0.0,0.0,0.0,0.0,0.0,0.0,0.0,0.0,0.023626361042261124,0.013596459291875362,-0.005634979344904423,0.0,0.0,0.0,0.0,0.0,0.0,0.0,0.0,0.0
1606986292216174235,276941,1606982691632015690,imu_link,0.0006147379754111171,0.00500490004196763,0.5242078900337219,0.851575493812561,0.0,0.0,0.0,0.0,0.0,0.0,0.0,0.0,0.0,63.232181549072266,0.4514724314212799,0.36064502596855164,0.0,0.0,0.0,0.0,0.0,0.0,0.0,0.0,0.0,0.006575633306056261,-0.0012028537457808852,-0.000835204788018018,0.0,0.0,0.0,0.0,0.0,0.0,0.0,0.0,0.0
1606986292216683104,276942,1606982691632161398,imu_link,0.0006147379754111171,0.00500490004196763,0.5242078900337219,0.851575493812561,0.0,0.0,0.0,0.0,0.0,0.0,0.0,0.0,0.0,63.232181549072266,0.4514724314212799,0.36064502596855164,0.0,0.0,0.0,0.0,0.0,0.0,0.0,0.0,0.0,0.006575633306056261,-0.0012028537457808852,-0.000835204788018018,0.0,0.0,0.0,0.0,0.0,0.0,0.0,0.0,0.0
1606986292216703569,276943,1606982691632352179,imu_link,0.0006136655574664474,0.005005333106964827,0.5242077708244324,0.8515755534172058,0.0,0.0,0.0,0.0,0.0,0.0,0.0,0.0,0.0,63.23215866088867,0.451579213142395,0.3605663478374481,0.0,0.0,0.0,0.0,0.0,0.0,0.0,0.0,0.0,-0.004197269212454557,-0.0168758537620306,-0.010331996716558933,0.0,0.0,0.0,0.0,0.0,0.0,0.0,0.0,0.0
1606986292216713579,276944,1606982691632458305,imu_link,0.0006136655574664474,0.005005333106964827,0.5242077708244324,0.8515755534172058,0.0,0.0,0.0,0.0,0.0,0.0,0.0,0.0,0.0,63.23215866088867,0.451579213142395,0.3605663478374481,0.0,0.0,0.0,0.0,0.0,0.0,0.0,0.0,0.0,-0.004197269212454557,-0.0168758537620306,-0.010331996716558933,0.0,0.0,0.0,0.0,0.0,0.0,0.0,0.0,0.0
1606986292216727245,276945,1606982691632537278,imu_link,0.0006123956409282982,0.005006282590329647,0.5242080092430115,0.8515753746032715,0.0,0.0,0.0,0.0,0.0,0.0,0.0,0.0,0.0,63.23219299316406,0.45174798369407654,0.36049962043762207,0.0,0.0,0.0,0.0,0.0,0.0,0.0,0.0,0.0,-0.005297615192830563,-0.01870599016547203,-0.003195342607796192,0.0,0.0,0.0,0.0,0.0,0.0,0.0,0.0,0.0
1606986292219907951,276946,1606982691632614627,imu_link,0.0006123956409282982,0.005006282590329647,0.5242080092430115,0.8515753746032715,0.0,0.0,0.0,0.0,0.0,0.0,0.0,0.0,0.0,63.23219299316406,0.45174798369407654,0.36049962043762207,0.0,0.0,0.0,0.0,0.0,0.0,0.0,0.0,0.0,-0.005297615192830563,-0.01870599016547203,-0.003195342607796192,0.0,0.0,0.0,0.0,0.0,0.0,0.0,0.0,0.0
1606986292219932439,276947,1606982691632720391,imu_link,0.0006151163252070546,0.005007514264434576,0.5242071747779846,0.8515758514404297,0.0,0.0,0.0,0.0,0.0,0.0,0.0,0.0,0.0,63.232086181640625,0.45170509815216064,0.3608386516571045,0.0,0.0,0.0,0.0,0.0,0.0,0.0,0.0,0.0,-0.002380938967689872,0.0007011247216723859,-0.012611376121640205,0.0,0.0,0.0,0.0,0.0,0.0,0.0,0.0,0.0
1606986292219950732,276948,1606982691632798532,imu_link,0.0006151163252070546,0.005007514264434576,0.5242071747779846,0.8515758514404297,0.0,0.0,0.0,0.0,0.0,0.0,0.0,0.0,0.0,63.232086181640625,0.45170509815216064,0.3608386516571045,0.0,0.0,0.0,0.0,0.0,0.0,0.0,0.0,0.0,-0.002380938967689872,0.0007011247216723859,-0.012611376121640205,0.0,0.0,0.0,0.0,0.0,0.0,0.0,0.0,0.0
1606986292219964844,276949,1606982691632876683,imu_link,0.0006130464025773108,0.00500921905040741,0.5242079496383667,0.8515753746032715,0.0,0.0,0.0,0.0,0.0,0.0,0.0,0.0,0.0,63.23219299316406,0.4519954323768616,0.36073949933052063,0.0,0.0,0.0,0.0,0.0,0.0,0.0,0.0,0.0,0.0022364279720932245,0.0183764286339283,-0.011915638111531734,0.0,0.0,0.0,0.0,0.0,0.0,0.0,0.0,0.0
1606986292219978234,276950,1606982691632963579,imu_link,0.0006130464025773108,0.00500921905040741,0.5242079496383667,0.8515753746032715,0.0,0.0,0.0,0.0,0.0,0.0,0.0,0.0,0.0,63.23219299316406,0.4519954323768616,0.36073949933052063,0.0,0.0,0.0,0.0,0.0,0.0,0.0,0.0,0.0,0.0022364279720932245,0.0183764286339283,-0.011915638111531734,0.0,0.0,0.0,0.0,0.0,0.0,0.0,0.0,0.0
1606986292219988492,276951,1606982691633048791,imu_link,0.0006109089590609074,0.0050078267231583595,0.5242047309875488,0.8515773415565491,0.0,0.0,0.0,0.0,0.0,0.0,0.0,0.0,0.0,63.23176193237305,0.4519893527030945,0.36044561862945557,0.0,0.0,0.0,0.0,0.0,0.0,0.0,0.0,0.0,-0.012386692687869072,0.004575654864311218,-0.014583989977836609,0.0,0.0,0.0,0.0,0.0,0.0,0.0,0.0,0.0
1606986292230467830,276952,1606982691646023283,imu_link,0.0006109089590609074,0.0050078267231583595,0.5242047309875488,0.8515773415565491,0.0,0.0,0.0,0.0,0.0,0.0,0.0,0.0,0.0,63.23176193237305,0.4519893527030945,0.36044561862945557,0.0,0.0,0.0,0.0,0.0,0.0,0.0,0.0,0.0,-0.012386692687869072,0.004575654864311218,-0.014583989977836609,0.0,0.0,0.0,0.0,0.0,0.0,0.0,0.0,0.0
1606986292231268897,276953,1606982691646163077,imu_link,0.0006100569735281169,0.005007775500416756,0.5242018103599548,0.8515791296958923,0.0,0.0,0.0,0.0,0.0,0.0,0.0,0.0,0.0,63.23136901855469,0.4520367681980133,0.3603578209877014,0.0,0.0,0.0,0.0,0.0,0.0,0.0,0.0,0.0,-0.013345213606953621,-0.028127744793891907,-0.029415585100650787,0.0,0.0,0.0,0.0,0.0,0.0,0.0,0.0,0.0
1606986292231312428,276954,1606982691646354214,imu_link,0.0006100569735281169,0.005007775500416756,0.5242018103599548,0.8515791296958923,0.0,0.0,0.0,0.0,0.0,0.0,0.0,0.0,0.0,63.23136901855469,0.4520367681980133,0.3603578209877014,0.0,0.0,0.0,0.0,0.0,0.0,0.0,0.0,0.0,-0.013345213606953621,-0.028127744793891907,-0.029415585100650787,0.0,0.0,0.0,0.0,0.0,0.0,0.0,0.0,0.0
1606986292231332013,276955,1606982691646432520,imu_link,0.0006149844266474247,0.0050093322061002254,0.5241968035697937,0.8515822291374207,0.0,0.0,0.0,0.0,0.0,0.0,0.0,0.0,0.0,63.230690002441406,0.4518948495388031,0.36092954874038696,0.0,0.0,0.0,0.0,0.0,0.0,0.0,0.0,0.0,-0.0018020118586719036,-0.013412928208708763,-0.007252403534948826,0.0,0.0,0.0,0.0,0.0,0.0,0.0,0.0,0.0
1606986292231364545,276956,1606982691646506436,imu_link,0.0006149844266474247,0.0050093322061002254,0.5241968035697937,0.8515822291374207,0.0,0.0,0.0,0.0,0.0,0.0,0.0,0.0,0.0,63.230690002441406,0.4518948495388031,0.36092954874038696,0.0,0.0,0.0,0.0,0.0,0.0,0.0,0.0,0.0,-0.0018020118586719036,-0.013412928208708763,-0.007252403534948826,0.0,0.0,0.0,0.0,0.0,0.0,0.0,0.0,0.0
1606986292231382756,276957,1606982691646624845,imu_link,0.000617431360296905,0.005006729159504175,0.5241984128952026,0.8515812754631042,0.0,0.0,0.0,0.0,0.0,0.0,0.0,0.0,0.0,63.23091125488281,0.45149314403533936,0.3610127866268158,0.0,0.0,0.0,0.0,0.0,0.0,0.0,0.0,0.0,0.006636771839112043,-0.002009797375649214,-9.335423237644136e-05,0.0,0.0,0.0,0.0,0.0,0.0,0.0,0.0,0.0
1606986292231405369,276958,1606982691646707988,imu_link,0.000617431360296905,0.005006729159504175,0.5241984128952026,0.8515812754631042,0.0,0.0,0.0,0.0,0.0,0.0,0.0,0.0,0.0,63.23091125488281,0.45149314403533936,0.3610127866268158,0.0,0.0,0.0,0.0,0.0,0.0,0.0,0.0,0.0,0.006636771839112043,-0.002009797375649214,-9.335423237644136e-05,0.0,0.0,0.0,0.0,0.0,0.0,0.0,0.0,0.0
1606986292231455305,276959,1606982691646785472,imu_link,0.000618871534243226,0.005007377825677395,0.5241925120353699,0.8515849113464355,0.0,0.0,0.0,0.0,0.0,0.0,0.0,0.0,0.0,63.23011016845703,0.4514724910259247,0.3611891269683838,0.0,0.0,0.0,0.0,0.0,0.0,0.0,0.0,0.0,0.010537158697843552,0.004027357324957848,0.008225328288972378,0.0,0.0,0.0,0.0,0.0,0.0,0.0,0.0,0.0
1606986292231472111,276960,1606982691646891788,imu_link,0.000618871534243226,0.005007377825677395,0.5241925120353699,0.8515849113464355,0.0,0.0,0.0,0.0,0.0,0.0,0.0,0.0,0.0,63.23011016845703,0.4514724910259247,0.3611891269683838,0.0,0.0,0.0,0.0,0.0,0.0,0.0,0.0,0.0,0.010537158697843552,0.004027357324957848,0.008225328288972378,0.0,0.0,0.0,0.0,0.0,0.0,0.0,0.0,0.0
1606986292232347278,276961,1606982691647012392,imu_link,0.000619462865870446,0.005007583182305098,0.5241912603378296,0.8515856862068176,0.0,0.0,0.0,0.0,0.0,0.0,0.0,0.0,0.0,63.22994613647461,0.45145756006240845,0.36125853657722473,0.0,0.0,0.0,0.0,0.0,0.0,0.0,0.0,0.0,0.010912743397057056,0.012846357189118862,0.02711552008986473,0.0,0.0,0.0,0.0,0.0,0.0,0.0,0.0,0.0
1606986292232360126,276962,1606982691647089396,imu_link,0.000619462865870446,0.005007583182305098,0.5241912603378296,0.8515856862068176,0.0,0.0,0.0,0.0,0.0,0.0,0.0,0.0,0.0,63.22994613647461,0.45145756006240845,0.36125853657722473,0.0,0.0,0.0,0.0,0.0,0.0,0.0,0.0,0.0,0.010912743397057056,0.012846357189118862,0.02711552008986473,0.0,0.0,0.0,0.0,0.0,0.0,0.0,0.0,0.0
1606986292242969426,276963,1606982691658776974,imu_link,0.0006182558136060834,0.005007932893931866,0.5241912603378296,0.8515856862068176,0.0,0.0,0.0,0.0,0.0,0.0,0.0,0.0,0.0,63.22994613647461,0.45156410336494446,0.3611617386341095,0.0,0.0,0.0,0.0,0.0,0.0,0.0,0.0,0.0,0.02752056159079075,-0.0001897757756523788,0.03873993083834648,0.0,0.0,0.0,0.0,0.0,0.0,0.0,0.0,0.0
1606986292244716539,276964,1606982691658918116,imu_link,0.0006182558136060834,0.005007932893931866,0.5241912603378296,0.8515856862068176,0.0,0.0,0.0,0.0,0.0,0.0,0.0,0.0,0.0,63.22994613647461,0.45156410336494446,0.3611617386341095,0.0,0.0,0.0,0.0,0.0,0.0,0.0,0.0,0.0,0.02752056159079075,-0.0001897757756523788,0.03873993083834648,0.0,0.0,0.0,0.0,0.0,0.0,0.0,0.0,0.0
1606986292244736825,276965,1606982691659147206,imu_link,0.0006183898076415062,0.005009898915886879,0.5241899490356445,0.8515864610671997,0.0,0.0,0.0,0.0,0.0,0.0,0.0,0.0,0.0,63.22977066040039,0.45174846053123474,0.3612922430038452,0.0,0.0,0.0,0.0,0.0,0.0,0.0,0.0,0.0,0.018552618101239204,0.0019434067653492093,0.023186467587947845,0.0,0.0,0.0,0.0,0.0,0.0,0.0,0.0,0.0
1606986292244752114,276966,1606982691659234177,imu_link,0.0006183898076415062,0.005009898915886879,0.5241899490356445,0.8515864610671997,0.0,0.0,0.0,0.0,0.0,0.0,0.0,0.0,0.0,63.22977066040039,0.45174846053123474,0.3612922430038452,0.0,0.0,0.0,0.0,0.0,0.0,0.0,0.0,0.0,0.018552618101239204,0.0019434067653492093,0.023186467587947845,0.0,0.0,0.0,0.0,0.0,0.0,0.0,0.0,0.0
1606986292244788194,276967,1606982691659322431,imu_link,0.0006159108597785234,0.005013805814087391,0.5241900682449341,0.8515864014625549,0.0,0.0,0.0,0.0,0.0,0.0,0.0,0.0,0.0,63.22978973388672,0.45227861404418945,0.36128509044647217,0.0,0.0,0.0,0.0,0.0,0.0,0.0,0.0,0.0,0.00890697818249464,4.438825271790847e-06,-0.007687299512326717,0.0,0.0,0.0,0.0,0.0,0.0,0.0,0.0,0.0
1606986292244813188,276968,1606982691659445211,imu_link,0.0006159108597785234,0.005013805814087391,0.5241900682449341,0.8515864014625549,0.0,0.0,0.0,0.0,0.0,0.0,0.0,0.0,0.0,63.22978973388672,0.45227861404418945,0.36128509044647217,0.0,0.0,0.0,0.0,0.0,0.0,0.0,0.0,0.0,0.00890697818249464,4.438825271790847e-06,-0.007687299512326717,0.0,0.0,0.0,0.0,0.0,0.0,0.0,0.0,0.0
1606986292244825399,276969,1606982691659530413,imu_link,0.0006149985129013658,0.0050123222172260284,0.524192214012146,0.8515850901603699,0.0,0.0,0.0,0.0,0.0,0.0,0.0,0.0,0.0,63.23007583618164,0.45218774676322937,0.36110806465148926,0.0,0.0,0.0,0.0,0.0,0.0,0.0,0.0,0.0,0.007302594371140003,-0.01132358331233263,-0.011355728842318058,0.0,0.0,0.0,0.0,0.0,0.0,0.0,0.0,0.0
1606986292244840364,276970,1606982691659607446,imu_link,0.0006149985129013658,0.0050123222172260284,0.524192214012146,0.8515850901603699,0.0,0.0,0.0,0.0,0.0,0.0,0.0,0.0,0.0,63.23007583618164,0.45218774676322937,0.36110806465148926,0.0,0.0,0.0,0.0,0.0,0.0,0.0,0.0,0.0,0.007302594371140003,-0.01132358331233263,-0.011355728842318058,0.0,0.0,0.0,0.0,0.0,0.0,0.0,0.0,0.0
1606986292247645128,276971,1606982691659722111,imu_link,0.000616529316175729,0.00501465518027544,0.524192214012146,0.8515850305557251,0.0,0.0,0.0,0.0,0.0,0.0,0.0,0.0,0.0,63.23007583618164,0.45232337713241577,0.3613976538181305,0.0,0.0,0.0,0.0,0.0,0.0,0.0,0.0,0.0,-0.0059606460854411125,-0.010375291109085083,-0.011971820145845413,0.0,0.0,0.0,0.0,0.0,0.0,0.0,0.0,0.0
1606986292247659713,276972,1606982691659821577,imu_link,0.000616529316175729,0.00501465518027544,0.524192214012146,0.8515850305557251,0.0,0.0,0.0,0.0,0.0,0.0,0.0,0.0,0.0,63.23007583618164,0.45232337713241577,0.3613976538181305,0.0,0.0,0.0,0.0,0.0,0.0,0.0,0.0,0.0,-0.0059606460854411125,-0.010375291109085083,-0.011971820145845413,0.0,0.0,0.0,0.0,0.0,0.0,0.0,0.0,0.0
1606986292256673575,276973,1606982691672171132,imu_link,0.0006160438642837107,0.005014895461499691,0.5241928100585938,0.8515845537185669,0.0,0.0,0.0,0.0,0.0,0.0,0.0,0.0,0.0,63.23016357421875,0.4523756802082062,0.36136505007743835,0.0,0.0,0.0,0.0,0.0,0.0,0.0,0.0,0.0,-0.005073589272797108,0.01160065270960331,-0.01194129791110754,0.0,0.0,0.0,0.0,0.0,0.0,0.0,0.0,0.0
1606986292257332524,276974,1606982691672312990,imu_link,0.0006160438642837107,0.005014895461499691,0.5241928100585938,0.8515845537185669,0.0,0.0,0.0,0.0,0.0,0.0,0.0,0.0,0.0,63.23016357421875,0.4523756802082062,0.36136505007743835,0.0,0.0,0.0,0.0,0.0,0.0,0.0,0.0,0.0,-0.005073589272797108,0.01160065270960331,-0.01194129791110754,0.0,0.0,0.0,0.0,0.0,0.0,0.0,0.0,0.0
1606986292257373770,276975,1606982691672506914,imu_link,0.0006166072562336922,0.005013308022171259,0.5241900086402893,0.8515864014625549,0.0,0.0,0.0,0.0,0.0,0.0,0.0,0.0,0.0,63.22978210449219,0.4521882236003876,0.3613230586051941,0.0,0.0,0.0,0.0,0.0,0.0,0.0,0.0,0.0,-0.0035334215499460697,0.014182008802890778,0.031335510313510895,0.0,0.0,0.0,0.0,0.0,0.0,0.0,0.0,0.0
1606986292257387592,276976,1606982691672613040,imu_link,0.0006166072562336922,0.005013308022171259,0.5241900086402893,0.8515864014625549,0.0,0.0,0.0,0.0,0.0,0.0,0.0,0.0,0.0,63.22978210449219,0.4521882236003876,0.3613230586051941,0.0,0.0,0.0,0.0,0.0,0.0,0.0,0.0,0.0,-0.0035334215499460697,0.014182008802890778,0.031335510313510895,0.0,0.0,0.0,0.0,0.0,0.0,0.0,0.0,0.0
1606986292257414525,276977,1606982691672693085,imu_link,0.0006153798894956708,0.005015081260353327,0.5241909623146057,0.8515858054161072,0.0,0.0,0.0,0.0,0.0,0.0,0.0,0.0,0.0,63.22991180419922,0.4524345397949219,0.36131036281585693,0.0,0.0,0.0,0.0,0.0,0.0,0.0,0.0,0.0,-0.005711989942938089,0.008063731715083122,0.020460588857531548,0.0,0.0,0.0,0.0,0.0,0.0,0.0,0.0,0.0
1606986292257436597,276978,1606982691672771411,imu_link,0.0006153798894956708,0.005015081260353327,0.5241909623146057,0.8515858054161072,0.0,0.0,0.0,0.0,0.0,0.0,0.0,0.0,0.0,63.22991180419922,0.4524345397949219,0.36131036281585693,0.0,0.0,0.0,0.0,0.0,0.0,0.0,0.0,0.0,-0.005711989942938089,0.008063731715083122,0.020460588857531548,0.0,0.0,0.0,0.0,0.0,0.0,0.0,0.0,0.0
1606986292257483084,276979,1606982691672879487,imu_link,0.0006148659158498049,0.005013877991586924,0.5241798758506775,0.8515926599502563,0.0,0.0,0.0,0.0,0.0,0.0,0.0,0.0,0.0,63.228416442871094,0.4523526728153229,0.3611820340156555,0.0,0.0,0.0,0.0,0.0,0.0,0.0,0.0,0.0,-0.019051246345043182,0.008518090471625328,-0.01647939905524254,0.0,0.0,0.0,0.0,0.0,0.0,0.0,0.0,0.0
1606986292257490812,276980,1606982691672960584,imu_link,0.0006148659158498049,0.005013877991586924,0.5241798758506775,0.8515926599502563,0.0,0.0,0.0,0.0,0.0,0.0,0.0,0.0,0.0,63.228416442871094,0.4523526728153229,0.3611820340156555,0.0,0.0,0.0,0.0,0.0,0.0,0.0,0.0,0.0,-0.019051246345043182,0.008518090471625328,-0.01647939905524254,0.0,0.0,0.0,0.0,0.0,0.0,0.0,0.0,0.0
1606986292257509671,276981,1606982691673052407,imu_link,0.0006148659158498049,0.005013877991586924,0.5241798758506775,0.8515926599502563,0.0,0.0,0.0,0.0,0.0,0.0,0.0,0.0,0.0,63.228416442871094,0.4523526728153229,0.3611820340156555,0.0,0.0,0.0,0.0,0.0,0.0,0.0,0.0,0.0,-0.02105523645877838,-0.01218956895172596,-0.005338688846677542,0.0,0.0,0.0,0.0,0.0,0.0,0.0,0.0,0.0
1606986292258532225,276982,1606982691673138090,imu_link,0.0006148659158498049,0.005013877991586924,0.5241798758506775,0.8515926599502563,0.0,0.0,0.0,0.0,0.0,0.0,0.0,0.0,0.0,63.228416442871094,0.4523526728153229,0.3611820340156555,0.0,0.0,0.0,0.0,0.0,0.0,0.0,0.0,0.0,-0.02105523645877838,-0.01218956895172596,-0.005338688846677542,0.0,0.0,0.0,0.0,0.0,0.0,0.0,0.0,0.0
1606986292258552373,276983,1606982691673215048,imu_link,0.0006179165211506188,0.005012162029743195,0.5241690278053284,0.8515992164611816,0.0,0.0,0.0,0.0,0.0,0.0,0.0,0.0,0.0,63.22696304321289,0.45200657844543457,0.3613709509372711,0.0,0.0,0.0,0.0,0.0,0.0,0.0,0.0,0.0,0.007762772496789694,0.0021148212254047394,-0.011839296668767929,0.0,0.0,0.0,0.0,0.0,0.0,0.0,0.0,0.0
1606986292270191092,276984,1606982691686092626,imu_link,0.0006179165211506188,0.005012162029743195,0.5241690278053284,0.8515992164611816,0.0,0.0,0.0,0.0,0.0,0.0,0.0,0.0,0.0,63.22696304321289,0.45200657844543457,0.3613709509372711,0.0,0.0,0.0,0.0,0.0,0.0,0.0,0.0,0.0,0.007762772496789694,0.0021148212254047394,-0.011839296668767929,0.0,0.0,0.0,0.0,0.0,0.0,0.0,0.0,0.0
1606986292271325939,276985,1606982691686233702,imu_link,0.0006168772815726697,0.005013022106140852,0.5241693258285522,0.8515990972518921,0.0,0.0,0.0,0.0,0.0,0.0,0.0,0.0,0.0,63.22700119018555,0.4521527886390686,0.3613213002681732,0.0,0.0,0.0,0.0,0.0,0.0,0.0,0.0,0.0,0.002156182425096631,0.0227554589509964,-0.030721919611096382,0.0,0.0,0.0,0.0,0.0,0.0,0.0,0.0,0.0
1606986292271362689,276986,1606982691686424634,imu_link,0.0006168772815726697,0.005013022106140852,0.5241693258285522,0.8515990972518921,0.0,0.0,0.0,0.0,0.0,0.0,0.0,0.0,0.0,63.22700119018555,0.4521527886390686,0.3613213002681732,0.0,0.0,0.0,0.0,0.0,0.0,0.0,0.0,0.0,0.002156182425096631,0.0227554589509964,-0.030721919611096382,0.0,0.0,0.0,0.0,0.0,0.0,0.0,0.0,0.0
1606986292271377061,276987,1606982691686527131,imu_link,0.0006138146272860467,0.005011510569602251,0.5241743326187134,0.8515960574150085,0.0,0.0,0.0,0.0,0.0,0.0,0.0,0.0,0.0,63.227664947509766,0.4521871507167816,0.3609342873096466,0.0,0.0,0.0,0.0,0.0,0.0,0.0,0.0,0.0,-0.011671546846628189,0.01949138008058071,-0.007705445401370525,0.0,0.0,0.0,0.0,0.0,0.0,0.0,0.0,0.0
1606986292271395005,276988,1606982691686602285,imu_link,0.0006138146272860467,0.005011510569602251,0.5241743326187134,0.8515960574150085,0.0,0.0,0.0,0.0,0.0,0.0,0.0,0.0,0.0,63.227664947509766,0.4521871507167816,0.3609342873096466,0.0,0.0,0.0,0.0,0.0,0.0,0.0,0.0,0.0,-0.011671546846628189,0.01949138008058071,-0.007705445401370525,0.0,0.0,0.0,0.0,0.0,0.0,0.0,0.0,0.0
1606986292271407201,276989,1606982691686686635,imu_link,0.0006137557793408632,0.005010586231946945,0.5241734981536865,0.8515965938568115,0.0,0.0,0.0,0.0,0.0,0.0,0.0,0.0,0.0,63.22755813598633,0.45210087299346924,0.3608725965023041,0.0,0.0,0.0,0.0,0.0,0.0,0.0,0.0,0.0,0.009828934445977211,0.02664247527718544,0.016963273286819458,0.0,0.0,0.0,0.0,0.0,0.0,0.0,0.0,0.0
1606986292271421373,276990,1606982691686789032,imu_link,0.0006137557793408632,0.005010586231946945,0.5241734981536865,0.8515965938568115,0.0,0.0,0.0,0.0,0.0,0.0,0.0,0.0,0.0,63.22755813598633,0.45210087299346924,0.3608725965023041,0.0,0.0,0.0,0.0,0.0,0.0,0.0,0.0,0.0,0.009828934445977211,0.02664247527718544,0.016963273286819458,0.0,0.0,0.0,0.0,0.0,0.0,0.0,0.0,0.0
1606986292271436606,276991,1606982691686867699,imu_link,0.0006106033688411117,0.005012654233723879,0.5241784453392029,0.8515934944152832,0.0,0.0,0.0,0.0,0.0,0.0,0.0,0.0,0.0,63.22822570800781,0.4524898827075958,0.36069178581237793,0.0,0.0,0.0,0.0,0.0,0.0,0.0,0.0,0.0,0.01705564185976982,0.023074423894286156,-0.0010281825670972466,0.0,0.0,0.0,0.0,0.0,0.0,0.0,0.0,0.0
1606986292271453889,276992,1606982691686976556,imu_link,0.0006106033688411117,0.005012654233723879,0.5241784453392029,0.8515934944152832,0.0,0.0,0.0,0.0,0.0,0.0,0.0,0.0,0.0,63.22822570800781,0.4524898827075958,0.36069178581237793,0.0,0.0,0.0,0.0,0.0,0.0,0.0,0.0,0.0,0.01705564185976982,0.023074423894286156,-0.0010281825670972466,0.0,0.0,0.0,0.0,0.0,0.0,0.0,0.0,0.0
1606986292271476757,276993,1606982691687066575,imu_link,0.0006111767725087702,0.0050124116241931915,0.5241790413856506,0.8515931367874146,0.0,0.0,0.0,0.0,0.0,0.0,0.0,0.0,0.0,63.22830581665039,0.4524315595626831,0.3607335090637207,0.0,0.0,0.0,0.0,0.0,0.0,0.0,0.0,0.0,0.011252357624471188,0.016400301828980446,0.004405151586979628,0.0,0.0,0.0,0.0,0.0,0.0,0.0,0.0,0.0
1606986292272544390,276994,1606982691687155470,imu_link,0.0006111767725087702,0.0050124116241931915,0.5241790413856506,0.8515931367874146,0.0,0.0,0.0,0.0,0.0,0.0,0.0,0.0,0.0,63.22830581665039,0.4524315595626831,0.3607335090637207,0.0,0.0,0.0,0.0,0.0,0.0,0.0,0.0,0.0,0.011252357624471188,0.016400301828980446,0.004405151586979628,0.0,0.0,0.0,0.0,0.0,0.0,0.0,0.0,0.0
1606986292306032227,276995,1606982691699479677,imu_link,0.0006079039303585887,0.005012988578528166,0.5241683125495911,0.8515997529029846,0.0,0.0,0.0,0.0,0.0,0.0,0.0,0.0,0.0,63.22686004638672,0.45268896222114563,0.3604430854320526,0.0,0.0,0.0,0.0,0.0,0.0,0.0,0.0,0.0,-0.002554643200710416,0.003563487436622381,0.022402312606573105,0.0,0.0,0.0,0.0,0.0,0.0,0.0,0.0,0.0
1606986292306063548,276996,1606982691699620413,imu_link,0.0006079039303585887,0.005012988578528166,0.5241683125495911,0.8515997529029846,0.0,0.0,0.0,0.0,0.0,0.0,0.0,0.0,0.0,63.22686004638672,0.45268896222114563,0.3604430854320526,0.0,0.0,0.0,0.0,0.0,0.0,0.0,0.0,0.0,-0.002554643200710416,0.003563487436622381,0.022402312606573105,0.0,0.0,0.0,0.0,0.0,0.0,0.0,0.0,0.0
1606986292306074817,276997,1606982691699802795,imu_link,0.000608878384809941,0.0050136069767177105,0.5241683125495911,0.8515996932983398,0.0,0.0,0.0,0.0,0.0,0.0,0.0,0.0,0.0,63.22686004638672,0.4526907205581665,0.3605753481388092,0.0,0.0,0.0,0.0,0.0,0.0,0.0,0.0,0.0,-0.004054698161780834,0.006853638682514429,0.0018647031392902136,0.0,0.0,0.0,0.0,0.0,0.0,0.0,0.0,0.0
1606986292306092376,276998,1606982691699925208,imu_link,0.000608878384809941,0.0050136069767177105,0.5241683125495911,0.8515996932983398,0.0,0.0,0.0,0.0,0.0,0.0,0.0,0.0,0.0,63.22686004638672,0.4526907205581665,0.3605753481388092,0.0,0.0,0.0,0.0,0.0,0.0,0.0,0.0,0.0,-0.004054698161780834,0.006853638682514429,0.0018647031392902136,0.0,0.0,0.0,0.0,0.0,0.0,0.0,0.0,0.0
1606986292306143723,276999,1606982691700005434,imu_link,0.0006083269254304469,0.0050125629641115665,0.5241592526435852,0.8516053557395935,0.0,0.0,0.0,0.0,0.0,0.0,0.0,0.0,0.0,63.22563552856445,0.45262590050697327,0.3604539632797241,0.0,0.0,0.0,0.0,0.0,0.0,0.0,0.0,0.0,0.0016983459936454892,0.010553386062383652,-0.0030972601380199194,0.0,0.0,0.0,0.0,0.0,0.0,0.0,0.0,0.0
1606986292306167137,277000,1606982691700102093,imu_link,0.0006083269254304469,0.0050125629641115665,0.5241592526435852,0.8516053557395935,0.0,0.0,0.0,0.0,0.0,0.0,0.0,0.0,0.0,63.22563552856445,0.45262590050697327,0.3604539632797241,0.0,0.0,0.0,0.0,0.0,0.0,0.0,0.0,0.0,0.0016983459936454892,0.010553386062383652,-0.0030972601380199194,0.0,0.0,0.0,0.0,0.0,0.0,0.0,0.0,0.0
1606986292306194773,277001,1606982691700190051,imu_link,0.000606877903919667,0.0050125629641115665,0.5241606831550598,0.8516044616699219,0.0,0.0,0.0,0.0,0.0,0.0,0.0,0.0,0.0,63.225833892822266,0.4527123272418976,0.3603132963180542,0.0,0.0,0.0,0.0,0.0,0.0,0.0,0.0,0.0,-0.008553707972168922,0.00022110991994850338,0.013916416093707085,0.0,0.0,0.0,0.0,0.0,0.0,0.0,0.0,0.0
1606986292306205383,277002,1606982691700267556,imu_link,0.000606877903919667,0.0050125629641115665,0.5241606831550598,0.8516044616699219,0.0,0.0,0.0,0.0,0.0,0.0,0.0,0.0,0.0,63.225833892822266,0.4527123272418976,0.3603132963180542,0.0,0.0,0.0,0.0,0.0,0.0,0.0,0.0,0.0,-0.008553707972168922,0.00022110991994850338,0.013916416093707085,0.0,0.0,0.0,0.0,0.0,0.0,0.0,0.0,0.0
1606986292306215338,277003,1606982691700343717,imu_link,0.0006093978881835938,0.005011372268199921,0.5241580009460449,0.8516061305999756,0.0,0.0,0.0,0.0,0.0,0.0,0.0,0.0,0.0,63.225467681884766,0.4524458944797516,0.3604862689971924,0.0,0.0,0.0,0.0,0.0,0.0,0.0,0.0,0.0,6.114227289799601e-06,0.009401576593518257,0.01088009960949421,0.0,0.0,0.0,0.0,0.0,0.0,0.0,0.0,0.0
1606986292306225673,277004,1606982691700421251,imu_link,0.0006093978881835938,0.005011372268199921,0.5241580009460449,0.8516061305999756,0.0,0.0,0.0,0.0,0.0,0.0,0.0,0.0,0.0,63.225467681884766,0.4524458944797516,0.3604862689971924,0.0,0.0,0.0,0.0,0.0,0.0,0.0,0.0,0.0,6.114227289799601e-06,0.009401576593518257,0.01088009960949421,0.0,0.0,0.0,0.0,0.0,0.0,0.0,0.0,0.0
1606986292306249018,277005,1606982691700509000,imu_link,0.0006074425182305276,0.005010755732655525,0.5241584777832031,0.8516058325767517,0.0,0.0,0.0,0.0,0.0,0.0,0.0,0.0,0.0,63.22553634643555,0.4525029957294464,0.36025866866111755,0.0,0.0,0.0,0.0,0.0,0.0,0.0,0.0,0.0,-0.0010953337186947465,0.02695639245212078,0.01494503766298294,0.0,0.0,0.0,0.0,0.0,0.0,0.0,0.0,0.0
1606986292306267019,277006,1606982691712420526,imu_link,0.0006074425182305276,0.005010755732655525,0.5241584777832031,0.8516058325767517,0.0,0.0,0.0,0.0,0.0,0.0,0.0,0.0,0.0,63.22553634643555,0.4525029957294464,0.36025866866111755,0.0,0.0,0.0,0.0,0.0,0.0,0.0,0.0,0.0,-0.0010953337186947465,0.02695639245212078,0.01494503766298294,0.0,0.0,0.0,0.0,0.0,0.0,0.0,0.0,0.0
1606986292306275310,277007,1606982691712552602,imu_link,0.0006053263787180185,0.005007216706871986,0.5241571068763733,0.8516066670417786,0.0,0.0,0.0,0.0,0.0,0.0,0.0,0.0,0.0,63.22534942626953,0.4522852897644043,0.35983890295028687,0.0,0.0,0.0,0.0,0.0,0.0,0.0,0.0,0.0,-0.0035132067278027534,0.01769486628472805,0.0015043987659737468,0.0,0.0,0.0,0.0,0.0,0.0,0.0,0.0,0.0
1606986292306284584,277008,1606982691712721638,imu_link,0.0006053263787180185,0.005007216706871986,0.5241571068763733,0.8516066670417786,0.0,0.0,0.0,0.0,0.0,0.0,0.0,0.0,0.0,63.22534942626953,0.4522852897644043,0.35983890295028687,0.0,0.0,0.0,0.0,0.0,0.0,0.0,0.0,0.0,-0.0035132067278027534,0.01769486628472805,0.0015043987659737468,0.0,0.0,0.0,0.0,0.0,0.0,0.0,0.0,0.0
1606986292306626957,277009,1606982691712816262,imu_link,0.0006073437398299575,0.00500683207064867,0.524155855178833,0.8516075015068054,0.0,0.0,0.0,0.0,0.0,0.0,0.0,0.0,0.0,63.22517776489258,0.4521271884441376,0.36001190543174744,0.0,0.0,0.0,0.0,0.0,0.0,0.0,0.0,0.0,0.017078055068850517,-0.007390420883893967,0.0017071643378585577,0.0,0.0,0.0,0.0,0.0,0.0,0.0,0.0,0.0
1606986292306653862,277010,1606982691712898934,imu_link,0.0006073437398299575,0.00500683207064867,0.524155855178833,0.8516075015068054,0.0,0.0,0.0,0.0,0.0,0.0,0.0,0.0,0.0,63.22517776489258,0.4521271884441376,0.36001190543174744,0.0,0.0,0.0,0.0,0.0,0.0,0.0,0.0,0.0,0.017078055068850517,-0.007390420883893967,0.0017071643378585577,0.0,0.0,0.0,0.0,0.0,0.0,0.0,0.0,0.0
1606986292306665942,277011,1606982691712996038,imu_link,0.0006059752777218819,0.005008019972592592,0.5241547226905823,0.851608157157898,0.0,0.0,0.0,0.0,0.0,0.0,0.0,0.0,0.0,63.22502136230469,0.4523257315158844,0.35994917154312134,0.0,0.0,0.0,0.0,0.0,0.0,0.0,0.0,0.0,0.0007171587785705924,-0.015443417243659496,0.003256645053625107,0.0,0.0,0.0,0.0,0.0,0.0,0.0,0.0,0.0
1606986292306679951,277012,1606982691713075633,imu_link,0.0006059752777218819,0.005008019972592592,0.5241547226905823,0.851608157157898,0.0,0.0,0.0,0.0,0.0,0.0,0.0,0.0,0.0,63.22502136230469,0.4523257315158844,0.35994917154312134,0.0,0.0,0.0,0.0,0.0,0.0,0.0,0.0,0.0,0.0007171587785705924,-0.015443417243659496,0.003256645053625107,0.0,0.0,0.0,0.0,0.0,0.0,0.0,0.0,0.0
1606986292311609024,277013,1606982691713149719,imu_link,0.0006046337657608092,0.0050064087845385075,0.5241538286209106,0.8516086339950562,0.0,0.0,0.0,0.0,0.0,0.0,0.0,0.0,0.0,63.22491455078125,0.4522494375705719,0.35972100496292114,0.0,0.0,0.0,0.0,0.0,0.0,0.0,0.0,0.0,-0.0007707190234214067,-0.01694275252521038,-0.00013337243581190705,0.0,0.0,0.0,0.0,0.0,0.0,0.0,0.0,0.0
1606986292311644389,277014,1606982691713232716,imu_link,0.0006046337657608092,0.0050064087845385075,0.5241538286209106,0.8516086339950562,0.0,0.0,0.0,0.0,0.0,0.0,0.0,0.0,0.0,63.22491455078125,0.4522494375705719,0.35972100496292114,0.0,0.0,0.0,0.0,0.0,0.0,0.0,0.0,0.0,-0.0007707190234214067,-0.01694275252521038,-0.00013337243581190705,0.0,0.0,0.0,0.0,0.0,0.0,0.0,0.0,0.0
1606986292311685366,277015,1606982691713316244,imu_link,0.0006070152157917619,0.005006544291973114,0.5241501927375793,0.8516108989715576,0.0,0.0,0.0,0.0,0.0,0.0,0.0,0.0,0.0,63.224422454833984,0.45212113857269287,0.3599596321582794,0.0,0.0,0.0,0.0,0.0,0.0,0.0,0.0,0.0,0.014815596863627434,-0.000502283510286361,0.017780154943466187,0.0,0.0,0.0,0.0,0.0,0.0,0.0,0.0,0.0
1606986292311751072,277016,1606982691726259825,imu_link,0.0006070152157917619,0.005006544291973114,0.5241501927375793,0.8516108989715576,0.0,0.0,0.0,0.0,0.0,0.0,0.0,0.0,0.0,63.224422454833984,0.45212113857269287,0.3599596321582794,0.0,0.0,0.0,0.0,0.0,0.0,0.0,0.0,0.0,0.014815596863627434,-0.000502283510286361,0.017780154943466187,0.0,0.0,0.0,0.0,0.0,0.0,0.0,0.0,0.0
1606986292311798141,277017,1606982691726407978,imu_link,0.0006046936614438891,0.005005972925573587,0.5241498351097107,0.8516111969947815,0.0,0.0,0.0,0.0,0.0,0.0,0.0,0.0,0.0,63.224365234375,0.45220503211021423,0.3596985340118408,0.0,0.0,0.0,0.0,0.0,0.0,0.0,0.0,0.0,0.01729091815650463,0.005876010749489069,0.024616938084363937,0.0,0.0,0.0,0.0,0.0,0.0,0.0,0.0,0.0
1606986292311836661,277018,1606982691726588280,imu_link,0.0006046936614438891,0.005005972925573587,0.5241498351097107,0.8516111969947815,0.0,0.0,0.0,0.0,0.0,0.0,0.0,0.0,0.0,63.224365234375,0.45220503211021423,0.3596985340118408,0.0,0.0,0.0,0.0,0.0,0.0,0.0,0.0,0.0,0.01729091815650463,0.005876010749489069,0.024616938084363937,0.0,0.0,0.0,0.0,0.0,0.0,0.0,0.0,0.0
1606986292311868246,277019,1606982691726697603,imu_link,0.0006026377086527646,0.005011380184441805,0.5241552591323853,0.8516077995300293,0.0,0.0,0.0,0.0,0.0,0.0,0.0,0.0,0.0,63.22510528564453,0.45285382866859436,0.35982561111450195,0.0,0.0,0.0,0.0,0.0,0.0,0.0,0.0,0.0,0.016678625717759132,-0.002443172736093402,0.040243592113256454,0.0,0.0,0.0,0.0,0.0,0.0,0.0,0.0,0.0
1606986292311886711,277020,1606982691726783447,imu_link,0.0006026377086527646,0.005011380184441805,0.5241552591323853,0.8516077995300293,0.0,0.0,0.0,0.0,0.0,0.0,0.0,0.0,0.0,63.22510528564453,0.45285382866859436,0.35982561111450195,0.0,0.0,0.0,0.0,0.0,0.0,0.0,0.0,0.0,0.016678625717759132,-0.002443172736093402,0.040243592113256454,0.0,0.0,0.0,0.0,0.0,0.0,0.0,0.0,0.0
1606986292311971115,277021,1606982691726860034,imu_link,0.0006021937588229775,0.005013272166252136,0.5241536498069763,0.8516087532043457,0.0,0.0,0.0,0.0,0.0,0.0,0.0,0.0,0.0,63.224884033203125,0.4530658423900604,0.35989508032798767,0.0,0.0,0.0,0.0,0.0,0.0,0.0,0.0,0.0,-0.004401207901537418,-0.006909217219799757,0.03650757670402527,0.0,0.0,0.0,0.0,0.0,0.0,0.0,0.0,0.0
1606986292312021448,277022,1606982691727001556,imu_link,0.0006021937588229775,0.005013272166252136,0.5241536498069763,0.8516087532043457,0.0,0.0,0.0,0.0,0.0,0.0,0.0,0.0,0.0,63.224884033203125,0.4530658423900604,0.35989508032798767,0.0,0.0,0.0,0.0,0.0,0.0,0.0,0.0,0.0,-0.004401207901537418,-0.006909217219799757,0.03650757670402527,0.0,0.0,0.0,0.0,0.0,0.0,0.0,0.0,0.0
1606986292312036961,277023,1606982691727084779,imu_link,0.00060341163771227,0.00501334760338068,0.5241579413414001,0.8516061305999756,0.0,0.0,0.0,0.0,0.0,0.0,0.0,0.0,0.0,63.225467681884766,0.45299819111824036,0.3600207269191742,0.0,0.0,0.0,0.0,0.0,0.0,0.0,0.0,0.0,0.0085211843252182,0.003478928003460169,0.016168201342225075,0.0,0.0,0.0,0.0,0.0,0.0,0.0,0.0,0.0
1606986292312094935,277024,1606982691727162358,imu_link,0.00060341163771227,0.00501334760338068,0.5241579413414001,0.8516061305999756,0.0,0.0,0.0,0.0,0.0,0.0,0.0,0.0,0.0,63.225467681884766,0.45299819111824036,0.3600207269191742,0.0,0.0,0.0,0.0,0.0,0.0,0.0,0.0,0.0,0.0085211843252182,0.003478928003460169,0.016168201342225075,0.0,0.0,0.0,0.0,0.0,0.0,0.0,0.0,0.0
1606986292312921501,277025,1606982691727250252,imu_link,0.000601571227889508,0.005012913607060909,0.5241596698760986,0.8516050577163696,0.0,0.0,0.0,0.0,0.0,0.0,0.0,0.0,0.0,63.2256965637207,0.4530656933784485,0.3598160147666931,0.0,0.0,0.0,0.0,0.0,0.0,0.0,0.0,0.0,0.01471740286797285,0.016052965074777603,0.001255408744327724,0.0,0.0,0.0,0.0,0.0,0.0,0.0,0.0,0.0
1606986292312943878,277026,1606982691727334301,imu_link,0.000601571227889508,0.005012913607060909,0.5241596698760986,0.8516050577163696,0.0,0.0,0.0,0.0,0.0,0.0,0.0,0.0,0.0,63.2256965637207,0.4530656933784485,0.3598160147666931,0.0,0.0,0.0,0.0,0.0,0.0,0.0,0.0,0.0,0.01471740286797285,0.016052965074777603,0.001255408744327724,0.0,0.0,0.0,0.0,0.0,0.0,0.0,0.0,0.0
1606986292323677506,277027,1606982691739620300,imu_link,0.0005968942423351109,0.0050149462185800076,0.5241668224334717,0.8516006469726562,0.0,0.0,0.0,0.0,0.0,0.0,0.0,0.0,0.0,63.226661682128906,0.45354199409484863,0.3594854772090912,0.0,0.0,0.0,0.0,0.0,0.0,0.0,0.0,0.0,-0.0015465113101527095,0.008414452895522118,0.006485132034868002,0.0,0.0,0.0,0.0,0.0,0.0,0.0,0.0,0.0
1606986292324759022,277028,1606982691739764273,imu_link,0.0005968942423351109,0.0050149462185800076,0.5241668224334717,0.8516006469726562,0.0,0.0,0.0,0.0,0.0,0.0,0.0,0.0,0.0,63.226661682128906,0.45354199409484863,0.3594854772090912,0.0,0.0,0.0,0.0,0.0,0.0,0.0,0.0,0.0,-0.0015465113101527095,0.008414452895522118,0.006485132034868002,0.0,0.0,0.0,0.0,0.0,0.0,0.0,0.0,0.0
1606986292324778237,277029,1606982691739931009,imu_link,0.0005975682870484889,0.005015364848077297,0.5241667032241821,0.851600706577301,0.0,0.0,0.0,0.0,0.0,0.0,0.0,0.0,0.0,63.226646423339844,0.45354241132736206,0.35957634449005127,0.0,0.0,0.0,0.0,0.0,0.0,0.0,0.0,0.0,0.0026623050216585398,-0.0015244774986058474,0.011130070313811302,0.0,0.0,0.0,0.0,0.0,0.0,0.0,0.0,0.0
1606986292324782863,277030,1606982691740039791,imu_link,0.0005975682870484889,0.005015364848077297,0.5241667032241821,0.851600706577301,0.0,0.0,0.0,0.0,0.0,0.0,0.0,0.0,0.0,63.226646423339844,0.45354241132736206,0.35957634449005127,0.0,0.0,0.0,0.0,0.0,0.0,0.0,0.0,0.0,0.0026623050216585398,-0.0015244774986058474,0.011130070313811302,0.0,0.0,0.0,0.0,0.0,0.0,0.0,0.0,0.0
1606986292324797098,277031,1606982691740119831,imu_link,0.0005980156711302698,0.005017129238694906,0.5241734981536865,0.8515965342521667,0.0,0.0,0.0,0.0,0.0,0.0,0.0,0.0,0.0,63.227561950683594,0.45368483662605286,0.3597296178340912,0.0,0.0,0.0,0.0,0.0,0.0,0.0,0.0,0.0,0.0062003303319215775,-0.009233216755092144,-0.0015342881670221686,0.0,0.0,0.0,0.0,0.0,0.0,0.0,0.0,0.0
1606986292324807223,277032,1606982691740205980,imu_link,0.0005980156711302698,0.005017129238694906,0.5241734981536865,0.8515965342521667,0.0,0.0,0.0,0.0,0.0,0.0,0.0,0.0,0.0,63.227561950683594,0.45368483662605286,0.3597296178340912,0.0,0.0,0.0,0.0,0.0,0.0,0.0,0.0,0.0,0.0062003303319215775,-0.009233216755092144,-0.0015342881670221686,0.0,0.0,0.0,0.0,0.0,0.0,0.0,0.0,0.0
1606986292324811113,277033,1606982691740306047,imu_link,0.0006008680793456733,0.005016943905502558,0.5241724252700806,0.8515971899032593,0.0,0.0,0.0,0.0,0.0,0.0,0.0,0.0,0.0,63.227420806884766,0.45349588990211487,0.3599962294101715,0.0,0.0,0.0,0.0,0.0,0.0,0.0,0.0,0.0,0.013853867538273335,-0.02928796410560608,-0.0010148280998691916,0.0,0.0,0.0,0.0,0.0,0.0,0.0,0.0,0.0
1606986292324813948,277034,1606982691740398285,imu_link,0.0006008680793456733,0.005016943905502558,0.5241724252700806,0.8515971899032593,0.0,0.0,0.0,0.0,0.0,0.0,0.0,0.0,0.0,63.227420806884766,0.45349588990211487,0.3599962294101715,0.0,0.0,0.0,0.0,0.0,0.0,0.0,0.0,0.0,0.013853867538273335,-0.02928796410560608,-0.0010148280998691916,0.0,0.0,0.0,0.0,0.0,0.0,0.0,0.0,0.0
1606986292326193418,277035,1606982691740482921,imu_link,0.0006008019554428756,0.005019227508455515,0.5241716504096985,0.8515976667404175,0.0,0.0,0.0,0.0,0.0,0.0,0.0,0.0,0.0,63.22731018066406,0.4537229835987091,0.3601265549659729,0.0,0.0,0.0,0.0,0.0,0.0,0.0,0.0,0.0,-0.002228803699836135,-0.030284343287348747,0.015431317500770092,0.0,0.0,0.0,0.0,0.0,0.0,0.0,0.0,0.0
1606986292326203919,277036,1606982691740559057,imu_link,0.0006008019554428756,0.005019227508455515,0.5241716504096985,0.8515976667404175,0.0,0.0,0.0,0.0,0.0,0.0,0.0,0.0,0.0,63.22731018066406,0.4537229835987091,0.3601265549659729,0.0,0.0,0.0,0.0,0.0,0.0,0.0,0.0,0.0,-0.002228803699836135,-0.030284343287348747,0.015431317500770092,0.0,0.0,0.0,0.0,0.0,0.0,0.0,0.0,0.0
1606986292326208737,277037,1606982691740635249,imu_link,0.0006006818730384111,0.005017861258238554,0.5241721272468567,0.8515974283218384,0.0,0.0,0.0,0.0,0.0,0.0,0.0,0.0,0.0,63.22737121582031,0.45359674096107483,0.3600330054759979,0.0,0.0,0.0,0.0,0.0,0.0,0.0,0.0,0.0,-0.013480943627655506,-0.001138962572440505,0.029043348506093025,0.0,0.0,0.0,0.0,0.0,0.0,0.0,0.0,0.0
1606986292351961836,277038,1606982691753453755,imu_link,0.0006006818730384111,0.005017861258238554,0.5241721272468567,0.8515974283218384,0.0,0.0,0.0,0.0,0.0,0.0,0.0,0.0,0.0,63.22737121582031,0.45359674096107483,0.3600330054759979,0.0,0.0,0.0,0.0,0.0,0.0,0.0,0.0,0.0,-0.013480943627655506,-0.001138962572440505,0.029043348506093025,0.0,0.0,0.0,0.0,0.0,0.0,0.0,0.0,0.0
1606986292364666985,277039,1606982691753597121,imu_link,0.0006002201698720455,0.005016035865992308,0.524170994758606,0.8515980839729309,0.0,0.0,0.0,0.0,0.0,0.0,0.0,0.0,0.0,63.22722244262695,0.45344677567481995,0.35987770557403564,0.0,0.0,0.0,0.0,0.0,0.0,0.0,0.0,0.0,0.00037363695446401834,0.0050236014649271965,0.030072810128331184,0.0,0.0,0.0,0.0,0.0,0.0,0.0,0.0,0.0
1606986292364691158,277040,1606982691753787191,imu_link,0.0006002201698720455,0.005016035865992308,0.524170994758606,0.8515980839729309,0.0,0.0,0.0,0.0,0.0,0.0,0.0,0.0,0.0,63.22722244262695,0.45344677567481995,0.35987770557403564,0.0,0.0,0.0,0.0,0.0,0.0,0.0,0.0,0.0,0.00037363695446401834,0.0050236014649271965,0.030072810128331184,0.0,0.0,0.0,0.0,0.0,0.0,0.0,0.0,0.0
1606986292364701564,277041,1606982691753889433,imu_link,0.0006004832102917135,0.005015322472900152,0.5241701602935791,0.8515986204147339,0.0,0.0,0.0,0.0,0.0,0.0,0.0,0.0,0.0,63.22710418701172,0.45336171984672546,0.35986006259918213,0.0,0.0,0.0,0.0,0.0,0.0,0.0,0.0,0.0,0.005252096801996231,0.0008686170913279057,0.02540990523993969,0.0,0.0,0.0,0.0,0.0,0.0,0.0,0.0,0.0
1606986292364712147,277042,1606982691753967779,imu_link,0.0006004832102917135,0.005015322472900152,0.5241701602935791,0.8515986204147339,0.0,0.0,0.0,0.0,0.0,0.0,0.0,0.0,0.0,63.22710418701172,0.45336171984672546,0.35986006259918213,0.0,0.0,0.0,0.0,0.0,0.0,0.0,0.0,0.0,0.005252096801996231,0.0008686170913279057,0.02540990523993969,0.0,0.0,0.0,0.0,0.0,0.0,0.0,0.0,0.0
1606986292364742970,277043,1606982691754045725,imu_link,0.0006014807731844485,0.005017363466322422,0.5241637229919434,0.8516025543212891,0.0,0.0,0.0,0.0,0.0,0.0,0.0,0.0,0.0,63.22624588012695,0.45350366830825806,0.3600766062736511,0.0,0.0,0.0,0.0,0.0,0.0,0.0,0.0,0.0,0.002010942902415991,0.002239107619971037,0.021539773792028427,0.0,0.0,0.0,0.0,0.0,0.0,0.0,0.0,0.0
1606986292364759130,277044,1606982691754150883,imu_link,0.0006014807731844485,0.005017363466322422,0.5241637229919434,0.8516025543212891,0.0,0.0,0.0,0.0,0.0,0.0,0.0,0.0,0.0,63.22624588012695,0.45350366830825806,0.3600766062736511,0.0,0.0,0.0,0.0,0.0,0.0,0.0,0.0,0.0,0.002010942902415991,0.002239107619971037,0.021539773792028427,0.0,0.0,0.0,0.0,0.0,0.0,0.0,0.0,0.0
1606986292364770282,277045,1606982691754227896,imu_link,0.0006006831536069512,0.005017879884690046,0.524163544178009,0.8516026735305786,0.0,0.0,0.0,0.0,0.0,0.0,0.0,0.0,0.0,63.226219177246094,0.4536020755767822,0.3600296974182129,0.0,0.0,0.0,0.0,0.0,0.0,0.0,0.0,0.0,-0.010368355549871922,-0.007503983564674854,0.007960125803947449,0.0,0.0,0.0,0.0,0.0,0.0,0.0,0.0,0.0
1606986292364787039,277046,1606982691754312497,imu_link,0.0006006831536069512,0.005017879884690046,0.524163544178009,0.8516026735305786,0.0,0.0,0.0,0.0,0.0,0.0,0.0,0.0,0.0,63.226219177246094,0.4536020755767822,0.3600296974182129,0.0,0.0,0.0,0.0,0.0,0.0,0.0,0.0,0.0,-0.010368355549871922,-0.007503983564674854,0.007960125803947449,0.0,0.0,0.0,0.0,0.0,0.0,0.0,0.0,0.0
1606986292364805275,277047,1606982691754390192,imu_link,0.0006010691286064684,0.005018263589590788,0.5241566300392151,0.8516069054603577,0.0,0.0,0.0,0.0,0.0,0.0,0.0,0.0,0.0,63.22528839111328,0.45361924171447754,0.36008673906326294,0.0,0.0,0.0,0.0,0.0,0.0,0.0,0.0,0.0,-0.009756793268024921,-0.0030993279069662094,0.0038563089910894632,0.0,0.0,0.0,0.0,0.0,0.0,0.0,0.0,0.0
1606986292364850652,277048,1606982691754469180,imu_link,0.0006010691286064684,0.005018263589590788,0.5241566300392151,0.8516069054603577,0.0,0.0,0.0,0.0,0.0,0.0,0.0,0.0,0.0,63.22528839111328,0.45361924171447754,0.36008673906326294,0.0,0.0,0.0,0.0,0.0,0.0,0.0,0.0,0.0,-0.009756793268024921,-0.0030993279069662094,0.0038563089910894632,0.0,0.0,0.0,0.0,0.0,0.0,0.0,0.0,0.0
1606986292364871395,277049,1606982691766992833,imu_link,0.0006020009168423712,0.005017380230128765,0.5241566300392151,0.8516069054603577,0.0,0.0,0.0,0.0,0.0,0.0,0.0,0.0,0.0,63.22528839111328,0.45347708463668823,0.3601246178150177,0.0,0.0,0.0,0.0,0.0,0.0,0.0,0.0,0.0,-0.007523187901824713,0.004201802425086498,0.017773462459445,0.0,0.0,0.0,0.0,0.0,0.0,0.0,0.0,0.0
1606986292364879550,277050,1606982691767144078,imu_link,0.0006020009168423712,0.005017380230128765,0.5241566300392151,0.8516069054603577,0.0,0.0,0.0,0.0,0.0,0.0,0.0,0.0,0.0,63.22528839111328,0.45347708463668823,0.3601246178150177,0.0,0.0,0.0,0.0,0.0,0.0,0.0,0.0,0.0,-0.007523187901824713,0.004201802425086498,0.017773462459445,0.0,0.0,0.0,0.0,0.0,0.0,0.0,0.0,0.0
1606986292364897696,277051,1606982691767282063,imu_link,0.0006005571922287345,0.005016679409891367,0.5241590142250061,0.8516054153442383,0.0,0.0,0.0,0.0,0.0,0.0,0.0,0.0,0.0,63.225608825683594,0.4534943997859955,0.3599429726600647,0.0,0.0,0.0,0.0,0.0,0.0,0.0,0.0,0.0,-0.0003680235822685063,0.0037716219667345285,0.01943124830722809,0.0,0.0,0.0,0.0,0.0,0.0,0.0,0.0,0.0
1606986292364904655,277052,1606982691767368613,imu_link,0.0006005571922287345,0.005016679409891367,0.5241590142250061,0.8516054153442383,0.0,0.0,0.0,0.0,0.0,0.0,0.0,0.0,0.0,63.225608825683594,0.4534943997859955,0.3599429726600647,0.0,0.0,0.0,0.0,0.0,0.0,0.0,0.0,0.0,-0.0003680235822685063,0.0037716219667345285,0.01943124830722809,0.0,0.0,0.0,0.0,0.0,0.0,0.0,0.0,0.0
1606986292364910116,277053,1606982691767459854,imu_link,0.0006012639496475458,0.005017231684178114,0.5241591930389404,0.8516052961349487,0.0,0.0,0.0,0.0,0.0,0.0,0.0,0.0,0.0,63.22563552856445,0.4535057544708252,0.3600451350212097,0.0,0.0,0.0,0.0,0.0,0.0,0.0,0.0,0.0,0.010031482204794884,7.893602742115036e-05,0.007489335723221302,0.0,0.0,0.0,0.0,0.0,0.0,0.0,0.0,0.0
1606986292364934487,277054,1606982691767558477,imu_link,0.0006012639496475458,0.005017231684178114,0.5241591930389404,0.8516052961349487,0.0,0.0,0.0,0.0,0.0,0.0,0.0,0.0,0.0,63.22563552856445,0.4535057544708252,0.3600451350212097,0.0,0.0,0.0,0.0,0.0,0.0,0.0,0.0,0.0,0.010031482204794884,7.893602742115036e-05,0.007489335723221302,0.0,0.0,0.0,0.0,0.0,0.0,0.0,0.0,0.0
1606986292364997559,277055,1606982691767666257,imu_link,0.0005997914704494178,0.005019369535148144,0.5241625905036926,0.8516032099723816,0.0,0.0,0.0,0.0,0.0,0.0,0.0,0.0,0.0,63.22609329223633,0.45380136370658875,0.36003169417381287,0.0,0.0,0.0,0.0,0.0,0.0,0.0,0.0,0.0,0.007852859795093536,-0.020093204453587532,0.014530547894537449,0.0,0.0,0.0,0.0,0.0,0.0,0.0,0.0,0.0
1606986292365494241,277056,1606982691767756380,imu_link,0.0005997914704494178,0.005019369535148144,0.5241625905036926,0.8516032099723816,0.0,0.0,0.0,0.0,0.0,0.0,0.0,0.0,0.0,63.22609329223633,0.45380136370658875,0.36003169417381287,0.0,0.0,0.0,0.0,0.0,0.0,0.0,0.0,0.0,0.007852859795093536,-0.020093204453587532,0.014530547894537449,0.0,0.0,0.0,0.0,0.0,0.0,0.0,0.0,0.0
1606986292365502647,277057,1606982691767840796,imu_link,0.0005990893114358187,0.005018151830881834,0.5241625905036926,0.8516032099723816,0.0,0.0,0.0,0.0,0.0,0.0,0.0,0.0,0.0,63.22609329223633,0.45372474193573,0.35989004373550415,0.0,0.0,0.0,0.0,0.0,0.0,0.0,0.0,0.0,-0.0008782867807894945,-0.018489915877580643,0.026593118906021118,0.0,0.0,0.0,0.0,0.0,0.0,0.0,0.0,0.0
1606986292365508177,277058,1606982691767924113,imu_link,0.0005990893114358187,0.005018151830881834,0.5241625905036926,0.8516032099723816,0.0,0.0,0.0,0.0,0.0,0.0,0.0,0.0,0.0,63.22609329223633,0.45372474193573,0.35989004373550415,0.0,0.0,0.0,0.0,0.0,0.0,0.0,0.0,0.0,-0.0008782867807894945,-0.018489915877580643,0.026593118906021118,0.0,0.0,0.0,0.0,0.0,0.0,0.0,0.0,0.0
1606986292365517713,277059,1606982691768006208,imu_link,0.0006023105815984309,0.005021971650421619,0.5241658091545105,0.851601243019104,0.0,0.0,0.0,0.0,0.0,0.0,0.0,0.0,0.0,63.226531982421875,0.4539026618003845,0.3604355454444885,0.0,0.0,0.0,0.0,0.0,0.0,0.0,0.0,0.0,-0.01464901864528656,0.0033310893923044205,0.005498538725078106,0.0,0.0,0.0,0.0,0.0,0.0,0.0,0.0,0.0
1606986292365527886,277060,1606982691779773401,imu_link,0.0006023105815984309,0.005021971650421619,0.5241658091545105,0.851601243019104,0.0,0.0,0.0,0.0,0.0,0.0,0.0,0.0,0.0,63.226531982421875,0.4539026618003845,0.3604355454444885,0.0,0.0,0.0,0.0,0.0,0.0,0.0,0.0,0.0,-0.01464901864528656,0.0033310893923044205,0.005498538725078106,0.0,0.0,0.0,0.0,0.0,0.0,0.0,0.0,0.0
1606986292365533498,277061,1606982691779920196,imu_link,0.000603781605605036,0.0050198230892419815,0.5241656303405762,0.8516013622283936,0.0,0.0,0.0,0.0,0.0,0.0,0.0,0.0,0.0,63.226505279541016,0.45360469818115234,0.3604499399662018,0.0,0.0,0.0,0.0,0.0,0.0,0.0,0.0,0.0,-0.0035344515927135944,-0.008209713734686375,-0.015511529520154,0.0,0.0,0.0,0.0,0.0,0.0,0.0,0.0,0.0
1606986292365540916,277062,1606982691780074784,imu_link,0.000603781605605036,0.0050198230892419815,0.5241656303405762,0.8516013622283936,0.0,0.0,0.0,0.0,0.0,0.0,0.0,0.0,0.0,63.226505279541016,0.45360469818115234,0.3604499399662018,0.0,0.0,0.0,0.0,0.0,0.0,0.0,0.0,0.0,-0.0035344515927135944,-0.008209713734686375,-0.015511529520154,0.0,0.0,0.0,0.0,0.0,0.0,0.0,0.0,0.0
1606986292365550870,277063,1606982691780173492,imu_link,0.0006034750840626657,0.0050191208720207214,0.5241707563400269,0.8515982031822205,0.0,0.0,0.0,0.0,0.0,0.0,0.0,0.0,0.0,63.227195739746094,0.45355239510536194,0.3603805899620056,0.0,0.0,0.0,0.0,0.0,0.0,0.0,0.0,0.0,0.01609041914343834,-0.020621925592422485,-0.020597020164132118,0.0,0.0,0.0,0.0,0.0,0.0,0.0,0.0,0.0
1606986292365563674,277064,1606982691780252270,imu_link,0.0006034750840626657,0.0050191208720207214,0.5241707563400269,0.8515982031822205,0.0,0.0,0.0,0.0,0.0,0.0,0.0,0.0,0.0,63.227195739746094,0.45355239510536194,0.3603805899620056,0.0,0.0,0.0,0.0,0.0,0.0,0.0,0.0,0.0,0.01609041914343834,-0.020621925592422485,-0.020597020164132118,0.0,0.0,0.0,0.0,0.0,0.0,0.0,0.0,0.0
1606986292378339830,277065,1606982691780355458,imu_link,0.0006046534981578588,0.00502057746052742,0.5241724252700806,0.8515971899032593,0.0,0.0,0.0,0.0,0.0,0.0,0.0,0.0,0.0,63.227420806884766,0.45362308621406555,0.36058393120765686,0.0,0.0,0.0,0.0,0.0,0.0,0.0,0.0,0.0,0.011369758285582066,-0.011770028620958328,-0.009745089337229729,0.0,0.0,0.0,0.0,0.0,0.0,0.0,0.0,0.0
1606986292378359085,277066,1606982691780438736,imu_link,0.0006046534981578588,0.00502057746052742,0.5241724252700806,0.8515971899032593,0.0,0.0,0.0,0.0,0.0,0.0,0.0,0.0,0.0,63.227420806884766,0.45362308621406555,0.36058393120765686,0.0,0.0,0.0,0.0,0.0,0.0,0.0,0.0,0.0,0.011369758285582066,-0.011770028620958328,-0.009745089337229729,0.0,0.0,0.0,0.0,0.0,0.0,0.0,0.0,0.0
1606986292378373416,277067,1606982691780516762,imu_link,0.0006035232217982411,0.00502410065382719,0.5241759419441223,0.8515950441360474,0.0,0.0,0.0,0.0,0.0,0.0,0.0,0.0,0.0,63.22789001464844,0.45403334498405457,0.36068710684776306,0.0,0.0,0.0,0.0,0.0,0.0,0.0,0.0,0.0,0.01257444079965353,-0.02080729976296425,-0.0007440692279487848,0.0,0.0,0.0,0.0,0.0,0.0,0.0,0.0,0.0
1606986292378402543,277068,1606982691780598010,imu_link,0.0006035232217982411,0.00502410065382719,0.5241759419441223,0.8515950441360474,0.0,0.0,0.0,0.0,0.0,0.0,0.0,0.0,0.0,63.22789001464844,0.45403334498405457,0.36068710684776306,0.0,0.0,0.0,0.0,0.0,0.0,0.0,0.0,0.0,0.01257444079965353,-0.02080729976296425,-0.0007440692279487848,0.0,0.0,0.0,0.0,0.0,0.0,0.0,0.0,0.0
1606986292378408827,277069,1606982691780674682,imu_link,0.00060221366584301,0.005022880155593157,0.5241788625717163,0.8515931963920593,0.0,0.0,0.0,0.0,0.0,0.0,0.0,0.0,0.0,63.22828674316406,0.4539915919303894,0.3604876399040222,0.0,0.0,0.0,0.0,0.0,0.0,0.0,0.0,0.0,0.010108506307005882,-0.007537721656262875,0.011747688055038452,0.0,0.0,0.0,0.0,0.0,0.0,0.0,0.0,0.0
1606986292378415659,277070,1606982691793553317,imu_link,0.00060221366584301,0.005022880155593157,0.5241788625717163,0.8515931963920593,0.0,0.0,0.0,0.0,0.0,0.0,0.0,0.0,0.0,63.22828674316406,0.4539915919303894,0.3604876399040222,0.0,0.0,0.0,0.0,0.0,0.0,0.0,0.0,0.0,0.010108506307005882,-0.007537721656262875,0.011747688055038452,0.0,0.0,0.0,0.0,0.0,0.0,0.0,0.0,0.0
1606986292378422476,277071,1606982691793691246,imu_link,0.0006033945246599615,0.005027724429965019,0.5241811275482178,0.8515917658805847,0.0,0.0,0.0,0.0,0.0,0.0,0.0,0.0,0.0,63.228599548339844,0.4543924629688263,0.3608950674533844,0.0,0.0,0.0,0.0,0.0,0.0,0.0,0.0,0.0,-0.018374325707554817,0.013093378394842148,0.024910036474466324,0.0,0.0,0.0,0.0,0.0,0.0,0.0,0.0,0.0
1606986292378431100,277072,1606982691793850700,imu_link,0.0006033945246599615,0.005027724429965019,0.5241811275482178,0.8515917658805847,0.0,0.0,0.0,0.0,0.0,0.0,0.0,0.0,0.0,63.228599548339844,0.4543924629688263,0.3608950674533844,0.0,0.0,0.0,0.0,0.0,0.0,0.0,0.0,0.0,-0.018374325707554817,0.013093378394842148,0.024910036474466324,0.0,0.0,0.0,0.0,0.0,0.0,0.0,0.0,0.0
1606986292378440807,277073,1606982691793931983,imu_link,0.0006028577336110175,0.005028050858527422,0.5241817831993103,0.8515913486480713,0.0,0.0,0.0,0.0,0.0,0.0,0.0,0.0,0.0,63.22869110107422,0.4544562101364136,0.3608626127243042,0.0,0.0,0.0,0.0,0.0,0.0,0.0,0.0,0.0,-0.013036423362791538,0.003513208357617259,0.008387399837374687,0.0,0.0,0.0,0.0,0.0,0.0,0.0,0.0,0.0
1606986292379813552,277074,1606982691794028096,imu_link,0.0006028577336110175,0.005028050858527422,0.5241817831993103,0.8515913486480713,0.0,0.0,0.0,0.0,0.0,0.0,0.0,0.0,0.0,63.22869110107422,0.4544562101364136,0.3608626127243042,0.0,0.0,0.0,0.0,0.0,0.0,0.0,0.0,0.0,-0.013036423362791538,0.003513208357617259,0.008387399837374687,0.0,0.0,0.0,0.0,0.0,0.0,0.0,0.0,0.0
1606986292379820719,277075,1606982691794106071,imu_link,0.0006025867769494653,0.005026128143072128,0.5241833329200745,0.8515904545783997,0.0,0.0,0.0,0.0,0.0,0.0,0.0,0.0,0.0,63.22888946533203,0.4542842209339142,0.3607214689254761,0.0,0.0,0.0,0.0,0.0,0.0,0.0,0.0,0.0,0.003264971310272813,-8.514664659742266e-05,-0.009243765845894814,0.0,0.0,0.0,0.0,0.0,0.0,0.0,0.0,0.0
1606986292379825520,277076,1606982691794204319,imu_link,0.0006025867769494653,0.005026128143072128,0.5241833329200745,0.8515904545783997,0.0,0.0,0.0,0.0,0.0,0.0,0.0,0.0,0.0,63.22888946533203,0.4542842209339142,0.3607214689254761,0.0,0.0,0.0,0.0,0.0,0.0,0.0,0.0,0.0,0.003264971310272813,-8.514664659742266e-05,-0.009243765845894814,0.0,0.0,0.0,0.0,0.0,0.0,0.0,0.0,0.0
1606986292381325361,277077,1606982691794290518,imu_link,0.0006052434910088778,0.005025317892432213,0.5241825580596924,0.8515909314155579,0.0,0.0,0.0,0.0,0.0,0.0,0.0,0.0,0.0,63.22878646850586,0.4540459215641022,0.3609316945075989,0.0,0.0,0.0,0.0,0.0,0.0,0.0,0.0,0.0,0.007136311382055283,0.01081137266010046,-0.00047601512051187456,0.0,0.0,0.0,0.0,0.0,0.0,0.0,0.0,0.0
1606986292381333738,277078,1606982691794363918,imu_link,0.0006052434910088778,0.005025317892432213,0.5241825580596924,0.8515909314155579,0.0,0.0,0.0,0.0,0.0,0.0,0.0,0.0,0.0,63.22878646850586,0.4540459215641022,0.3609316945075989,0.0,0.0,0.0,0.0,0.0,0.0,0.0,0.0,0.0,0.007136311382055283,0.01081137266010046,-0.00047601512051187456,0.0,0.0,0.0,0.0,0.0,0.0,0.0,0.0,0.0
1606986292381383732,277079,1606982691794478483,imu_link,0.0006025954498909414,0.0050265733152627945,0.5241838097572327,0.8515901565551758,0.0,0.0,0.0,0.0,0.0,0.0,0.0,0.0,0.0,63.22895812988281,0.4543269872665405,0.3607493042945862,0.0,0.0,0.0,0.0,0.0,0.0,0.0,0.0,0.0,0.018300097435712814,0.023779718205332756,0.017274951562285423,0.0,0.0,0.0,0.0,0.0,0.0,0.0,0.0,0.0
1606986292381394107,277080,1606982691794614889,imu_link,0.0006025954498909414,0.0050265733152627945,0.5241838097572327,0.8515901565551758,0.0,0.0,0.0,0.0,0.0,0.0,0.0,0.0,0.0,63.22895812988281,0.4543269872665405,0.3607493042945862,0.0,0.0,0.0,0.0,0.0,0.0,0.0,0.0,0.0,0.018300097435712814,0.023779718205332756,0.017274951562285423,0.0,0.0,0.0,0.0,0.0,0.0,0.0,0.0,0.0
1606986292391321347,277081,1606982691807097197,imu_link,0.0006021297886036336,0.0050271679647266865,0.5241839289665222,0.8515899777412415,0.0,0.0,0.0,0.0,0.0,0.0,0.0,0.0,0.0,63.22898483276367,0.45441287755966187,0.3607397973537445,0.0,0.0,0.0,0.0,0.0,0.0,0.0,0.0,0.0,0.006358950864523649,0.01628103479743004,0.006847159471362829,0.0,0.0,0.0,0.0,0.0,0.0,0.0,0.0,0.0
1606986292392000153,277082,1606982691807236845,imu_link,0.0006021297886036336,0.0050271679647266865,0.5241839289665222,0.8515899777412415,0.0,0.0,0.0,0.0,0.0,0.0,0.0,0.0,0.0,63.22898483276367,0.45441287755966187,0.3607397973537445,0.0,0.0,0.0,0.0,0.0,0.0,0.0,0.0,0.0,0.006358950864523649,0.01628103479743004,0.006847159471362829,0.0,0.0,0.0,0.0,0.0,0.0,0.0,0.0,0.0
1606986292392029814,277083,1606982691807426885,imu_link,0.000600693398155272,0.005025604739785194,0.5241841077804565,0.8515899777412415,0.0,0.0,0.0,0.0,0.0,0.0,0.0,0.0,0.0,63.22899627685547,0.45434656739234924,0.36050572991371155,0.0,0.0,0.0,0.0,0.0,0.0,0.0,0.0,0.0,-0.003803902305662632,-0.01027647778391838,-0.007427436299622059,0.0,0.0,0.0,0.0,0.0,0.0,0.0,0.0,0.0
1606986292392038616,277084,1606982691807542207,imu_link,0.000600693398155272,0.005025604739785194,0.5241841077804565,0.8515899777412415,0.0,0.0,0.0,0.0,0.0,0.0,0.0,0.0,0.0,63.22899627685547,0.45434656739234924,0.36050572991371155,0.0,0.0,0.0,0.0,0.0,0.0,0.0,0.0,0.0,-0.003803902305662632,-0.01027647778391838,-0.007427436299622059,0.0,0.0,0.0,0.0,0.0,0.0,0.0,0.0,0.0
1606986292392049687,277085,1606982691807617566,imu_link,0.0006001273286528885,0.005025913938879967,0.5241846442222595,0.8515896201133728,0.0,0.0,0.0,0.0,0.0,0.0,0.0,0.0,0.0,63.22906494140625,0.4544105529785156,0.36046934127807617,0.0,0.0,0.0,0.0,0.0,0.0,0.0,0.0,0.0,0.005871147383004427,-0.011935344897210598,0.01347950380295515,0.0,0.0,0.0,0.0,0.0,0.0,0.0,0.0,0.0
1606986292392544219,277086,1606982691807708627,imu_link,0.0006001273286528885,0.005025913938879967,0.5241846442222595,0.8515896201133728,0.0,0.0,0.0,0.0,0.0,0.0,0.0,0.0,0.0,63.22906494140625,0.4544105529785156,0.36046934127807617,0.0,0.0,0.0,0.0,0.0,0.0,0.0,0.0,0.0,0.005871147383004427,-0.011935344897210598,0.01347950380295515,0.0,0.0,0.0,0.0,0.0,0.0,0.0,0.0,0.0
1606986292392559333,277087,1606982691807809450,imu_link,0.0006007629563100636,0.00502886762842536,0.5241814851760864,0.8515915870666504,0.0,0.0,0.0,0.0,0.0,0.0,0.0,0.0,0.0,63.228641510009766,0.45466193556785583,0.3607071042060852,0.0,0.0,0.0,0.0,0.0,0.0,0.0,0.0,0.0,0.0072039165534079075,-0.001833488349802792,0.016200941056013107,0.0,0.0,0.0,0.0,0.0,0.0,0.0,0.0,0.0
1606986292392573242,277088,1606982691807887210,imu_link,0.0006007629563100636,0.00502886762842536,0.5241814851760864,0.8515915870666504,0.0,0.0,0.0,0.0,0.0,0.0,0.0,0.0,0.0,63.228641510009766,0.45466193556785583,0.3607071042060852,0.0,0.0,0.0,0.0,0.0,0.0,0.0,0.0,0.0,0.0072039165534079075,-0.001833488349802792,0.016200941056013107,0.0,0.0,0.0,0.0,0.0,0.0,0.0,0.0,0.0
1606986292392585466,277089,1606982691807970794,imu_link,0.0006016044062562287,0.005027648992836475,0.5241802334785461,0.8515923023223877,0.0,0.0,0.0,0.0,0.0,0.0,0.0,0.0,0.0,63.228477478027344,0.45449298620224,0.3607153594493866,0.0,0.0,0.0,0.0,0.0,0.0,0.0,0.0,0.0,0.00897976290434599,0.006097911391407251,-0.0023476502392441034,0.0,0.0,0.0,0.0,0.0,0.0,0.0,0.0,0.0
1606986292394010508,277090,1606982691808060115,imu_link,0.0006016044062562287,0.005027648992836475,0.5241802334785461,0.8515923023223877,0.0,0.0,0.0,0.0,0.0,0.0,0.0,0.0,0.0,63.228477478027344,0.45449298620224,0.3607153594493866,0.0,0.0,0.0,0.0,0.0,0.0,0.0,0.0,0.0,0.00897976290434599,0.006097911391407251,-0.0023476502392441034,0.0,0.0,0.0,0.0,0.0,0.0,0.0,0.0,0.0
1606986292394023759,277091,1606982691808136417,imu_link,0.0005993970553390682,0.0050294045358896255,0.5241747498512268,0.8515957593917847,0.0,0.0,0.0,0.0,0.0,0.0,0.0,0.0,0.0,63.22774124145508,0.4547993242740631,0.360602468252182,0.0,0.0,0.0,0.0,0.0,0.0,0.0,0.0,0.0,0.009766689501702785,0.023226099088788033,0.013276800513267517,0.0,0.0,0.0,0.0,0.0,0.0,0.0,0.0,0.0
1606986292405090555,277092,1606982691820979936,imu_link,0.0005993970553390682,0.0050294045358896255,0.5241747498512268,0.8515957593917847,0.0,0.0,0.0,0.0,0.0,0.0,0.0,0.0,0.0,63.22774124145508,0.4547993242740631,0.360602468252182,0.0,0.0,0.0,0.0,0.0,0.0,0.0,0.0,0.0,0.009766689501702785,0.023226099088788033,0.013276800513267517,0.0,0.0,0.0,0.0,0.0,0.0,0.0,0.0,0.0
1606986292405569653,277093,1606982691821109582,imu_link,0.0006010259967297316,0.005031234584748745,0.5241739153862,0.8515961170196533,0.0,0.0,0.0,0.0,0.0,0.0,0.0,0.0,0.0,63.227630615234375,0.4548802673816681,0.36087095737457275,0.0,0.0,0.0,0.0,0.0,0.0,0.0,0.0,0.0,-0.004295107908546925,0.021251540631055832,-0.0002623717300593853,0.0,0.0,0.0,0.0,0.0,0.0,0.0,0.0,0.0
1606986292405621497,277094,1606982691821282196,imu_link,0.0006010259967297316,0.005031234584748745,0.5241739153862,0.8515961170196533,0.0,0.0,0.0,0.0,0.0,0.0,0.0,0.0,0.0,63.227630615234375,0.4548802673816681,0.36087095737457275,0.0,0.0,0.0,0.0,0.0,0.0,0.0,0.0,0.0,-0.004295107908546925,0.021251540631055832,-0.0002623717300593853,0.0,0.0,0.0,0.0,0.0,0.0,0.0,0.0,0.0
1606986292405656577,277095,1606982691821373456,imu_link,0.0005992918740957975,0.00502951443195343,0.5241684317588806,0.8515996336936951,0.0,0.0,0.0,0.0,0.0,0.0,0.0,0.0,0.0,63.22688674926758,0.4548189640045166,0.3605954051017761,0.0,0.0,0.0,0.0,0.0,0.0,0.0,0.0,0.0,-0.008661579340696335,0.011393636465072632,-0.021435203030705452,0.0,0.0,0.0,0.0,0.0,0.0,0.0,0.0,0.0
1606986292405669285,277096,1606982691821444019,imu_link,0.0005992918740957975,0.00502951443195343,0.5241684317588806,0.8515996336936951,0.0,0.0,0.0,0.0,0.0,0.0,0.0,0.0,0.0,63.22688674926758,0.4548189640045166,0.3605954051017761,0.0,0.0,0.0,0.0,0.0,0.0,0.0,0.0,0.0,-0.008661579340696335,0.011393636465072632,-0.021435203030705452,0.0,0.0,0.0,0.0,0.0,0.0,0.0,0.0,0.0
1606986292406515916,277097,1606982691821512671,imu_link,0.0006002567824907601,0.00502932071685791,0.5241690278053284,0.8515992164611816,0.0,0.0,0.0,0.0,0.0,0.0,0.0,0.0,0.0,63.22697067260742,0.45474180579185486,0.3606783151626587,0.0,0.0,0.0,0.0,0.0,0.0,0.0,0.0,0.0,-0.009463118389248848,-0.013135802932083607,0.0038711149245500565,0.0,0.0,0.0,0.0,0.0,0.0,0.0,0.0,0.0
1606986292406534084,277098,1606982691821605579,imu_link,0.0006002567824907601,0.00502932071685791,0.5241690278053284,0.8515992164611816,0.0,0.0,0.0,0.0,0.0,0.0,0.0,0.0,0.0,63.22697067260742,0.45474180579185486,0.3606783151626587,0.0,0.0,0.0,0.0,0.0,0.0,0.0,0.0,0.0,-0.009463118389248848,-0.013135802932083607,0.0038711149245500565,0.0,0.0,0.0,0.0,0.0,0.0,0.0,0.0,0.0
1606986292406542873,277099,1606982691821674618,imu_link,0.0006030873046256602,0.0050286236219108105,0.5241689682006836,0.8515992760658264,0.0,0.0,0.0,0.0,0.0,0.0,0.0,0.0,0.0,63.22696304321289,0.45450377464294434,0.36091262102127075,0.0,0.0,0.0,0.0,0.0,0.0,0.0,0.0,0.0,-0.00436733802780509,-0.005541607271879911,0.005922883749008179,0.0,0.0,0.0,0.0,0.0,0.0,0.0,0.0,0.0
1606986292406557202,277100,1606982691821743934,imu_link,0.0006030873046256602,0.0050286236219108105,0.5241689682006836,0.8515992760658264,0.0,0.0,0.0,0.0,0.0,0.0,0.0,0.0,0.0,63.22696304321289,0.45450377464294434,0.36091262102127075,0.0,0.0,0.0,0.0,0.0,0.0,0.0,0.0,0.0,-0.00436733802780509,-0.005541607271879911,0.005922883749008179,0.0,0.0,0.0,0.0,0.0,0.0,0.0,0.0,0.0
1606986292406570043,277101,1606982691821829783,imu_link,0.0006061089225113392,0.005029981955885887,0.524168848991394,0.8515992760658264,0.0,0.0,0.0,0.0,0.0,0.0,0.0,0.0,0.0,63.22694778442383,0.45445483922958374,0.36128905415534973,0.0,0.0,0.0,0.0,0.0,0.0,0.0,0.0,0.0,-0.002747432328760624,0.029434988275170326,-0.0011458666995167732,0.0,0.0,0.0,0.0,0.0,0.0,0.0,0.0,0.0
1606986292406586124,277102,1606982691821908374,imu_link,0.0006061089225113392,0.005029981955885887,0.524168848991394,0.8515992760658264,0.0,0.0,0.0,0.0,0.0,0.0,0.0,0.0,0.0,63.22694778442383,0.45445483922958374,0.36128905415534973,0.0,0.0,0.0,0.0,0.0,0.0,0.0,0.0,0.0,-0.002747432328760624,0.029434988275170326,-0.0011458666995167732,0.0,0.0,0.0,0.0,0.0,0.0,0.0,0.0,0.0
1606986292418566719,277103,1606982691834428510,imu_link,0.0006000473513267934,0.005029674153774977,0.5241703987121582,0.8515983819961548,0.0,0.0,0.0,0.0,0.0,0.0,0.0,0.0,0.0,63.22715377807617,0.4547882676124573,0.3606798052787781,0.0,0.0,0.0,0.0,0.0,0.0,0.0,0.0,0.0,-0.008605565875768661,0.02879280224442482,-0.008413435891270638,0.0,0.0,0.0,0.0,0.0,0.0,0.0,0.0,0.0
1606986292419149388,277104,1606982691834577810,imu_link,0.0006000473513267934,0.005029674153774977,0.5241703987121582,0.8515983819961548,0.0,0.0,0.0,0.0,0.0,0.0,0.0,0.0,0.0,63.22715377807617,0.4547882676124573,0.3606798052787781,0.0,0.0,0.0,0.0,0.0,0.0,0.0,0.0,0.0,-0.008605565875768661,0.02879280224442482,-0.008413435891270638,0.0,0.0,0.0,0.0,0.0,0.0,0.0,0.0,0.0
1606986292419168897,277105,1606982691834674604,imu_link,0.0006001449655741453,0.005028251092880964,0.524171769618988,0.8515975475311279,0.0,0.0,0.0,0.0,0.0,0.0,0.0,0.0,0.0,63.22733688354492,0.45464298129081726,0.3606046438217163,0.0,0.0,0.0,0.0,0.0,0.0,0.0,0.0,0.0,-0.014168702065944672,0.00822325237095356,-0.001378278830088675,0.0,0.0,0.0,0.0,0.0,0.0,0.0,0.0,0.0
1606986292419179180,277106,1606982691834762427,imu_link,0.0006001449655741453,0.005028251092880964,0.524171769618988,0.8515975475311279,0.0,0.0,0.0,0.0,0.0,0.0,0.0,0.0,0.0,63.22733688354492,0.45464298129081726,0.3606046438217163,0.0,0.0,0.0,0.0,0.0,0.0,0.0,0.0,0.0,-0.014168702065944672,0.00822325237095356,-0.001378278830088675,0.0,0.0,0.0,0.0,0.0,0.0,0.0,0.0,0.0
1606986292419192688,277107,1606982691834847018,imu_link,0.0006010113866068423,0.005027196370065212,0.5241724252700806,0.8515971302986145,0.0,0.0,0.0,0.0,0.0,0.0,0.0,0.0,0.0,63.22742462158203,0.45448774099349976,0.36062613129615784,0.0,0.0,0.0,0.0,0.0,0.0,0.0,0.0,0.0,-0.015615194104611874,-0.012525556609034538,0.005375931970775127,0.0,0.0,0.0,0.0,0.0,0.0,0.0,0.0,0.0
1606986292420063783,277108,1606982691834977625,imu_link,0.0006010113866068423,0.005027196370065212,0.5241724252700806,0.8515971302986145,0.0,0.0,0.0,0.0,0.0,0.0,0.0,0.0,0.0,63.22742462158203,0.45448774099349976,0.36062613129615784,0.0,0.0,0.0,0.0,0.0,0.0,0.0,0.0,0.0,-0.015615194104611874,-0.012525556609034538,0.005375931970775127,0.0,0.0,0.0,0.0,0.0,0.0,0.0,0.0,0.0
1606986292420079231,277109,1606982691835066441,imu_link,0.0006015103426761925,0.005025075748562813,0.5241720676422119,0.8515973687171936,0.0,0.0,0.0,0.0,0.0,0.0,0.0,0.0,0.0,63.227378845214844,0.45425093173980713,0.36054727435112,0.0,0.0,0.0,0.0,0.0,0.0,0.0,0.0,0.0,-0.007284082472324371,0.00012008268822683021,-5.9461217460921034e-05,0.0,0.0,0.0,0.0,0.0,0.0,0.0,0.0,0.0
1606986292420090140,277110,1606982691835184289,imu_link,0.0006015103426761925,0.005025075748562813,0.5241720676422119,0.8515973687171936,0.0,0.0,0.0,0.0,0.0,0.0,0.0,0.0,0.0,63.227378845214844,0.45425093173980713,0.36054727435112,0.0,0.0,0.0,0.0,0.0,0.0,0.0,0.0,0.0,-0.007284082472324371,0.00012008268822683021,-5.9461217460921034e-05,0.0,0.0,0.0,0.0,0.0,0.0,0.0,0.0,0.0
1606986292420104007,277111,1606982691835258751,imu_link,0.0006017722189426422,0.005024911370128393,0.524172842502594,0.8515968918800354,0.0,0.0,0.0,0.0,0.0,0.0,0.0,0.0,0.0,63.227474212646484,0.45421892404556274,0.36056333780288696,0.0,0.0,0.0,0.0,0.0,0.0,0.0,0.0,0.0,-0.005681818816810846,0.008637767285108566,0.0023278221487998962,0.0,0.0,0.0,0.0,0.0,0.0,0.0,0.0,0.0
1606986292420125415,277112,1606982691835337143,imu_link,0.0006017722189426422,0.005024911370128393,0.524172842502594,0.8515968918800354,0.0,0.0,0.0,0.0,0.0,0.0,0.0,0.0,0.0,63.227474212646484,0.45421892404556274,0.36056333780288696,0.0,0.0,0.0,0.0,0.0,0.0,0.0,0.0,0.0,-0.005681818816810846,0.008637767285108566,0.0023278221487998962,0.0,0.0,0.0,0.0,0.0,0.0,0.0,0.0,0.0
1606986292420139810,277113,1606982691835420766,imu_link,0.0006009362987242639,0.005027620121836662,0.5241736173629761,0.8515964150428772,0.0,0.0,0.0,0.0,0.0,0.0,0.0,0.0,0.0,63.22758483886719,0.45453310012817383,0.3606448769569397,0.0,0.0,0.0,0.0,0.0,0.0,0.0,0.0,0.0,-0.02291199192404747,-0.00013384228805080056,-0.002967707347124815,0.0,0.0,0.0,0.0,0.0,0.0,0.0,0.0,0.0
1606986292431494681,277114,1606982691847283214,imu_link,0.0006009362987242639,0.005027620121836662,0.5241736173629761,0.8515964150428772,0.0,0.0,0.0,0.0,0.0,0.0,0.0,0.0,0.0,63.22758483886719,0.45453310012817383,0.3606448769569397,0.0,0.0,0.0,0.0,0.0,0.0,0.0,0.0,0.0,-0.02291199192404747,-0.00013384228805080056,-0.002967707347124815,0.0,0.0,0.0,0.0,0.0,0.0,0.0,0.0,0.0
1606986292437536720,277115,1606982691847423138,imu_link,0.0006030428339727223,0.005024605896323919,0.5241766571998596,0.8515945672988892,0.0,0.0,0.0,0.0,0.0,0.0,0.0,0.0,0.0,63.22799301147461,0.45411112904548645,0.3606710135936737,0.0,0.0,0.0,0.0,0.0,0.0,0.0,0.0,0.0,-0.02323860302567482,0.001336594927124679,0.0037548558320850134,0.0,0.0,0.0,0.0,0.0,0.0,0.0,0.0,0.0
1606986292437558340,277116,1606982691847608196,imu_link,0.0006030428339727223,0.005024605896323919,0.5241766571998596,0.8515945672988892,0.0,0.0,0.0,0.0,0.0,0.0,0.0,0.0,0.0,63.22799301147461,0.45411112904548645,0.3606710135936737,0.0,0.0,0.0,0.0,0.0,0.0,0.0,0.0,0.0,-0.02323860302567482,0.001336594927124679,0.0037548558320850134,0.0,0.0,0.0,0.0,0.0,0.0,0.0,0.0,0.0
1606986292437570857,277117,1606982691847709716,imu_link,0.0006014631362631917,0.005022858735173941,0.5241775512695312,0.8515939712524414,0.0,0.0,0.0,0.0,0.0,0.0,0.0,0.0,0.0,63.22811508178711,0.45403510332107544,0.3604124188423157,0.0,0.0,0.0,0.0,0.0,0.0,0.0,0.0,0.0,-0.004298983607441187,0.012714303098618984,0.0150167690590024,0.0,0.0,0.0,0.0,0.0,0.0,0.0,0.0,0.0
1606986292437596622,277118,1606982691847805293,imu_link,0.0006014631362631917,0.005022858735173941,0.5241775512695312,0.8515939712524414,0.0,0.0,0.0,0.0,0.0,0.0,0.0,0.0,0.0,63.22811508178711,0.45403510332107544,0.3604124188423157,0.0,0.0,0.0,0.0,0.0,0.0,0.0,0.0,0.0,-0.004298983607441187,0.012714303098618984,0.0150167690590024,0.0,0.0,0.0,0.0,0.0,0.0,0.0,0.0,0.0
1606986292437634299,277119,1606982691847910656,imu_link,0.0006004195893183351,0.005020048934966326,0.5241842269897461,0.8515899181365967,0.0,0.0,0.0,0.0,0.0,0.0,0.0,0.0,0.0,63.22901153564453,0.4538207948207855,0.36014533042907715,0.0,0.0,0.0,0.0,0.0,0.0,0.0,0.0,0.0,0.007797711994498968,0.015404068864881992,0.010948967188596725,0.0,0.0,0.0,0.0,0.0,0.0,0.0,0.0,0.0
1606986292437642013,277120,1606982691847993764,imu_link,0.0006004195893183351,0.005020048934966326,0.5241842269897461,0.8515899181365967,0.0,0.0,0.0,0.0,0.0,0.0,0.0,0.0,0.0,63.22901153564453,0.4538207948207855,0.36014533042907715,0.0,0.0,0.0,0.0,0.0,0.0,0.0,0.0,0.0,0.007797711994498968,0.015404068864881992,0.010948967188596725,0.0,0.0,0.0,0.0,0.0,0.0,0.0,0.0,0.0
1606986292437661290,277121,1606982691848070135,imu_link,0.0006016650004312396,0.005020988639444113,0.5241838693618774,0.8515901565551758,0.0,0.0,0.0,0.0,0.0,0.0,0.0,0.0,0.0,63.22895812988281,0.45383787155151367,0.36032310128211975,0.0,0.0,0.0,0.0,0.0,0.0,0.0,0.0,0.0,-0.0007866976084187627,0.005046412348747253,0.012933621183037758,0.0,0.0,0.0,0.0,0.0,0.0,0.0,0.0,0.0
1606986292437672456,277122,1606982691848146362,imu_link,0.0006016650004312396,0.005020988639444113,0.5241838693618774,0.8515901565551758,0.0,0.0,0.0,0.0,0.0,0.0,0.0,0.0,0.0,63.22895812988281,0.45383787155151367,0.36032310128211975,0.0,0.0,0.0,0.0,0.0,0.0,0.0,0.0,0.0,-0.0007866976084187627,0.005046412348747253,0.012933621183037758,0.0,0.0,0.0,0.0,0.0,0.0,0.0,0.0,0.0
1606986292438530788,277123,1606982691848266164,imu_link,0.0006008308846503496,0.005020348820835352,0.5241866111755371,0.8515884876251221,0.0,0.0,0.0,0.0,0.0,0.0,0.0,0.0,0.0,63.22932434082031,0.45382437109947205,0.36020469665527344,0.0,0.0,0.0,0.0,0.0,0.0,0.0,0.0,0.0,-0.01004720851778984,0.009716481901705265,0.02442437782883644,0.0,0.0,0.0,0.0,0.0,0.0,0.0,0.0,0.0
1606986292445140239,277124,1606982691861034985,imu_link,0.0006008308846503496,0.005020348820835352,0.5241866111755371,0.8515884876251221,0.0,0.0,0.0,0.0,0.0,0.0,0.0,0.0,0.0,63.22932434082031,0.45382437109947205,0.36020469665527344,0.0,0.0,0.0,0.0,0.0,0.0,0.0,0.0,0.0,-0.01004720851778984,0.009716481901705265,0.02442437782883644,0.0,0.0,0.0,0.0,0.0,0.0,0.0,0.0,0.0
1606986292446230308,277125,1606982691861241794,imu_link,0.0006008308846503496,0.005020348820835352,0.5241866111755371,0.8515884876251221,0.0,0.0,0.0,0.0,0.0,0.0,0.0,0.0,0.0,63.22932434082031,0.45382437109947205,0.36020469665527344,0.0,0.0,0.0,0.0,0.0,0.0,0.0,0.0,0.0,0.0043455553241074085,0.0051139662973582745,0.013116918504238129,0.0,0.0,0.0,0.0,0.0,0.0,0.0,0.0,0.0
1606986292446252232,277126,1606982691861413210,imu_link,0.0006008308846503496,0.005020348820835352,0.5241866111755371,0.8515884876251221,0.0,0.0,0.0,0.0,0.0,0.0,0.0,0.0,0.0,63.22932434082031,0.45382437109947205,0.36020469665527344,0.0,0.0,0.0,0.0,0.0,0.0,0.0,0.0,0.0,0.0043455553241074085,0.0051139662973582745,0.013116918504238129,0.0,0.0,0.0,0.0,0.0,0.0,0.0,0.0,0.0
1606986292446277126,277127,1606982691861556452,imu_link,0.0005984978633932769,0.005020673852413893,0.5241891145706177,0.8515869379043579,0.0,0.0,0.0,0.0,0.0,0.0,0.0,0.0,0.0,63.22966003417969,0.4539951682090759,0.35999786853790283,0.0,0.0,0.0,0.0,0.0,0.0,0.0,0.0,0.0,-0.0025433527771383524,-0.0021967999637126923,0.0015949505614116788,0.0,0.0,0.0,0.0,0.0,0.0,0.0,0.0,0.0
1606986292446289408,277128,1606982691861653371,imu_link,0.0005984978633932769,0.005020673852413893,0.5241891145706177,0.8515869379043579,0.0,0.0,0.0,0.0,0.0,0.0,0.0,0.0,0.0,63.22966003417969,0.4539951682090759,0.35999786853790283,0.0,0.0,0.0,0.0,0.0,0.0,0.0,0.0,0.0,-0.0025433527771383524,-0.0021967999637126923,0.0015949505614116788,0.0,0.0,0.0,0.0,0.0,0.0,0.0,0.0,0.0
1606986292446321495,277129,1606982691861731096,imu_link,0.0005997944390401244,0.00502097187563777,0.5241894721984863,0.8515866994857788,0.0,0.0,0.0,0.0,0.0,0.0,0.0,0.0,0.0,63.229713439941406,0.45394620299339294,0.3601425290107727,0.0,0.0,0.0,0.0,0.0,0.0,0.0,0.0,0.0,-0.005311585497111082,0.00396270165219903,-0.0037426422350108624,0.0,0.0,0.0,0.0,0.0,0.0,0.0,0.0,0.0
1606986292446342818,277130,1606982691861831864,imu_link,0.0005997944390401244,0.00502097187563777,0.5241894721984863,0.8515866994857788,0.0,0.0,0.0,0.0,0.0,0.0,0.0,0.0,0.0,63.229713439941406,0.45394620299339294,0.3601425290107727,0.0,0.0,0.0,0.0,0.0,0.0,0.0,0.0,0.0,-0.005311585497111082,0.00396270165219903,-0.0037426422350108624,0.0,0.0,0.0,0.0,0.0,0.0,0.0,0.0,0.0
1606986292446367326,277131,1606982691861907645,imu_link,0.0005997840780764818,0.005018217023462057,0.5241931676864624,0.8515844345092773,0.0,0.0,0.0,0.0,0.0,0.0,0.0,0.0,0.0,63.23020553588867,0.4536764621734619,0.35997799038887024,0.0,0.0,0.0,0.0,0.0,0.0,0.0,0.0,0.0,0.009723846800625324,0.009880412369966507,-0.01593991369009018,0.0,0.0,0.0,0.0,0.0,0.0,0.0,0.0,0.0
1606986292449307671,277132,1606982691861989690,imu_link,0.0005997840780764818,0.005018217023462057,0.5241931676864624,0.8515844345092773,0.0,0.0,0.0,0.0,0.0,0.0,0.0,0.0,0.0,63.23020553588867,0.4536764621734619,0.35997799038887024,0.0,0.0,0.0,0.0,0.0,0.0,0.0,0.0,0.0,0.009723846800625324,0.009880412369966507,-0.01593991369009018,0.0,0.0,0.0,0.0,0.0,0.0,0.0,0.0,0.0
1606986292449328661,277133,1606982691862067835,imu_link,0.0005986602045595646,0.005017871968448162,0.5241934657096863,0.851584255695343,0.0,0.0,0.0,0.0,0.0,0.0,0.0,0.0,0.0,63.230247497558594,0.4537101686000824,0.3598477840423584,0.0,0.0,0.0,0.0,0.0,0.0,0.0,0.0,0.0,0.003263107966631651,0.013751357793807983,0.00029521252145059407,0.0,0.0,0.0,0.0,0.0,0.0,0.0,0.0,0.0
1606986292449338610,277134,1606982691862141491,imu_link,0.0005986602045595646,0.005017871968448162,0.5241934657096863,0.851584255695343,0.0,0.0,0.0,0.0,0.0,0.0,0.0,0.0,0.0,63.230247497558594,0.4537101686000824,0.3598477840423584,0.0,0.0,0.0,0.0,0.0,0.0,0.0,0.0,0.0,0.003263107966631651,0.013751357793807983,0.00029521252145059407,0.0,0.0,0.0,0.0,0.0,0.0,0.0,0.0,0.0
1606986292458810718,277135,1606982691874582969,imu_link,0.0005950626800768077,0.005017452407628298,0.5241973400115967,0.851581871509552,0.0,0.0,0.0,0.0,0.0,0.0,0.0,0.0,0.0,63.23076629638672,0.45388370752334595,0.3594735264778137,0.0,0.0,0.0,0.0,0.0,0.0,0.0,0.0,0.0,-0.012544471770524979,0.007887795567512512,0.042726706713438034,0.0,0.0,0.0,0.0,0.0,0.0,0.0,0.0,0.0
1606986292459247438,277136,1606982691874729784,imu_link,0.0005950626800768077,0.005017452407628298,0.5241973400115967,0.851581871509552,0.0,0.0,0.0,0.0,0.0,0.0,0.0,0.0,0.0,63.23076629638672,0.45388370752334595,0.3594735264778137,0.0,0.0,0.0,0.0,0.0,0.0,0.0,0.0,0.0,-0.012544471770524979,0.007887795567512512,0.042726706713438034,0.0,0.0,0.0,0.0,0.0,0.0,0.0,0.0,0.0
1606986292459262506,277137,1606982691874894696,imu_link,0.0005969699122942984,0.005017118528485298,0.5241966247558594,0.8515822887420654,0.0,0.0,0.0,0.0,0.0,0.0,0.0,0.0,0.0,63.23067092895508,0.4537368714809418,0.3596392571926117,0.0,0.0,0.0,0.0,0.0,0.0,0.0,0.0,0.0,-0.0018489174544811249,0.01559626217931509,0.051868222653865814,0.0,0.0,0.0,0.0,0.0,0.0,0.0,0.0,0.0
1606986292459268316,277138,1606982691875009451,imu_link,0.0005969699122942984,0.005017118528485298,0.5241966247558594,0.8515822887420654,0.0,0.0,0.0,0.0,0.0,0.0,0.0,0.0,0.0,63.23067092895508,0.4537368714809418,0.3596392571926117,0.0,0.0,0.0,0.0,0.0,0.0,0.0,0.0,0.0,-0.0018489174544811249,0.01559626217931509,0.051868222653865814,0.0,0.0,0.0,0.0,0.0,0.0,0.0,0.0,0.0
1606986292459278258,277139,1606982691875090734,imu_link,0.0005954272346571088,0.00501434039324522,0.5241966843605042,0.8515822887420654,0.0,0.0,0.0,0.0,0.0,0.0,0.0,0.0,0.0,63.23067855834961,0.4535583555698395,0.35932183265686035,0.0,0.0,0.0,0.0,0.0,0.0,0.0,0.0,0.0,0.02025924064218998,0.020643489435315132,-0.0058134980499744415,0.0,0.0,0.0,0.0,0.0,0.0,0.0,0.0,0.0
1606986292460907443,277140,1606982691875169366,imu_link,0.0005954272346571088,0.00501434039324522,0.5241966843605042,0.8515822887420654,0.0,0.0,0.0,0.0,0.0,0.0,0.0,0.0,0.0,63.23067855834961,0.4535583555698395,0.35932183265686035,0.0,0.0,0.0,0.0,0.0,0.0,0.0,0.0,0.0,0.02025924064218998,0.020643489435315132,-0.0058134980499744415,0.0,0.0,0.0,0.0,0.0,0.0,0.0,0.0,0.0
1606986292460925705,277141,1606982691875276915,imu_link,0.0005967015749774873,0.005014331080019474,0.5241972208023071,0.8515819907188416,0.0,0.0,0.0,0.0,0.0,0.0,0.0,0.0,0.0,63.23074722290039,0.45348072052001953,0.3594458997249603,0.0,0.0,0.0,0.0,0.0,0.0,0.0,0.0,0.0,0.014063337817788124,0.003217733930796385,-0.02568991482257843,0.0,0.0,0.0,0.0,0.0,0.0,0.0,0.0,0.0
1606986292460947597,277142,1606982691875351292,imu_link,0.0005967015749774873,0.005014331080019474,0.5241972208023071,0.8515819907188416,0.0,0.0,0.0,0.0,0.0,0.0,0.0,0.0,0.0,63.23074722290039,0.45348072052001953,0.3594458997249603,0.0,0.0,0.0,0.0,0.0,0.0,0.0,0.0,0.0,0.014063337817788124,0.003217733930796385,-0.02568991482257843,0.0,0.0,0.0,0.0,0.0,0.0,0.0,0.0,0.0
1606986292460970695,277143,1606982691875429002,imu_link,0.0005970173515379429,0.00501457042992115,0.5241979360580444,0.8515815734863281,0.0,0.0,0.0,0.0,0.0,0.0,0.0,0.0,0.0,63.23084259033203,0.45348483324050903,0.3594914674758911,0.0,0.0,0.0,0.0,0.0,0.0,0.0,0.0,0.0,-0.008975010365247726,0.006947092711925507,-0.003701579524204135,0.0,0.0,0.0,0.0,0.0,0.0,0.0,0.0,0.0
1606986292460982572,277144,1606982691875516640,imu_link,0.0005970173515379429,0.00501457042992115,0.5241979360580444,0.8515815734863281,0.0,0.0,0.0,0.0,0.0,0.0,0.0,0.0,0.0,63.23084259033203,0.45348483324050903,0.3594914674758911,0.0,0.0,0.0,0.0,0.0,0.0,0.0,0.0,0.0,-0.008975010365247726,0.006947092711925507,-0.003701579524204135,0.0,0.0,0.0,0.0,0.0,0.0,0.0,0.0,0.0
1606986292461003775,277145,1606982691875603461,imu_link,0.0005948642501607537,0.00501405680552125,0.5241965651512146,0.851582407951355,0.0,0.0,0.0,0.0,0.0,0.0,0.0,0.0,0.0,63.230655670166016,0.4535646140575409,0.3592497706413269,0.0,0.0,0.0,0.0,0.0,0.0,0.0,0.0,0.0,-0.0073364670388400555,0.00555884325876832,-0.012057390064001083,0.0,0.0,0.0,0.0,0.0,0.0,0.0,0.0,0.0
1606986292475200790,277146,1606982691888450984,imu_link,0.0005948642501607537,0.00501405680552125,0.5241965651512146,0.851582407951355,0.0,0.0,0.0,0.0,0.0,0.0,0.0,0.0,0.0,63.230655670166016,0.4535646140575409,0.3592497706413269,0.0,0.0,0.0,0.0,0.0,0.0,0.0,0.0,0.0,-0.0073364670388400555,0.00555884325876832,-0.012057390064001083,0.0,0.0,0.0,0.0,0.0,0.0,0.0,0.0,0.0
1606986292475221586,277147,1606982691888591509,imu_link,0.0005948325851932168,0.005015215836465359,0.524188220500946,0.8515875339508057,0.0,0.0,0.0,0.0,0.0,0.0,0.0,0.0,0.0,63.22953796386719,0.45368316769599915,0.3593118488788605,0.0,0.0,0.0,0.0,0.0,0.0,0.0,0.0,0.0,0.013041102327406406,-0.002907558111473918,-0.01969972439110279,0.0,0.0,0.0,0.0,0.0,0.0,0.0,0.0,0.0
1606986292475230298,277148,1606982691888753975,imu_link,0.0005948325851932168,0.005015215836465359,0.524188220500946,0.8515875339508057,0.0,0.0,0.0,0.0,0.0,0.0,0.0,0.0,0.0,63.22953796386719,0.45368316769599915,0.3593118488788605,0.0,0.0,0.0,0.0,0.0,0.0,0.0,0.0,0.0,0.013041102327406406,-0.002907558111473918,-0.01969972439110279,0.0,0.0,0.0,0.0,0.0,0.0,0.0,0.0,0.0
1606986292475238754,277149,1606982691888840400,imu_link,0.0005934325163252652,0.005017557647079229,0.5241871476173401,0.8515881896018982,0.0,0.0,0.0,0.0,0.0,0.0,0.0,0.0,0.0,63.229393005371094,0.4539961814880371,0.35931530594825745,0.0,0.0,0.0,0.0,0.0,0.0,0.0,0.0,0.0,0.007541360333561897,-0.004752060864120722,0.0002640911261551082,0.0,0.0,0.0,0.0,0.0,0.0,0.0,0.0,0.0
1606986292475247673,277150,1606982691888919498,imu_link,0.0005934325163252652,0.005017557647079229,0.5241871476173401,0.8515881896018982,0.0,0.0,0.0,0.0,0.0,0.0,0.0,0.0,0.0,63.229393005371094,0.4539961814880371,0.35931530594825745,0.0,0.0,0.0,0.0,0.0,0.0,0.0,0.0,0.0,0.007541360333561897,-0.004752060864120722,0.0002640911261551082,0.0,0.0,0.0,0.0,0.0,0.0,0.0,0.0,0.0
1606986292476818153,277151,1606982691889020116,imu_link,0.0005927843740209937,0.005018925294280052,0.5241761803627014,0.851594865322113,0.0,0.0,0.0,0.0,0.0,0.0,0.0,0.0,0.0,63.2279167175293,0.4541732370853424,0.35932838916778564,0.0,0.0,0.0,0.0,0.0,0.0,0.0,0.0,0.0,-0.009865104220807552,0.0024995007552206516,-0.001326087978668511,0.0,0.0,0.0,0.0,0.0,0.0,0.0,0.0,0.0
1606986292476839658,277152,1606982691889106456,imu_link,0.0005927843740209937,0.005018925294280052,0.5241761803627014,0.851594865322113,0.0,0.0,0.0,0.0,0.0,0.0,0.0,0.0,0.0,63.2279167175293,0.4541732370853424,0.35932838916778564,0.0,0.0,0.0,0.0,0.0,0.0,0.0,0.0,0.0,-0.009865104220807552,0.0024995007552206516,-0.001326087978668511,0.0,0.0,0.0,0.0,0.0,0.0,0.0,0.0,0.0
1606986292476855721,277153,1606982691889183860,imu_link,0.0005911645712330937,0.005018545314669609,0.5241762399673462,0.851594865322113,0.0,0.0,0.0,0.0,0.0,0.0,0.0,0.0,0.0,63.22792434692383,0.45423343777656555,0.3591475486755371,0.0,0.0,0.0,0.0,0.0,0.0,0.0,0.0,0.0,-0.0068661803379654884,0.006006523501127958,-0.017791280522942543,0.0,0.0,0.0,0.0,0.0,0.0,0.0,0.0,0.0
1606986292476870162,277154,1606982691889294666,imu_link,0.0005911645712330937,0.005018545314669609,0.5241762399673462,0.851594865322113,0.0,0.0,0.0,0.0,0.0,0.0,0.0,0.0,0.0,63.22792434692383,0.45423343777656555,0.3591475486755371,0.0,0.0,0.0,0.0,0.0,0.0,0.0,0.0,0.0,-0.0068661803379654884,0.006006523501127958,-0.017791280522942543,0.0,0.0,0.0,0.0,0.0,0.0,0.0,0.0,0.0
1606986292476882545,277155,1606982691889384830,imu_link,0.0005891431355848908,0.005014647264033556,0.5241765975952148,0.8515946269035339,0.0,0.0,0.0,0.0,0.0,0.0,0.0,0.0,0.0,63.22797393798828,0.45397424697875977,0.35871627926826477,0.0,0.0,0.0,0.0,0.0,0.0,0.0,0.0,0.0,-0.0025063541252166033,-0.001714956946671009,-0.0016085158567875624,0.0,0.0,0.0,0.0,0.0,0.0,0.0,0.0,0.0
1606986292476893110,277156,1606982691889469341,imu_link,0.0005891431355848908,0.005014647264033556,0.5241765975952148,0.8515946269035339,0.0,0.0,0.0,0.0,0.0,0.0,0.0,0.0,0.0,63.22797393798828,0.45397424697875977,0.35871627926826477,0.0,0.0,0.0,0.0,0.0,0.0,0.0,0.0,0.0,-0.0025063541252166033,-0.001714956946671009,-0.0016085158567875624,0.0,0.0,0.0,0.0,0.0,0.0,0.0,0.0,0.0
1606986292486121659,277157,1606982691901279493,imu_link,0.0005896079819649458,0.00501323863863945,0.5241764187812805,0.8515948057174683,0.0,0.0,0.0,0.0,0.0,0.0,0.0,0.0,0.0,63.22794723510742,0.45380899310112,0.3586769104003906,0.0,0.0,0.0,0.0,0.0,0.0,0.0,0.0,0.0,0.0011842898093163967,-0.0007132099708542228,0.013817078433930874,0.0,0.0,0.0,0.0,0.0,0.0,0.0,0.0,0.0
1606986292486151583,277158,1606982691901420529,imu_link,0.0005896079819649458,0.00501323863863945,0.5241764187812805,0.8515948057174683,0.0,0.0,0.0,0.0,0.0,0.0,0.0,0.0,0.0,63.22794723510742,0.45380899310112,0.3586769104003906,0.0,0.0,0.0,0.0,0.0,0.0,0.0,0.0,0.0,0.0011842898093163967,-0.0007132099708542228,0.013817078433930874,0.0,0.0,0.0,0.0,0.0,0.0,0.0,0.0,0.0
1606986292486167591,277159,1606982691901613837,imu_link,0.0005902193370275199,0.005015744362026453,0.524177074432373,0.8515943884849548,0.0,0.0,0.0,0.0,0.0,0.0,0.0,0.0,0.0,63.22803497314453,0.4540165364742279,0.3588874936103821,0.0,0.0,0.0,0.0,0.0,0.0,0.0,0.0,0.0,-0.010007170028984547,0.007029960863292217,0.008670944720506668,0.0,0.0,0.0,0.0,0.0,0.0,0.0,0.0,0.0
1606986292486190177,277160,1606982691901699330,imu_link,0.0005902193370275199,0.005015744362026453,0.524177074432373,0.8515943884849548,0.0,0.0,0.0,0.0,0.0,0.0,0.0,0.0,0.0,63.22803497314453,0.4540165364742279,0.3588874936103821,0.0,0.0,0.0,0.0,0.0,0.0,0.0,0.0,0.0,-0.010007170028984547,0.007029960863292217,0.008670944720506668,0.0,0.0,0.0,0.0,0.0,0.0,0.0,0.0,0.0
1606986292486199213,277161,1606982691901778964,imu_link,0.0005892023327760398,0.005015760660171509,0.5241776704788208,0.8515940308570862,0.0,0.0,0.0,0.0,0.0,0.0,0.0,0.0,0.0,63.22811508178711,0.45407894253730774,0.3587895333766937,0.0,0.0,0.0,0.0,0.0,0.0,0.0,0.0,0.0,-0.006379157770425081,0.01171779539436102,-0.01088002510368824,0.0,0.0,0.0,0.0,0.0,0.0,0.0,0.0,0.0
1606986292489277464,277162,1606982691901897213,imu_link,0.0005892023327760398,0.005015760660171509,0.5241776704788208,0.8515940308570862,0.0,0.0,0.0,0.0,0.0,0.0,0.0,0.0,0.0,63.22811508178711,0.45407894253730774,0.3587895333766937,0.0,0.0,0.0,0.0,0.0,0.0,0.0,0.0,0.0,-0.006379157770425081,0.01171779539436102,-0.01088002510368824,0.0,0.0,0.0,0.0,0.0,0.0,0.0,0.0,0.0
1606986292489345895,277163,1606982691901980631,imu_link,0.0005871376488357782,0.005013647023588419,0.5241758823394775,0.8515950441360474,0.0,0.0,0.0,0.0,0.0,0.0,0.0,0.0,0.0,63.22787857055664,0.4539974331855774,0.3584601879119873,0.0,0.0,0.0,0.0,0.0,0.0,0.0,0.0,0.0,0.010847950354218483,0.01784992776811123,-0.009151889942586422,0.0,0.0,0.0,0.0,0.0,0.0,0.0,0.0,0.0
1606986292489356449,277164,1606982691902057859,imu_link,0.0005871376488357782,0.005013647023588419,0.5241758823394775,0.8515950441360474,0.0,0.0,0.0,0.0,0.0,0.0,0.0,0.0,0.0,63.22787857055664,0.4539974331855774,0.3584601879119873,0.0,0.0,0.0,0.0,0.0,0.0,0.0,0.0,0.0,0.010847950354218483,0.01784992776811123,-0.009151889942586422,0.0,0.0,0.0,0.0,0.0,0.0,0.0,0.0,0.0
1606986292489364322,277165,1606982691902170460,imu_link,0.0005859764060005546,0.005015028640627861,0.5241759419441223,0.8515951037406921,0.0,0.0,0.0,0.0,0.0,0.0,0.0,0.0,0.0,63.22787857055664,0.45420199632644653,0.35842975974082947,0.0,0.0,0.0,0.0,0.0,0.0,0.0,0.0,0.0,-0.00013782060705125332,0.02344704046845436,-0.01056433841586113,0.0,0.0,0.0,0.0,0.0,0.0,0.0,0.0,0.0
1606986292489372588,277166,1606982691902257952,imu_link,0.0005859764060005546,0.005015028640627861,0.5241759419441223,0.8515951037406921,0.0,0.0,0.0,0.0,0.0,0.0,0.0,0.0,0.0,63.22787857055664,0.45420199632644653,0.35842975974082947,0.0,0.0,0.0,0.0,0.0,0.0,0.0,0.0,0.0,-0.00013782060705125332,0.02344704046845436,-0.01056433841586113,0.0,0.0,0.0,0.0,0.0,0.0,0.0,0.0,0.0
1606986292498751904,277167,1606982691914651194,imu_link,0.0005809396971017122,0.005013513378798962,0.5241726040840149,0.8515971899032593,0.0,0.0,0.0,0.0,0.0,0.0,0.0,0.0,0.0,63.22742462158203,0.4543580710887909,0.3578454852104187,0.0,0.0,0.0,0.0,0.0,0.0,0.0,0.0,0.0,-0.006456166040152311,0.016128145158290863,-0.0030808141455054283,0.0,0.0,0.0,0.0,0.0,0.0,0.0,0.0,0.0
1606986292500492180,277168,1606982691914784267,imu_link,0.0005809396971017122,0.005013513378798962,0.5241726040840149,0.8515971899032593,0.0,0.0,0.0,0.0,0.0,0.0,0.0,0.0,0.0,63.22742462158203,0.4543580710887909,0.3578454852104187,0.0,0.0,0.0,0.0,0.0,0.0,0.0,0.0,0.0,-0.006456166040152311,0.016128145158290863,-0.0030808141455054283,0.0,0.0,0.0,0.0,0.0,0.0,0.0,0.0,0.0
1606986292500511729,277169,1606982691914984430,imu_link,0.0005805135588161647,0.005013159941881895,0.5241720676422119,0.8515973687171936,0.0,0.0,0.0,0.0,0.0,0.0,0.0,0.0,0.0,63.22736358642578,0.4543493390083313,0.3577824532985687,0.0,0.0,0.0,0.0,0.0,0.0,0.0,0.0,0.0,0.004072589334100485,4.443868238013238e-05,0.019988669082522392,0.0,0.0,0.0,0.0,0.0,0.0,0.0,0.0,0.0
1606986292500521748,277170,1606982691915067212,imu_link,0.0005805135588161647,0.005013159941881895,0.5241720676422119,0.8515973687171936,0.0,0.0,0.0,0.0,0.0,0.0,0.0,0.0,0.0,63.22736358642578,0.4543493390083313,0.3577824532985687,0.0,0.0,0.0,0.0,0.0,0.0,0.0,0.0,0.0,0.004072589334100485,4.443868238013238e-05,0.019988669082522392,0.0,0.0,0.0,0.0,0.0,0.0,0.0,0.0,0.0
1606986292500536200,277171,1606982691915141830,imu_link,0.0005806832341477275,0.0050147040747106075,0.5241634249687195,0.8516027927398682,0.0,0.0,0.0,0.0,0.0,0.0,0.0,0.0,0.0,63.2261962890625,0.45449352264404297,0.3578871488571167,0.0,0.0,0.0,0.0,0.0,0.0,0.0,0.0,0.0,0.0060527087189257145,-0.003493131138384342,0.016723744571208954,0.0,0.0,0.0,0.0,0.0,0.0,0.0,0.0,0.0
1606986292500562552,277172,1606982691915233051,imu_link,0.0005806832341477275,0.0050147040747106075,0.5241634249687195,0.8516027927398682,0.0,0.0,0.0,0.0,0.0,0.0,0.0,0.0,0.0,63.2261962890625,0.45449352264404297,0.3578871488571167,0.0,0.0,0.0,0.0,0.0,0.0,0.0,0.0,0.0,0.0060527087189257145,-0.003493131138384342,0.016723744571208954,0.0,0.0,0.0,0.0,0.0,0.0,0.0,0.0,0.0
1606986292500572854,277173,1606982691915330802,imu_link,0.0005797363701276481,0.005012595094740391,0.5241618156433105,0.8516037464141846,0.0,0.0,0.0,0.0,0.0,0.0,0.0,0.0,0.0,63.22597885131836,0.4543452858924866,0.35766714811325073,0.0,0.0,0.0,0.0,0.0,0.0,0.0,0.0,0.0,-0.006818806286901236,0.005864251870661974,0.019632307812571526,0.0,0.0,0.0,0.0,0.0,0.0,0.0,0.0,0.0
1606986292500630850,277174,1606982691915409995,imu_link,0.0005797363701276481,0.005012595094740391,0.5241618156433105,0.8516037464141846,0.0,0.0,0.0,0.0,0.0,0.0,0.0,0.0,0.0,63.22597885131836,0.4543452858924866,0.35766714811325073,0.0,0.0,0.0,0.0,0.0,0.0,0.0,0.0,0.0,-0.006818806286901236,0.005864251870661974,0.019632307812571526,0.0,0.0,0.0,0.0,0.0,0.0,0.0,0.0,0.0
1606986292500653532,277175,1606982691915488306,imu_link,0.0005779218045063317,0.0050070928409695625,0.5241519808769226,0.8516098260879517,0.0,0.0,0.0,0.0,0.0,0.0,0.0,0.0,0.0,63.22465515136719,0.45392143726348877,0.35715433955192566,0.0,0.0,0.0,0.0,0.0,0.0,0.0,0.0,0.0,-0.012128148227930069,0.00427478039637208,0.015997087582945824,0.0,0.0,0.0,0.0,0.0,0.0,0.0,0.0,0.0
1606986292500663840,277176,1606982691915576160,imu_link,0.0005779218045063317,0.0050070928409695625,0.5241519808769226,0.8516098260879517,0.0,0.0,0.0,0.0,0.0,0.0,0.0,0.0,0.0,63.22465515136719,0.45392143726348877,0.35715433955192566,0.0,0.0,0.0,0.0,0.0,0.0,0.0,0.0,0.0,-0.012128148227930069,0.00427478039637208,0.015997087582945824,0.0,0.0,0.0,0.0,0.0,0.0,0.0,0.0,0.0
1606986292500674866,277177,1606982691915660605,imu_link,0.0005789166316390038,0.005005480255931616,0.5241490602493286,0.8516116738319397,0.0,0.0,0.0,0.0,0.0,0.0,0.0,0.0,0.0,63.22425842285156,0.4537055790424347,0.3571529686450958,0.0,0.0,0.0,0.0,0.0,0.0,0.0,0.0,0.0,-0.01808290369808674,3.2569550967309624e-05,0.011224021203815937,0.0,0.0,0.0,0.0,0.0,0.0,0.0,0.0,0.0
1606986292513335234,277178,1606982691928573855,imu_link,0.0005789166316390038,0.005005480255931616,0.5241490602493286,0.8516116738319397,0.0,0.0,0.0,0.0,0.0,0.0,0.0,0.0,0.0,63.22425842285156,0.4537055790424347,0.3571529686450958,0.0,0.0,0.0,0.0,0.0,0.0,0.0,0.0,0.0,-0.01808290369808674,3.2569550967309624e-05,0.011224021203815937,0.0,0.0,0.0,0.0,0.0,0.0,0.0,0.0,0.0
1606986292513357478,277179,1606982691928716275,imu_link,0.0005804453976452351,0.005003482569009066,0.5241521000862122,0.8516098260879517,0.0,0.0,0.0,0.0,0.0,0.0,0.0,0.0,0.0,63.22465896606445,0.4534175395965576,0.3571837544441223,0.0,0.0,0.0,0.0,0.0,0.0,0.0,0.0,0.0,-0.006412946153432131,-0.002455177018418908,0.013067751191556454,0.0,0.0,0.0,0.0,0.0,0.0,0.0,0.0,0.0
1606986292513367447,277180,1606982691928909362,imu_link,0.0005804453976452351,0.005003482569009066,0.5241521000862122,0.8516098260879517,0.0,0.0,0.0,0.0,0.0,0.0,0.0,0.0,0.0,63.22465896606445,0.4534175395965576,0.3571837544441223,0.0,0.0,0.0,0.0,0.0,0.0,0.0,0.0,0.0,-0.006412946153432131,-0.002455177018418908,0.013067751191556454,0.0,0.0,0.0,0.0,0.0,0.0,0.0,0.0,0.0
1606986292513375151,277181,1606982691928996564,imu_link,0.0005792182637378573,0.005004291422665119,0.5241518616676331,0.8516099452972412,0.0,0.0,0.0,0.0,0.0,0.0,0.0,0.0,0.0,63.224632263183594,0.45357027649879456,0.35711243748664856,0.0,0.0,0.0,0.0,0.0,0.0,0.0,0.0,0.0,0.011897106654942036,0.01258309930562973,0.010401797480881214,0.0,0.0,0.0,0.0,0.0,0.0,0.0,0.0,0.0
1606986292513384544,277182,1606982691929071367,imu_link,0.0005792182637378573,0.005004291422665119,0.5241518616676331,0.8516099452972412,0.0,0.0,0.0,0.0,0.0,0.0,0.0,0.0,0.0,63.224632263183594,0.45357027649879456,0.35711243748664856,0.0,0.0,0.0,0.0,0.0,0.0,0.0,0.0,0.0,0.011897106654942036,0.01258309930562973,0.010401797480881214,0.0,0.0,0.0,0.0,0.0,0.0,0.0,0.0,0.0
1606986292513914158,277183,1606982691929168091,imu_link,0.0005741910426877439,0.005007064435631037,0.5241539478302002,0.8516086935997009,0.0,0.0,0.0,0.0,0.0,0.0,0.0,0.0,0.0,63.22491455078125,0.4541419744491577,0.3567895293235779,0.0,0.0,0.0,0.0,0.0,0.0,0.0,0.0,0.0,0.006509472616016865,0.017371632158756256,0.003480779007077217,0.0,0.0,0.0,0.0,0.0,0.0,0.0,0.0,0.0
1606986292513930448,277184,1606982691929267741,imu_link,0.0005741910426877439,0.005007064435631037,0.5241539478302002,0.8516086935997009,0.0,0.0,0.0,0.0,0.0,0.0,0.0,0.0,0.0,63.22491455078125,0.4541419744491577,0.3567895293235779,0.0,0.0,0.0,0.0,0.0,0.0,0.0,0.0,0.0,0.006509472616016865,0.017371632158756256,0.003480779007077217,0.0,0.0,0.0,0.0,0.0,0.0,0.0,0.0,0.0
1606986292513944448,277185,1606982691929345486,imu_link,0.0005729722906835377,0.005006863735616207,0.524153470993042,0.8516089916229248,0.0,0.0,0.0,0.0,0.0,0.0,0.0,0.0,0.0,63.22484588623047,0.4541957676410675,0.3566582500934601,0.0,0.0,0.0,0.0,0.0,0.0,0.0,0.0,0.0,-0.006442503537982702,0.0076692174188792706,-0.012024164199829102,0.0,0.0,0.0,0.0,0.0,0.0,0.0,0.0,0.0
1606986292513971427,277186,1606982691929432688,imu_link,0.0005729722906835377,0.005006863735616207,0.524153470993042,0.8516089916229248,0.0,0.0,0.0,0.0,0.0,0.0,0.0,0.0,0.0,63.22484588623047,0.4541957676410675,0.3566582500934601,0.0,0.0,0.0,0.0,0.0,0.0,0.0,0.0,0.0,-0.006442503537982702,0.0076692174188792706,-0.012024164199829102,0.0,0.0,0.0,0.0,0.0,0.0,0.0,0.0,0.0
1606986292547290800,277187,1606982691929516181,imu_link,0.0005731606506742537,0.00500501599162817,0.5241561532020569,0.8516073226928711,0.0,0.0,0.0,0.0,0.0,0.0,0.0,0.0,0.0,63.2252082824707,0.4540030360221863,0.3565670847892761,0.0,0.0,0.0,0.0,0.0,0.0,0.0,0.0,0.0,-0.002159352879971266,-0.004861785564571619,-0.03392603248357773,0.0,0.0,0.0,0.0,0.0,0.0,0.0,0.0,0.0
1606986292547320162,277188,1606982691929598306,imu_link,0.0005731606506742537,0.00500501599162817,0.5241561532020569,0.8516073226928711,0.0,0.0,0.0,0.0,0.0,0.0,0.0,0.0,0.0,63.2252082824707,0.4540030360221863,0.3565670847892761,0.0,0.0,0.0,0.0,0.0,0.0,0.0,0.0,0.0,-0.002159352879971266,-0.004861785564571619,-0.03392603248357773,0.0,0.0,0.0,0.0,0.0,0.0,0.0,0.0,0.0
1606986292547333927,277189,1606982691942004468,imu_link,0.000575183832552284,0.005003162659704685,0.5241559147834778,0.8516074419021606,0.0,0.0,0.0,0.0,0.0,0.0,0.0,0.0,0.0,63.22517776489258,0.4537007212638855,0.3566531240940094,0.0,0.0,0.0,0.0,0.0,0.0,0.0,0.0,0.0,-0.0059928023256361485,-0.002481937175616622,-0.028883071616292,0.0,0.0,0.0,0.0,0.0,0.0,0.0,0.0,0.0
1606986292547384668,277190,1606982691942145810,imu_link,0.000575183832552284,0.005003162659704685,0.5241559147834778,0.8516074419021606,0.0,0.0,0.0,0.0,0.0,0.0,0.0,0.0,0.0,63.22517776489258,0.4537007212638855,0.3566531240940094,0.0,0.0,0.0,0.0,0.0,0.0,0.0,0.0,0.0,-0.0059928023256361485,-0.002481937175616622,-0.028883071616292,0.0,0.0,0.0,0.0,0.0,0.0,0.0,0.0,0.0
1606986292547438802,277191,1606982691942300187,imu_link,0.0005776647594757378,0.005000582430511713,0.5241584777832031,0.8516058921813965,0.0,0.0,0.0,0.0,0.0,0.0,0.0,0.0,0.0,63.225521087646484,0.4532988667488098,0.3567415773868561,0.0,0.0,0.0,0.0,0.0,0.0,0.0,0.0,0.0,-0.02217111364006996,-0.0036001685075461864,0.0002036932564806193,0.0,0.0,0.0,0.0,0.0,0.0,0.0,0.0,0.0
1606986292547476290,277192,1606982691942383244,imu_link,0.0005776647594757378,0.005000582430511713,0.5241584777832031,0.8516058921813965,0.0,0.0,0.0,0.0,0.0,0.0,0.0,0.0,0.0,63.225521087646484,0.4532988667488098,0.3567415773868561,0.0,0.0,0.0,0.0,0.0,0.0,0.0,0.0,0.0,-0.02217111364006996,-0.0036001685075461864,0.0002036932564806193,0.0,0.0,0.0,0.0,0.0,0.0,0.0,0.0,0.0
1606986292547492006,277193,1606982691942477969,imu_link,0.0005772584117949009,0.00500075425952673,0.5241590142250061,0.8516055941581726,0.0,0.0,0.0,0.0,0.0,0.0,0.0,0.0,0.0,63.225589752197266,0.4533398449420929,0.3567125201225281,0.0,0.0,0.0,0.0,0.0,0.0,0.0,0.0,0.0,-0.02068282850086689,-0.024052267894148827,-0.0019299369305372238,0.0,0.0,0.0,0.0,0.0,0.0,0.0,0.0,0.0
1606986292547513763,277194,1606982691942555799,imu_link,0.0005772584117949009,0.00500075425952673,0.5241590142250061,0.8516055941581726,0.0,0.0,0.0,0.0,0.0,0.0,0.0,0.0,0.0,63.225589752197266,0.4533398449420929,0.3567125201225281,0.0,0.0,0.0,0.0,0.0,0.0,0.0,0.0,0.0,-0.02068282850086689,-0.024052267894148827,-0.0019299369305372238,0.0,0.0,0.0,0.0,0.0,0.0,0.0,0.0,0.0
1606986292547527437,277195,1606982691942698865,imu_link,0.0005837683565914631,0.004999958910048008,0.5241568684577942,0.8516069054603577,0.0,0.0,0.0,0.0,0.0,0.0,0.0,0.0,0.0,63.225303649902344,0.45287203788757324,0.357298880815506,0.0,0.0,0.0,0.0,0.0,0.0,0.0,0.0,0.0,-0.007272220682352781,-0.012985802255570889,-0.02425733022391796,0.0,0.0,0.0,0.0,0.0,0.0,0.0,0.0,0.0
1606986292547535663,277196,1606982691942791073,imu_link,0.0005837683565914631,0.004999958910048008,0.5241568684577942,0.8516069054603577,0.0,0.0,0.0,0.0,0.0,0.0,0.0,0.0,0.0,63.225303649902344,0.45287203788757324,0.357298880815506,0.0,0.0,0.0,0.0,0.0,0.0,0.0,0.0,0.0,-0.007272220682352781,-0.012985802255570889,-0.02425733022391796,0.0,0.0,0.0,0.0,0.0,0.0,0.0,0.0,0.0
1606986292547544699,277197,1606982691942879904,imu_link,0.0005836027557961643,0.004997456446290016,0.5241552591323853,0.8516079187393188,0.0,0.0,0.0,0.0,0.0,0.0,0.0,0.0,0.0,63.22508239746094,0.4526384770870209,0.35713157057762146,0.0,0.0,0.0,0.0,0.0,0.0,0.0,0.0,0.0,-0.010985379107296467,0.007422350812703371,-0.01499300729483366,0.0,0.0,0.0,0.0,0.0,0.0,0.0,0.0,0.0
1606986292547590302,277198,1606982691942990670,imu_link,0.0005836027557961643,0.004997456446290016,0.5241552591323853,0.8516079187393188,0.0,0.0,0.0,0.0,0.0,0.0,0.0,0.0,0.0,63.22508239746094,0.4526384770870209,0.35713157057762146,0.0,0.0,0.0,0.0,0.0,0.0,0.0,0.0,0.0,-0.010985379107296467,0.007422350812703371,-0.01499300729483366,0.0,0.0,0.0,0.0,0.0,0.0,0.0,0.0,0.0
1606986292547607900,277199,1606982691943079345,imu_link,0.0005823782412335277,0.004994083661586046,0.5241538286209106,0.8516088128089905,0.0,0.0,0.0,0.0,0.0,0.0,0.0,0.0,0.0,63.224884033203125,0.45238345861434937,0.35680869221687317,0.0,0.0,0.0,0.0,0.0,0.0,0.0,0.0,0.0,-0.012624325230717659,0.018532030284404755,0.01744689792394638,0.0,0.0,0.0,0.0,0.0,0.0,0.0,0.0,0.0
