%time,field.header.seq,field.header.stamp,field.header.frame_id,field.orientation.x,field.orientation.y,field.orientation.z,field.orientation.w,field.orientation_covariance0,field.orientation_covariance1,field.orientation_covariance2,field.orientation_covariance3,field.orientation_covariance4,field.orientation_covariance5,field.orientation_covariance6,field.orientation_covariance7,field.orientation_covariance8,field.angular_velocity.x,field.angular_velocity.y,field.angular_velocity.z,field.angular_velocity_covariance0,field.angular_velocity_covariance1,field.angular_velocity_covariance2,field.angular_velocity_covariance3,field.angular_velocity_covariance4,field.angular_velocity_covariance5,field.angular_velocity_covariance6,field.angular_velocity_covariance7,field.angular_velocity_covariance8,field.linear_acceleration.x,field.linear_acceleration.y,field.linear_acceleration.z,field.linear_acceleration_covariance0,field.linear_acceleration_covariance1,field.linear_acceleration_covariance2,field.linear_acceleration_covariance3,field.linear_acceleration_covariance4,field.linear_acceleration_covariance5,field.linear_acceleration_covariance6,field.linear_acceleration_covariance7,field.linear_acceleration_covariance8
1606987567153716391,1296702,1606983966343362298,imu_link,-0.0014858489157631993,-0.004724984522908926,0.30695605278015137,-0.9517108201980591,0.0,0.0,0.0,0.0,0.0,0.0,0.0,0.0,0.0,-35.75223922729492,0.5675708651542664,-0.004155759699642658,0.0,0.0,0.0,0.0,0.0,0.0,0.0,0.0,0.0,0.011670254170894623,-0.01001022383570671,0.03144367039203644,0.0,0.0,0.0,0.0,0.0,0.0,0.0,0.0,0.0
1606987567153763271,1296703,1606983966343711256,imu_link,-0.001489102840423584,-0.004724481608718634,0.3069567084312439,-0.95171058177948,0.0,0.0,0.0,0.0,0.0,0.0,0.0,0.0,0.0,-35.752315521240234,0.567630410194397,-0.00378357688896358,0.0,0.0,0.0,0.0,0.0,0.0,0.0,0.0,0.0,0.004975470714271069,-0.01805141754448414,0.01734192669391632,0.0,0.0,0.0,0.0,0.0,0.0,0.0,0.0,0.0
1606987567153779689,1296704,1606983966343799310,imu_link,-0.001489102840423584,-0.004724481608718634,0.3069567084312439,-0.95171058177948,0.0,0.0,0.0,0.0,0.0,0.0,0.0,0.0,0.0,-35.752315521240234,0.567630410194397,-0.00378357688896358,0.0,0.0,0.0,0.0,0.0,0.0,0.0,0.0,0.0,0.004975470714271069,-0.01805141754448414,0.01734192669391632,0.0,0.0,0.0,0.0,0.0,0.0,0.0,0.0,0.0
1606987567153803693,1296705,1606983966343876649,imu_link,-0.0014889282174408436,-0.004726166371256113,0.3069573938846588,-0.9517103433609009,0.0,0.0,0.0,0.0,0.0,0.0,0.0,0.0,0.0,-35.75239944458008,0.5678080320358276,-0.003862314624711871,0.0,0.0,0.0,0.0,0.0,0.0,0.0,0.0,0.0,-0.013766017742455006,-0.012319697998464108,0.011260663159191608,0.0,0.0,0.0,0.0,0.0,0.0,0.0,0.0,0.0
1606987567160193657,1296706,1606983966343953276,imu_link,-0.0014889282174408436,-0.004726166371256113,0.3069573938846588,-0.9517103433609009,0.0,0.0,0.0,0.0,0.0,0.0,0.0,0.0,0.0,-35.75239944458008,0.5678080320358276,-0.003862314624711871,0.0,0.0,0.0,0.0,0.0,0.0,0.0,0.0,0.0,-0.013766017742455006,-0.012319697998464108,0.011260663159191608,0.0,0.0,0.0,0.0,0.0,0.0,0.0,0.0,0.0
1606987567160231288,1296707,1606983966344032359,imu_link,-0.0014913587365299463,-0.004724173806607723,0.30695992708206177,-0.9517095685005188,0.0,0.0,0.0,0.0,0.0,0.0,0.0,0.0,0.0,-35.75270080566406,0.5676761865615845,-0.0035286324564367533,0.0,0.0,0.0,0.0,0.0,0.0,0.0,0.0,0.0,-0.007886020466685295,-0.00015677895862609148,0.016170401126146317,0.0,0.0,0.0,0.0,0.0,0.0,0.0,0.0,0.0
1606987567160249734,1296708,1606983966355609332,imu_link,-0.0014913587365299463,-0.004724173806607723,0.30695992708206177,-0.9517095685005188,0.0,0.0,0.0,0.0,0.0,0.0,0.0,0.0,0.0,-35.75270080566406,0.5676761865615845,-0.0035286324564367533,0.0,0.0,0.0,0.0,0.0,0.0,0.0,0.0,0.0,-0.007886020466685295,-0.00015677895862609148,0.016170401126146317,0.0,0.0,0.0,0.0,0.0,0.0,0.0,0.0,0.0
1606987567160274893,1296709,1606983966355747727,imu_link,-0.0014919558307155967,-0.004723310936242342,0.30695927143096924,-0.9517098069190979,0.0,0.0,0.0,0.0,0.0,0.0,0.0,0.0,0.0,-35.75262451171875,0.5676031112670898,-0.003432778175920248,0.0,0.0,0.0,0.0,0.0,0.0,0.0,0.0,0.0,0.006262063514441252,-0.0011048440355807543,0.017606627196073532,0.0,0.0,0.0,0.0,0.0,0.0,0.0,0.0,0.0
1606987567284438179,1296710,1606983966355935100,imu_link,-0.0014919558307155967,-0.004723310936242342,0.30695927143096924,-0.9517098069190979,0.0,0.0,0.0,0.0,0.0,0.0,0.0,0.0,0.0,-35.75262451171875,0.5676031112670898,-0.003432778175920248,0.0,0.0,0.0,0.0,0.0,0.0,0.0,0.0,0.0,0.006262063514441252,-0.0011048440355807543,0.017606627196073532,0.0,0.0,0.0,0.0,0.0,0.0,0.0,0.0,0.0
1606987567284458843,1296711,1606983966356032381,imu_link,-0.0014926389558240771,-0.004722582176327705,0.30696046352386475,-0.9517093896865845,0.0,0.0,0.0,0.0,0.0,0.0,0.0,0.0,0.0,-35.75276565551758,0.5675476789474487,-0.0033333355095237494,0.0,0.0,0.0,0.0,0.0,0.0,0.0,0.0,0.0,0.02178901806473732,0.003663849551230669,0.04694075882434845,0.0,0.0,0.0,0.0,0.0,0.0,0.0,0.0,0.0
1606987567284467607,1296712,1606983966356110276,imu_link,-0.0014926389558240771,-0.004722582176327705,0.30696046352386475,-0.9517093896865845,0.0,0.0,0.0,0.0,0.0,0.0,0.0,0.0,0.0,-35.75276565551758,0.5675476789474487,-0.0033333355095237494,0.0,0.0,0.0,0.0,0.0,0.0,0.0,0.0,0.0,0.02178901806473732,0.003663849551230669,0.04694075882434845,0.0,0.0,0.0,0.0,0.0,0.0,0.0,0.0,0.0
1606987567284479323,1296713,1606983966356222626,imu_link,-0.0014919644454494119,-0.004721761215478182,0.306962788105011,-0.9517086744308472,0.0,0.0,0.0,0.0,0.0,0.0,0.0,0.0,0.0,-35.753047943115234,0.5674344301223755,-0.003379414789378643,0.0,0.0,0.0,0.0,0.0,0.0,0.0,0.0,0.0,0.013404224067926407,0.014040160924196243,0.055039308965206146,0.0,0.0,0.0,0.0,0.0,0.0,0.0,0.0,0.0
1606987567284504354,1296714,1606983966356304801,imu_link,-0.0014919644454494119,-0.004721761215478182,0.306962788105011,-0.9517086744308472,0.0,0.0,0.0,0.0,0.0,0.0,0.0,0.0,0.0,-35.753047943115234,0.5674344301223755,-0.003379414789378643,0.0,0.0,0.0,0.0,0.0,0.0,0.0,0.0,0.0,0.013404224067926407,0.014040160924196243,0.055039308965206146,0.0,0.0,0.0,0.0,0.0,0.0,0.0,0.0,0.0
1606987567332842047,1296715,1606983966356385087,imu_link,-0.0014903299743309617,-0.004724912811070681,0.3069618344306946,-0.951708972454071,0.0,0.0,0.0,0.0,0.0,0.0,0.0,0.0,0.0,-35.752933502197266,0.5677206516265869,-0.003667964367195964,0.0,0.0,0.0,0.0,0.0,0.0,0.0,0.0,0.0,-0.003837413853034377,-0.0012821698328480124,0.01951603963971138,0.0,0.0,0.0,0.0,0.0,0.0,0.0,0.0,0.0
1606987567332866461,1296716,1606983966356462331,imu_link,-0.0014903299743309617,-0.004724912811070681,0.3069618344306946,-0.951708972454071,0.0,0.0,0.0,0.0,0.0,0.0,0.0,0.0,0.0,-35.752933502197266,0.5677206516265869,-0.003667964367195964,0.0,0.0,0.0,0.0,0.0,0.0,0.0,0.0,0.0,-0.003837413853034377,-0.0012821698328480124,0.01951603963971138,0.0,0.0,0.0,0.0,0.0,0.0,0.0,0.0,0.0
1606987567332876104,1296717,1606983966356570235,imu_link,-0.0014915913343429565,-0.004725353792309761,0.30696192383766174,-0.951708972454071,0.0,0.0,0.0,0.0,0.0,0.0,0.0,0.0,0.0,-35.7529411315918,0.5678130984306335,-0.003545961808413267,0.0,0.0,0.0,0.0,0.0,0.0,0.0,0.0,0.0,0.0034607802517712116,-0.006039303261786699,0.020764963701367378,0.0,0.0,0.0,0.0,0.0,0.0,0.0,0.0,0.0
1606987567332884112,1296718,1606983966369378703,imu_link,-0.0014915913343429565,-0.004725353792309761,0.30696192383766174,-0.951708972454071,0.0,0.0,0.0,0.0,0.0,0.0,0.0,0.0,0.0,-35.7529411315918,0.5678130984306335,-0.003545961808413267,0.0,0.0,0.0,0.0,0.0,0.0,0.0,0.0,0.0,0.0034607802517712116,-0.006039303261786699,0.020764963701367378,0.0,0.0,0.0,0.0,0.0,0.0,0.0,0.0,0.0
1606987567376384876,1296719,1606983966369514908,imu_link,-0.0014930092729628086,-0.004727203398942947,0.30696114897727966,-0.9517092108726501,0.0,0.0,0.0,0.0,0.0,0.0,0.0,0.0,0.0,-35.75284957885742,0.5680647492408752,-0.0034559115301817656,0.0,0.0,0.0,0.0,0.0,0.0,0.0,0.0,0.0,0.0077665382996201515,0.007554760668426752,0.049181707203388214,0.0,0.0,0.0,0.0,0.0,0.0,0.0,0.0,0.0
1606987567376417037,1296720,1606983966369696919,imu_link,-0.0014930092729628086,-0.004727203398942947,0.30696114897727966,-0.9517092108726501,0.0,0.0,0.0,0.0,0.0,0.0,0.0,0.0,0.0,-35.75284957885742,0.5680647492408752,-0.0034559115301817656,0.0,0.0,0.0,0.0,0.0,0.0,0.0,0.0,0.0,0.0077665382996201515,0.007554760668426752,0.049181707203388214,0.0,0.0,0.0,0.0,0.0,0.0,0.0,0.0,0.0
1606987567376436679,1296721,1606983966369800113,imu_link,-0.001492854324169457,-0.004725657403469086,0.30696097016334534,-0.9517092704772949,0.0,0.0,0.0,0.0,0.0,0.0,0.0,0.0,0.0,-35.75282287597656,0.5678906440734863,-0.003418330103158951,0.0,0.0,0.0,0.0,0.0,0.0,0.0,0.0,0.0,0.0042479936964809895,0.0029070009477436543,0.04701591283082962,0.0,0.0,0.0,0.0,0.0,0.0,0.0,0.0,0.0
1606987567376515120,1296722,1606983966369889736,imu_link,-0.001492854324169457,-0.004725657403469086,0.30696097016334534,-0.9517092704772949,0.0,0.0,0.0,0.0,0.0,0.0,0.0,0.0,0.0,-35.75282287597656,0.5678906440734863,-0.003418330103158951,0.0,0.0,0.0,0.0,0.0,0.0,0.0,0.0,0.0,0.0042479936964809895,0.0029070009477436543,0.04701591283082962,0.0,0.0,0.0,0.0,0.0,0.0,0.0,0.0,0.0
1606987567376531187,1296723,1606983966369976161,imu_link,-0.001492703682743013,-0.00472658034414053,0.3069612979888916,-0.9517091512680054,0.0,0.0,0.0,0.0,0.0,0.0,0.0,0.0,0.0,-35.752864837646484,0.567986011505127,-0.003467424539849162,0.0,0.0,0.0,0.0,0.0,0.0,0.0,0.0,0.0,0.013421213254332542,0.005181074608117342,0.04036705195903778,0.0,0.0,0.0,0.0,0.0,0.0,0.0,0.0,0.0
1606987567394644887,1296724,1606983966370084311,imu_link,-0.001492703682743013,-0.00472658034414053,0.3069612979888916,-0.9517091512680054,0.0,0.0,0.0,0.0,0.0,0.0,0.0,0.0,0.0,-35.752864837646484,0.567986011505127,-0.003467424539849162,0.0,0.0,0.0,0.0,0.0,0.0,0.0,0.0,0.0,0.013421213254332542,0.005181074608117342,0.04036705195903778,0.0,0.0,0.0,0.0,0.0,0.0,0.0,0.0,0.0
1606987567394672835,1296725,1606983966370169709,imu_link,-0.0014909707242622972,-0.004726785235106945,0.3069618344306946,-0.951708972454071,0.0,0.0,0.0,0.0,0.0,0.0,0.0,0.0,0.0,-35.752933502197266,0.5679473876953125,-0.0036639622412621975,0.0,0.0,0.0,0.0,0.0,0.0,0.0,0.0,0.0,0.022330958396196365,0.0029058849904686213,0.06139037385582924,0.0,0.0,0.0,0.0,0.0,0.0,0.0,0.0,0.0
1606987567394682311,1296726,1606983966370246942,imu_link,-0.0014909707242622972,-0.004726785235106945,0.3069618344306946,-0.951708972454071,0.0,0.0,0.0,0.0,0.0,0.0,0.0,0.0,0.0,-35.752933502197266,0.5679473876953125,-0.0036639622412621975,0.0,0.0,0.0,0.0,0.0,0.0,0.0,0.0,0.0,0.022330958396196365,0.0029058849904686213,0.06139037385582924,0.0,0.0,0.0,0.0,0.0,0.0,0.0,0.0,0.0
1606987567641883891,1296727,1606983966370331278,imu_link,-0.0014917633961886168,-0.004730988759547472,0.3069612681865692,-0.9517091512680054,0.0,0.0,0.0,0.0,0.0,0.0,0.0,0.0,0.0,-35.75286102294922,0.5684337019920349,-0.0037250234745442867,0.0,0.0,0.0,0.0,0.0,0.0,0.0,0.0,0.0,0.02164675109088421,-0.0037364375311881304,0.04203806445002556,0.0,0.0,0.0,0.0,0.0,0.0,0.0,0.0,0.0
1606987567641928071,1296728,1606983966370416054,imu_link,-0.0014917633961886168,-0.004730988759547472,0.3069612681865692,-0.9517091512680054,0.0,0.0,0.0,0.0,0.0,0.0,0.0,0.0,0.0,-35.75286102294922,0.5684337019920349,-0.0037250234745442867,0.0,0.0,0.0,0.0,0.0,0.0,0.0,0.0,0.0,0.02164675109088421,-0.0037364375311881304,0.04203806445002556,0.0,0.0,0.0,0.0,0.0,0.0,0.0,0.0,0.0
1606987567641938477,1296729,1606983966382863847,imu_link,-0.0014917633961886168,-0.004730988759547472,0.3069612681865692,-0.9517091512680054,0.0,0.0,0.0,0.0,0.0,0.0,0.0,0.0,0.0,-35.75286102294922,0.5684337019920349,-0.0037250234745442867,0.0,0.0,0.0,0.0,0.0,0.0,0.0,0.0,0.0,0.028483495116233826,-0.003289937973022461,0.019953839480876923,0.0,0.0,0.0,0.0,0.0,0.0,0.0,0.0,0.0
1606987567641952262,1296730,1606983966383051541,imu_link,-0.0014917633961886168,-0.004730988759547472,0.3069612681865692,-0.9517091512680054,0.0,0.0,0.0,0.0,0.0,0.0,0.0,0.0,0.0,-35.75286102294922,0.5684337019920349,-0.0037250234745442867,0.0,0.0,0.0,0.0,0.0,0.0,0.0,0.0,0.0,0.028483495116233826,-0.003289937973022461,0.019953839480876923,0.0,0.0,0.0,0.0,0.0,0.0,0.0,0.0,0.0
1606987567646538679,1296731,1606983966383204540,imu_link,-0.0014936589868739247,-0.004734141286462545,0.306961327791214,-0.9517090916633606,0.0,0.0,0.0,0.0,0.0,0.0,0.0,0.0,0.0,-35.752872467041016,0.568844199180603,-0.003629223210737109,0.0,0.0,0.0,0.0,0.0,0.0,0.0,0.0,0.0,0.03220212087035179,-0.009155248291790485,0.019561422988772392,0.0,0.0,0.0,0.0,0.0,0.0,0.0,0.0,0.0
1606987567646579794,1296732,1606983966383304943,imu_link,-0.0014936589868739247,-0.004734141286462545,0.306961327791214,-0.9517090916633606,0.0,0.0,0.0,0.0,0.0,0.0,0.0,0.0,0.0,-35.752872467041016,0.568844199180603,-0.003629223210737109,0.0,0.0,0.0,0.0,0.0,0.0,0.0,0.0,0.0,0.03220212087035179,-0.009155248291790485,0.019561422988772392,0.0,0.0,0.0,0.0,0.0,0.0,0.0,0.0,0.0
1606987567646594268,1296733,1606983966383391207,imu_link,-0.0014950362965464592,-0.004734908230602741,0.3069610297679901,-0.9517091512680054,0.0,0.0,0.0,0.0,0.0,0.0,0.0,0.0,0.0,-35.75283432006836,0.5689762830734253,-0.003505820408463478,0.0,0.0,0.0,0.0,0.0,0.0,0.0,0.0,0.0,0.014981497079133987,-0.0019513897132128477,0.023305969312787056,0.0,0.0,0.0,0.0,0.0,0.0,0.0,0.0,0.0
1606987567646603165,1296734,1606983966383476615,imu_link,-0.0014950362965464592,-0.004734908230602741,0.3069610297679901,-0.9517091512680054,0.0,0.0,0.0,0.0,0.0,0.0,0.0,0.0,0.0,-35.75283432006836,0.5689762830734253,-0.003505820408463478,0.0,0.0,0.0,0.0,0.0,0.0,0.0,0.0,0.0,0.014981497079133987,-0.0019513897132128477,0.023305969312787056,0.0,0.0,0.0,0.0,0.0,0.0,0.0,0.0,0.0
1606987567687727006,1296735,1606983966383590103,imu_link,-0.0014950527111068368,-0.004736241884529591,0.3069613575935364,-0.9517090320587158,0.0,0.0,0.0,0.0,0.0,0.0,0.0,0.0,0.0,-35.75287628173828,0.5691222548484802,-0.003551139496266842,0.0,0.0,0.0,0.0,0.0,0.0,0.0,0.0,0.0,-0.005705174989998341,0.011799833737313747,0.034951359033584595,0.0,0.0,0.0,0.0,0.0,0.0,0.0,0.0,0.0
1606987567687764360,1296736,1606983966383671025,imu_link,-0.0014950527111068368,-0.004736241884529591,0.3069613575935364,-0.9517090320587158,0.0,0.0,0.0,0.0,0.0,0.0,0.0,0.0,0.0,-35.75287628173828,0.5691222548484802,-0.003551139496266842,0.0,0.0,0.0,0.0,0.0,0.0,0.0,0.0,0.0,-0.005705174989998341,0.011799833737313747,0.034951359033584595,0.0,0.0,0.0,0.0,0.0,0.0,0.0,0.0,0.0
1606987567687783025,1296737,1606983966383748243,imu_link,-0.0014941004337742925,-0.004734777379781008,0.3069595694541931,-0.9517096281051636,0.0,0.0,0.0,0.0,0.0,0.0,0.0,0.0,0.0,-35.752662658691406,0.5689290761947632,-0.003602408105507493,0.0,0.0,0.0,0.0,0.0,0.0,0.0,0.0,0.0,-0.0016418973682448268,0.015650996938347816,0.04477715864777565,0.0,0.0,0.0,0.0,0.0,0.0,0.0,0.0,0.0
1606987567687805737,1296738,1606983966383831080,imu_link,-0.0014941004337742925,-0.004734777379781008,0.3069595694541931,-0.9517096281051636,0.0,0.0,0.0,0.0,0.0,0.0,0.0,0.0,0.0,-35.752662658691406,0.5689290761947632,-0.003602408105507493,0.0,0.0,0.0,0.0,0.0,0.0,0.0,0.0,0.0,-0.0016418973682448268,0.015650996938347816,0.04477715864777565,0.0,0.0,0.0,0.0,0.0,0.0,0.0,0.0,0.0
1606987567687825420,1296739,1606983966383916137,imu_link,-0.0014922176487743855,-0.00473862374201417,0.30695897340774536,-0.9517098069190979,0.0,0.0,0.0,0.0,0.0,0.0,0.0,0.0,0.0,-35.75259017944336,0.5692823529243469,-0.00394270708784461,0.0,0.0,0.0,0.0,0.0,0.0,0.0,0.0,0.0,0.008648974820971489,0.008272157050669193,0.05707899481058121,0.0,0.0,0.0,0.0,0.0,0.0,0.0,0.0,0.0
1606987567695355017,1296740,1606983966396688351,imu_link,-0.0014922176487743855,-0.00473862374201417,0.30695897340774536,-0.9517098069190979,0.0,0.0,0.0,0.0,0.0,0.0,0.0,0.0,0.0,-35.75259017944336,0.5692823529243469,-0.00394270708784461,0.0,0.0,0.0,0.0,0.0,0.0,0.0,0.0,0.0,0.008648974820971489,0.008272157050669193,0.05707899481058121,0.0,0.0,0.0,0.0,0.0,0.0,0.0,0.0,0.0
1606987567695386936,1296741,1606983966396823894,imu_link,-0.0014910843456164002,-0.004738107323646545,0.3069557249546051,-0.9517108201980591,0.0,0.0,0.0,0.0,0.0,0.0,0.0,0.0,0.0,-35.75220489501953,0.5691861510276794,-0.004046205896884203,0.0,0.0,0.0,0.0,0.0,0.0,0.0,0.0,0.0,0.0031752383802086115,0.009492490440607071,0.04981265589594841,0.0,0.0,0.0,0.0,0.0,0.0,0.0,0.0,0.0
1606987567695400301,1296742,1606983966397016335,imu_link,-0.0014910843456164002,-0.004738107323646545,0.3069557249546051,-0.9517108201980591,0.0,0.0,0.0,0.0,0.0,0.0,0.0,0.0,0.0,-35.75220489501953,0.5691861510276794,-0.004046205896884203,0.0,0.0,0.0,0.0,0.0,0.0,0.0,0.0,0.0,0.0031752383802086115,0.009492490440607071,0.04981265589594841,0.0,0.0,0.0,0.0,0.0,0.0,0.0,0.0,0.0
1606987567788818996,1296743,1606983966397113475,imu_link,-0.0014891846803948283,-0.004738061223179102,0.306955486536026,-0.9517109394073486,0.0,0.0,0.0,0.0,0.0,0.0,0.0,0.0,0.0,-35.75217056274414,0.5691143274307251,-0.004251628182828426,0.0,0.0,0.0,0.0,0.0,0.0,0.0,0.0,0.0,-0.00043472088873386383,0.009325366467237473,0.02219519391655922,0.0,0.0,0.0,0.0,0.0,0.0,0.0,0.0,0.0
1606987567788871606,1296744,1606983966397192001,imu_link,-0.0014891846803948283,-0.004738061223179102,0.306955486536026,-0.9517109394073486,0.0,0.0,0.0,0.0,0.0,0.0,0.0,0.0,0.0,-35.75217056274414,0.5691143274307251,-0.004251628182828426,0.0,0.0,0.0,0.0,0.0,0.0,0.0,0.0,0.0,-0.00043472088873386383,0.009325366467237473,0.02219519391655922,0.0,0.0,0.0,0.0,0.0,0.0,0.0,0.0,0.0
1606987567788902672,1296745,1606983966397291802,imu_link,-0.001491449773311615,-0.004737460054457188,0.30695438385009766,-0.9517112970352173,0.0,0.0,0.0,0.0,0.0,0.0,0.0,0.0,0.0,-35.75204086303711,0.5691283941268921,-0.003982783295214176,0.0,0.0,0.0,0.0,0.0,0.0,0.0,0.0,0.0,0.009301215410232544,0.0011440507369115949,0.022115807980298996,0.0,0.0,0.0,0.0,0.0,0.0,0.0,0.0,0.0
1606987567788937122,1296746,1606983966397375115,imu_link,-0.001491449773311615,-0.004737460054457188,0.30695438385009766,-0.9517112970352173,0.0,0.0,0.0,0.0,0.0,0.0,0.0,0.0,0.0,-35.75204086303711,0.5691283941268921,-0.003982783295214176,0.0,0.0,0.0,0.0,0.0,0.0,0.0,0.0,0.0,0.009301215410232544,0.0011440507369115949,0.022115807980298996,0.0,0.0,0.0,0.0,0.0,0.0,0.0,0.0,0.0
1606987567796685684,1296747,1606983966397454875,imu_link,-0.001492141280323267,-0.004738943185657263,0.3069554567337036,-0.9517109394073486,0.0,0.0,0.0,0.0,0.0,0.0,0.0,0.0,0.0,-35.752166748046875,0.5693145394325256,-0.003960170317441225,0.0,0.0,0.0,0.0,0.0,0.0,0.0,0.0,0.0,0.003423217684030533,-0.007216252386569977,0.052173469215631485,0.0,0.0,0.0,0.0,0.0,0.0,0.0,0.0,0.0
1606987567796718870,1296748,1606983966397536048,imu_link,-0.001492141280323267,-0.004738943185657263,0.3069554567337036,-0.9517109394073486,0.0,0.0,0.0,0.0,0.0,0.0,0.0,0.0,0.0,-35.752166748046875,0.5693145394325256,-0.003960170317441225,0.0,0.0,0.0,0.0,0.0,0.0,0.0,0.0,0.0,0.003423217684030533,-0.007216252386569977,0.052173469215631485,0.0,0.0,0.0,0.0,0.0,0.0,0.0,0.0,0.0
1606987567796734520,1296749,1606983966397619506,imu_link,-0.001492117764428258,-0.004741313401609659,0.3069557547569275,-0.9517108201980591,0.0,0.0,0.0,0.0,0.0,0.0,0.0,0.0,0.0,-35.75220489501953,0.5695722103118896,-0.004046299494802952,0.0,0.0,0.0,0.0,0.0,0.0,0.0,0.0,0.0,-0.0015517206629738212,0.005569246131926775,0.059747062623500824,0.0,0.0,0.0,0.0,0.0,0.0,0.0,0.0,0.0
1606987567796752670,1296750,1606983966397704974,imu_link,-0.001492117764428258,-0.004741313401609659,0.3069557547569275,-0.9517108201980591,0.0,0.0,0.0,0.0,0.0,0.0,0.0,0.0,0.0,-35.75220489501953,0.5695722103118896,-0.004046299494802952,0.0,0.0,0.0,0.0,0.0,0.0,0.0,0.0,0.0,-0.0015517206629738212,0.005569246131926775,0.059747062623500824,0.0,0.0,0.0,0.0,0.0,0.0,0.0,0.0,0.0
1606987567814930943,1296751,1606983966409596559,imu_link,-0.0014915355714038014,-0.004740577656775713,0.30695363879203796,-0.9517114758491516,0.0,0.0,0.0,0.0,0.0,0.0,0.0,0.0,0.0,-35.751953125,0.5694714784622192,-0.004082640167325735,0.0,0.0,0.0,0.0,0.0,0.0,0.0,0.0,0.0,0.0021952753886580467,0.01100027747452259,0.05986766889691353,0.0,0.0,0.0,0.0,0.0,0.0,0.0,0.0,0.0
1606987567814983027,1296752,1606983966409733591,imu_link,-0.0014915355714038014,-0.004740577656775713,0.30695363879203796,-0.9517114758491516,0.0,0.0,0.0,0.0,0.0,0.0,0.0,0.0,0.0,-35.751953125,0.5694714784622192,-0.004082640167325735,0.0,0.0,0.0,0.0,0.0,0.0,0.0,0.0,0.0,0.0021952753886580467,0.01100027747452259,0.05986766889691353,0.0,0.0,0.0,0.0,0.0,0.0,0.0,0.0,0.0
1606987567814999374,1296753,1606983966409891537,imu_link,-0.0014899090165272355,-0.004740212112665176,0.3069513142108917,-0.9517122507095337,0.0,0.0,0.0,0.0,0.0,0.0,0.0,0.0,0.0,-35.751670837402344,0.5693744421005249,-0.004245785530656576,0.0,0.0,0.0,0.0,0.0,0.0,0.0,0.0,0.0,-0.0077232676558196545,0.007624840829521418,0.046627551317214966,0.0,0.0,0.0,0.0,0.0,0.0,0.0,0.0,0.0
1606987567815021152,1296754,1606983966409996680,imu_link,-0.0014899090165272355,-0.004740212112665176,0.3069513142108917,-0.9517122507095337,0.0,0.0,0.0,0.0,0.0,0.0,0.0,0.0,0.0,-35.751670837402344,0.5693744421005249,-0.004245785530656576,0.0,0.0,0.0,0.0,0.0,0.0,0.0,0.0,0.0,-0.0077232676558196545,0.007624840829521418,0.046627551317214966,0.0,0.0,0.0,0.0,0.0,0.0,0.0,0.0,0.0
1606987567815114054,1296755,1606983966410088327,imu_link,-0.001486556720919907,-0.004739891272038221,0.3069530427455902,-0.9517117142677307,0.0,0.0,0.0,0.0,0.0,0.0,0.0,0.0,0.0,-35.75188064575195,0.5692214369773865,-0.004601146560162306,0.0,0.0,0.0,0.0,0.0,0.0,0.0,0.0,0.0,-0.0008639604784548283,0.02087852545082569,0.021009298041462898,0.0,0.0,0.0,0.0,0.0,0.0,0.0,0.0,0.0
1606987567823355174,1296756,1606983966410194092,imu_link,-0.001486556720919907,-0.004739891272038221,0.3069530427455902,-0.9517117142677307,0.0,0.0,0.0,0.0,0.0,0.0,0.0,0.0,0.0,-35.75188064575195,0.5692214369773865,-0.004601146560162306,0.0,0.0,0.0,0.0,0.0,0.0,0.0,0.0,0.0,-0.0008639604784548283,0.02087852545082569,0.021009298041462898,0.0,0.0,0.0,0.0,0.0,0.0,0.0,0.0,0.0
1606987567823406348,1296757,1606983966410278437,imu_link,-0.0014880549861118197,-0.004739321302622557,0.3069511353969574,-0.9517123103141785,0.0,0.0,0.0,0.0,0.0,0.0,0.0,0.0,0.0,-35.751651763916016,0.5692119598388672,-0.0044165486469864845,0.0,0.0,0.0,0.0,0.0,0.0,0.0,0.0,0.0,0.002853929763659835,0.0052803452126681805,0.011217819526791573,0.0,0.0,0.0,0.0,0.0,0.0,0.0,0.0,0.0
1606987567823424842,1296758,1606983966410356398,imu_link,-0.0014880549861118197,-0.004739321302622557,0.3069511353969574,-0.9517123103141785,0.0,0.0,0.0,0.0,0.0,0.0,0.0,0.0,0.0,-35.751651763916016,0.5692119598388672,-0.0044165486469864845,0.0,0.0,0.0,0.0,0.0,0.0,0.0,0.0,0.0,0.002853929763659835,0.0052803452126681805,0.011217819526791573,0.0,0.0,0.0,0.0,0.0,0.0,0.0,0.0,0.0
1606987567823492056,1296759,1606983966410432975,imu_link,-0.001487454050220549,-0.004739762283861637,0.306951105594635,-0.9517123699188232,0.0,0.0,0.0,0.0,0.0,0.0,0.0,0.0,0.0,-35.75164794921875,0.5692389607429504,-0.004497567657381296,0.0,0.0,0.0,0.0,0.0,0.0,0.0,0.0,0.0,0.0037025208584964275,-0.014784853905439377,0.016984207555651665,0.0,0.0,0.0,0.0,0.0,0.0,0.0,0.0,0.0
1606987567950363949,1296760,1606983966410515366,imu_link,-0.001487454050220549,-0.004739762283861637,0.306951105594635,-0.9517123699188232,0.0,0.0,0.0,0.0,0.0,0.0,0.0,0.0,0.0,-35.75164794921875,0.5692389607429504,-0.004497567657381296,0.0,0.0,0.0,0.0,0.0,0.0,0.0,0.0,0.0,0.0037025208584964275,-0.014784853905439377,0.016984207555651665,0.0,0.0,0.0,0.0,0.0,0.0,0.0,0.0,0.0
1606987567950425910,1296761,1606983966422914045,imu_link,-0.0014850456500425935,-0.0047378456220030785,0.3069508969783783,-0.951712429523468,0.0,0.0,0.0,0.0,0.0,0.0,0.0,0.0,0.0,-35.75162124633789,0.5689452886581421,-0.004692704416811466,0.0,0.0,0.0,0.0,0.0,0.0,0.0,0.0,0.0,0.00909007340669632,-0.0010075364261865616,0.02539336495101452,0.0,0.0,0.0,0.0,0.0,0.0,0.0,0.0,0.0
1606987567950446021,1296762,1606983966423096502,imu_link,-0.0014850456500425935,-0.0047378456220030785,0.3069508969783783,-0.951712429523468,0.0,0.0,0.0,0.0,0.0,0.0,0.0,0.0,0.0,-35.75162124633789,0.5689452886581421,-0.004692704416811466,0.0,0.0,0.0,0.0,0.0,0.0,0.0,0.0,0.0,0.00909007340669632,-0.0010075364261865616,0.02539336495101452,0.0,0.0,0.0,0.0,0.0,0.0,0.0,0.0,0.0
1606987567950472055,1296763,1606983966423184090,imu_link,-0.0014859304064884782,-0.004738155286759138,0.30695170164108276,-0.9517121315002441,0.0,0.0,0.0,0.0,0.0,0.0,0.0,0.0,0.0,-35.7517204284668,0.5690101385116577,-0.004607602953910828,0.0,0.0,0.0,0.0,0.0,0.0,0.0,0.0,0.0,-0.004575309809297323,0.0068513029254972935,0.04113203287124634,0.0,0.0,0.0,0.0,0.0,0.0,0.0,0.0,0.0
1606987567957131049,1296764,1606983966423262391,imu_link,-0.0014859304064884782,-0.004738155286759138,0.30695170164108276,-0.9517121315002441,0.0,0.0,0.0,0.0,0.0,0.0,0.0,0.0,0.0,-35.7517204284668,0.5690101385116577,-0.004607602953910828,0.0,0.0,0.0,0.0,0.0,0.0,0.0,0.0,0.0,-0.004575309809297323,0.0068513029254972935,0.04113203287124634,0.0,0.0,0.0,0.0,0.0,0.0,0.0,0.0,0.0
1606987567957186224,1296765,1606983966423340271,imu_link,-0.001485185930505395,-0.004737997893244028,0.30695268511772156,-0.9517118334770203,0.0,0.0,0.0,0.0,0.0,0.0,0.0,0.0,0.0,-35.75183868408203,0.568966805934906,-0.004683846142143011,0.0,0.0,0.0,0.0,0.0,0.0,0.0,0.0,0.0,0.0018096842104569077,-0.007572125177830458,0.05415916070342064,0.0,0.0,0.0,0.0,0.0,0.0,0.0,0.0,0.0
1606987567957220511,1296766,1606983966423431006,imu_link,-0.001485185930505395,-0.004737997893244028,0.30695268511772156,-0.9517118334770203,0.0,0.0,0.0,0.0,0.0,0.0,0.0,0.0,0.0,-35.75183868408203,0.568966805934906,-0.004683846142143011,0.0,0.0,0.0,0.0,0.0,0.0,0.0,0.0,0.0,0.0018096842104569077,-0.007572125177830458,0.05415916070342064,0.0,0.0,0.0,0.0,0.0,0.0,0.0,0.0,0.0
1606987567957254161,1296767,1606983966423531970,imu_link,-0.001486776047386229,-0.004737980663776398,0.3069526255130768,-0.9517118334770203,0.0,0.0,0.0,0.0,0.0,0.0,0.0,0.0,0.0,-35.7518310546875,0.5690208673477173,-0.004509774502366781,0.0,0.0,0.0,0.0,0.0,0.0,0.0,0.0,0.0,0.01941918022930622,-0.014634663239121437,0.05749224126338959,0.0,0.0,0.0,0.0,0.0,0.0,0.0,0.0,0.0
1606987567968073120,1296768,1606983966423614376,imu_link,-0.001486776047386229,-0.004737980663776398,0.3069526255130768,-0.9517118334770203,0.0,0.0,0.0,0.0,0.0,0.0,0.0,0.0,0.0,-35.7518310546875,0.5690208673477173,-0.004509774502366781,0.0,0.0,0.0,0.0,0.0,0.0,0.0,0.0,0.0,0.01941918022930622,-0.014634663239121437,0.05749224126338959,0.0,0.0,0.0,0.0,0.0,0.0,0.0,0.0,0.0
1606987567968124684,1296769,1606983966423691168,imu_link,-0.0014876961940899491,-0.004738843999803066,0.30695343017578125,-0.9517115950584412,0.0,0.0,0.0,0.0,0.0,0.0,0.0,0.0,0.0,-35.751922607421875,0.5691473484039307,-0.004440268501639366,0.0,0.0,0.0,0.0,0.0,0.0,0.0,0.0,0.0,0.020710069686174393,0.0058646355755627155,0.058980219066143036,0.0,0.0,0.0,0.0,0.0,0.0,0.0,0.0,0.0
1606987567968173421,1296770,1606983966423775935,imu_link,-0.0014876961940899491,-0.004738843999803066,0.30695343017578125,-0.9517115950584412,0.0,0.0,0.0,0.0,0.0,0.0,0.0,0.0,0.0,-35.751922607421875,0.5691473484039307,-0.004440268501639366,0.0,0.0,0.0,0.0,0.0,0.0,0.0,0.0,0.0,0.020710069686174393,0.0058646355755627155,0.058980219066143036,0.0,0.0,0.0,0.0,0.0,0.0,0.0,0.0,0.0
1606987567968199309,1296771,1606983966423862916,imu_link,-0.0014883463736623526,-0.004743256140500307,0.3069514036178589,-0.9517122507095337,0.0,0.0,0.0,0.0,0.0,0.0,0.0,0.0,0.0,-35.75168228149414,0.5696514844894409,-0.0045233420096337795,0.0,0.0,0.0,0.0,0.0,0.0,0.0,0.0,0.0,0.0016571833984926343,0.00954123493283987,0.04488983005285263,0.0,0.0,0.0,0.0,0.0,0.0,0.0,0.0,0.0
1606987567968219860,1296772,1606983966436918987,imu_link,-0.0014883463736623526,-0.004743256140500307,0.3069514036178589,-0.9517122507095337,0.0,0.0,0.0,0.0,0.0,0.0,0.0,0.0,0.0,-35.75168228149414,0.5696514844894409,-0.0045233420096337795,0.0,0.0,0.0,0.0,0.0,0.0,0.0,0.0,0.0,0.0016571833984926343,0.00954123493283987,0.04488983005285263,0.0,0.0,0.0,0.0,0.0,0.0,0.0,0.0,0.0
1606987567974501876,1296773,1606983966437053578,imu_link,-0.0014885262353345752,-0.004741088021546602,0.3069520592689514,-0.9517120122909546,0.0,0.0,0.0,0.0,0.0,0.0,0.0,0.0,0.0,-35.75176239013672,0.5694212913513184,-0.004427861422300339,0.0,0.0,0.0,0.0,0.0,0.0,0.0,0.0,0.0,-0.015712300315499306,-0.009173962287604809,0.03867962583899498,0.0,0.0,0.0,0.0,0.0,0.0,0.0,0.0,0.0
1606987567974541972,1296774,1606983966437233289,imu_link,-0.0014885262353345752,-0.004741088021546602,0.3069520592689514,-0.9517120122909546,0.0,0.0,0.0,0.0,0.0,0.0,0.0,0.0,0.0,-35.75176239013672,0.5694212913513184,-0.004427861422300339,0.0,0.0,0.0,0.0,0.0,0.0,0.0,0.0,0.0,-0.015712300315499306,-0.009173962287604809,0.03867962583899498,0.0,0.0,0.0,0.0,0.0,0.0,0.0,0.0,0.0
1606987567974602055,1296775,1606983966437336007,imu_link,-0.0014898850349709392,-0.004737563896924257,0.3069526255130768,-0.9517118334770203,0.0,0.0,0.0,0.0,0.0,0.0,0.0,0.0,0.0,-35.751827239990234,0.5690847039222717,-0.004156041424721479,0.0,0.0,0.0,0.0,0.0,0.0,0.0,0.0,0.0,-0.006626261863857508,0.002291915938258171,0.04991411790251732,0.0,0.0,0.0,0.0,0.0,0.0,0.0,0.0,0.0
1606987567974633872,1296776,1606983966437424612,imu_link,-0.0014898850349709392,-0.004737563896924257,0.3069526255130768,-0.9517118334770203,0.0,0.0,0.0,0.0,0.0,0.0,0.0,0.0,0.0,-35.751827239990234,0.5690847039222717,-0.004156041424721479,0.0,0.0,0.0,0.0,0.0,0.0,0.0,0.0,0.0,-0.006626261863857508,0.002291915938258171,0.04991411790251732,0.0,0.0,0.0,0.0,0.0,0.0,0.0,0.0,0.0
1606987568103198448,1296777,1606983966437504286,imu_link,-0.0014896648935973644,-0.00473902840167284,0.30695241689682007,-0.9517119526863098,0.0,0.0,0.0,0.0,0.0,0.0,0.0,0.0,0.0,-35.75180435180664,0.569236695766449,-0.0042314305901527405,0.0,0.0,0.0,0.0,0.0,0.0,0.0,0.0,0.0,0.00545895891264081,0.01586235873401165,0.044772546738386154,0.0,0.0,0.0,0.0,0.0,0.0,0.0,0.0,0.0
1606987568103235686,1296778,1606983966437608021,imu_link,-0.0014896648935973644,-0.00473902840167284,0.30695241689682007,-0.9517119526863098,0.0,0.0,0.0,0.0,0.0,0.0,0.0,0.0,0.0,-35.75180435180664,0.569236695766449,-0.0042314305901527405,0.0,0.0,0.0,0.0,0.0,0.0,0.0,0.0,0.0,0.00545895891264081,0.01586235873401165,0.044772546738386154,0.0,0.0,0.0,0.0,0.0,0.0,0.0,0.0,0.0
1606987568103277503,1296779,1606983966437692552,imu_link,-0.0014869243605062366,-0.004741183016449213,0.3069514334201813,-0.9517121911048889,0.0,0.0,0.0,0.0,0.0,0.0,0.0,0.0,0.0,-35.751686096191406,0.5693753361701965,-0.004605535883456469,0.0,0.0,0.0,0.0,0.0,0.0,0.0,0.0,0.0,0.008190624415874481,0.02054434083402157,0.03740788996219635,0.0,0.0,0.0,0.0,0.0,0.0,0.0,0.0,0.0
1606987568103307324,1296780,1606983966437768843,imu_link,-0.0014869243605062366,-0.004741183016449213,0.3069514334201813,-0.9517121911048889,0.0,0.0,0.0,0.0,0.0,0.0,0.0,0.0,0.0,-35.751686096191406,0.5693753361701965,-0.004605535883456469,0.0,0.0,0.0,0.0,0.0,0.0,0.0,0.0,0.0,0.008190624415874481,0.02054434083402157,0.03740788996219635,0.0,0.0,0.0,0.0,0.0,0.0,0.0,0.0,0.0
1606987568116805100,1296781,1606983966437848388,imu_link,-0.001486045541241765,-0.004741791635751724,0.3069516718387604,-0.9517121315002441,0.0,0.0,0.0,0.0,0.0,0.0,0.0,0.0,0.0,-35.75171661376953,0.5694107413291931,-0.004722921643406153,0.0,0.0,0.0,0.0,0.0,0.0,0.0,0.0,0.0,0.005257085431367159,0.018778176978230476,0.06729402393102646,0.0,0.0,0.0,0.0,0.0,0.0,0.0,0.0,0.0
1606987568116834265,1296782,1606983966437928999,imu_link,-0.001486045541241765,-0.004741791635751724,0.3069516718387604,-0.9517121315002441,0.0,0.0,0.0,0.0,0.0,0.0,0.0,0.0,0.0,-35.75171661376953,0.5694107413291931,-0.004722921643406153,0.0,0.0,0.0,0.0,0.0,0.0,0.0,0.0,0.0,0.005257085431367159,0.018778176978230476,0.06729402393102646,0.0,0.0,0.0,0.0,0.0,0.0,0.0,0.0,0.0
1606987568116851381,1296783,1606983966450346502,imu_link,-0.001483940170146525,-0.004743668250739574,0.30695223808288574,-0.9517119526863098,0.0,0.0,0.0,0.0,0.0,0.0,0.0,0.0,0.0,-35.75178909301758,0.5695413947105408,-0.0050188894383609295,0.0,0.0,0.0,0.0,0.0,0.0,0.0,0.0,0.0,0.0010047908872365952,0.007186512928456068,0.07080821692943573,0.0,0.0,0.0,0.0,0.0,0.0,0.0,0.0,0.0
1606987568116906973,1296784,1606983966450482256,imu_link,-0.001483940170146525,-0.004743668250739574,0.30695223808288574,-0.9517119526863098,0.0,0.0,0.0,0.0,0.0,0.0,0.0,0.0,0.0,-35.75178909301758,0.5695413947105408,-0.0050188894383609295,0.0,0.0,0.0,0.0,0.0,0.0,0.0,0.0,0.0,0.0010047908872365952,0.007186512928456068,0.07080821692943573,0.0,0.0,0.0,0.0,0.0,0.0,0.0,0.0,0.0
1606987568123826143,1296785,1606983966450660358,imu_link,-0.001484507229179144,-0.004743839614093304,0.3069519102573395,-0.9517120718955994,0.0,0.0,0.0,0.0,0.0,0.0,0.0,0.0,0.0,-35.751747131347656,0.569580078125,-0.004962884355336428,0.0,0.0,0.0,0.0,0.0,0.0,0.0,0.0,0.0,-0.012657196260988712,0.001999275991693139,0.039641667157411575,0.0,0.0,0.0,0.0,0.0,0.0,0.0,0.0,0.0
1606987568123860186,1296786,1606983966450761061,imu_link,-0.001484507229179144,-0.004743839614093304,0.3069519102573395,-0.9517120718955994,0.0,0.0,0.0,0.0,0.0,0.0,0.0,0.0,0.0,-35.751747131347656,0.569580078125,-0.004962884355336428,0.0,0.0,0.0,0.0,0.0,0.0,0.0,0.0,0.0,-0.012657196260988712,0.001999275991693139,0.039641667157411575,0.0,0.0,0.0,0.0,0.0,0.0,0.0,0.0,0.0
1606987568123893376,1296787,1606983966450855134,imu_link,-0.001485532382503152,-0.004741963464766741,0.3069498538970947,-0.9517127275466919,0.0,0.0,0.0,0.0,0.0,0.0,0.0,0.0,0.0,-35.75149917602539,0.5694115161895752,-0.004783849231898785,0.0,0.0,0.0,0.0,0.0,0.0,0.0,0.0,0.0,-0.023661065846681595,0.003092018188908696,0.03949714079499245,0.0,0.0,0.0,0.0,0.0,0.0,0.0,0.0,0.0
1606987568123913976,1296788,1606983966450979983,imu_link,-0.001485532382503152,-0.004741963464766741,0.3069498538970947,-0.9517127275466919,0.0,0.0,0.0,0.0,0.0,0.0,0.0,0.0,0.0,-35.75149917602539,0.5694115161895752,-0.004783849231898785,0.0,0.0,0.0,0.0,0.0,0.0,0.0,0.0,0.0,-0.023661065846681595,0.003092018188908696,0.03949714079499245,0.0,0.0,0.0,0.0,0.0,0.0,0.0,0.0,0.0
1606987568123946553,1296789,1606983966451108495,imu_link,-0.0014865896664559841,-0.004741615615785122,0.3069501519203186,-0.9517126083374023,0.0,0.0,0.0,0.0,0.0,0.0,0.0,0.0,0.0,-35.751529693603516,0.5694107413291931,-0.004656484350562096,0.0,0.0,0.0,0.0,0.0,0.0,0.0,0.0,0.0,-0.01752164401113987,0.005394860170781612,0.0332847535610199,0.0,0.0,0.0,0.0,0.0,0.0,0.0,0.0,0.0
1606987568129504630,1296790,1606983966451194139,imu_link,-0.0014865896664559841,-0.004741615615785122,0.3069501519203186,-0.9517126083374023,0.0,0.0,0.0,0.0,0.0,0.0,0.0,0.0,0.0,-35.751529693603516,0.5694107413291931,-0.004656484350562096,0.0,0.0,0.0,0.0,0.0,0.0,0.0,0.0,0.0,-0.01752164401113987,0.005394860170781612,0.0332847535610199,0.0,0.0,0.0,0.0,0.0,0.0,0.0,0.0,0.0
1606987568129542088,1296791,1606983966451271197,imu_link,-0.0014863075921311975,-0.004738610703498125,0.3069506883621216,-0.9517124891281128,0.0,0.0,0.0,0.0,0.0,0.0,0.0,0.0,0.0,-35.7515983581543,0.5690730810165405,-0.004581855144351721,0.0,0.0,0.0,0.0,0.0,0.0,0.0,0.0,0.0,0.002492184517905116,0.004233131650835276,0.0170785840600729,0.0,0.0,0.0,0.0,0.0,0.0,0.0,0.0,0.0
1606987568129554476,1296792,1606983966451347463,imu_link,-0.0014863075921311975,-0.004738610703498125,0.3069506883621216,-0.9517124891281128,0.0,0.0,0.0,0.0,0.0,0.0,0.0,0.0,0.0,-35.7515983581543,0.5690730810165405,-0.004581855144351721,0.0,0.0,0.0,0.0,0.0,0.0,0.0,0.0,0.0,0.002492184517905116,0.004233131650835276,0.0170785840600729,0.0,0.0,0.0,0.0,0.0,0.0,0.0,0.0,0.0
1606987568281123037,1296793,1606983966451423971,imu_link,-0.0014862999087199569,-0.004738859832286835,0.30695053935050964,-0.9517125487327576,0.0,0.0,0.0,0.0,0.0,0.0,0.0,0.0,0.0,-35.75157928466797,0.5690999627113342,-0.004591366741806269,0.0,0.0,0.0,0.0,0.0,0.0,0.0,0.0,0.0,0.011591062881052494,-0.0031475352589040995,0.015168420970439911,0.0,0.0,0.0,0.0,0.0,0.0,0.0,0.0,0.0
1606987568281155843,1296794,1606983966464186963,imu_link,-0.0014862999087199569,-0.004738859832286835,0.30695053935050964,-0.9517125487327576,0.0,0.0,0.0,0.0,0.0,0.0,0.0,0.0,0.0,-35.75157928466797,0.5690999627113342,-0.004591366741806269,0.0,0.0,0.0,0.0,0.0,0.0,0.0,0.0,0.0,0.011591062881052494,-0.0031475352589040995,0.015168420970439911,0.0,0.0,0.0,0.0,0.0,0.0,0.0,0.0,0.0
1606987568281166384,1296795,1606983966464327082,imu_link,-0.0014864032855257392,-0.004741325043141842,0.30695033073425293,-0.9517126083374023,0.0,0.0,0.0,0.0,0.0,0.0,0.0,0.0,0.0,-35.75155258178711,0.5693725347518921,-0.004666689783334732,0.0,0.0,0.0,0.0,0.0,0.0,0.0,0.0,0.0,0.012233731336891651,-0.015273566357791424,0.041270554065704346,0.0,0.0,0.0,0.0,0.0,0.0,0.0,0.0,0.0
1606987568281176190,1296796,1606983966464509159,imu_link,-0.0014864032855257392,-0.004741325043141842,0.30695033073425293,-0.9517126083374023,0.0,0.0,0.0,0.0,0.0,0.0,0.0,0.0,0.0,-35.75155258178711,0.5693725347518921,-0.004666689783334732,0.0,0.0,0.0,0.0,0.0,0.0,0.0,0.0,0.0,0.012233731336891651,-0.015273566357791424,0.041270554065704346,0.0,0.0,0.0,0.0,0.0,0.0,0.0,0.0,0.0
1606987568296304877,1296797,1606983966464614723,imu_link,-0.0014844211982563138,-0.004740922246128321,0.30695125460624695,-0.9517123103141785,0.0,0.0,0.0,0.0,0.0,0.0,0.0,0.0,0.0,-35.75166702270508,0.5692588090896606,-0.004869244061410427,0.0,0.0,0.0,0.0,0.0,0.0,0.0,0.0,0.0,0.014703012071549892,-0.0032811122946441174,0.05336155742406845,0.0,0.0,0.0,0.0,0.0,0.0,0.0,0.0,0.0
1606987568296333683,1296798,1606983966464705723,imu_link,-0.0014844211982563138,-0.004740922246128321,0.30695125460624695,-0.9517123103141785,0.0,0.0,0.0,0.0,0.0,0.0,0.0,0.0,0.0,-35.75166702270508,0.5692588090896606,-0.004869244061410427,0.0,0.0,0.0,0.0,0.0,0.0,0.0,0.0,0.0,0.014703012071549892,-0.0032811122946441174,0.05336155742406845,0.0,0.0,0.0,0.0,0.0,0.0,0.0,0.0,0.0
1606987568296384056,1296799,1606983966464812942,imu_link,-0.001482913619838655,-0.0047413380816578865,0.30695056915283203,-0.9517125487327576,0.0,0.0,0.0,0.0,0.0,0.0,0.0,0.0,0.0,-35.7515869140625,0.5692511796951294,-0.005047878250479698,0.0,0.0,0.0,0.0,0.0,0.0,0.0,0.0,0.0,-0.004003896377980709,0.016025690361857414,0.039015572518110275,0.0,0.0,0.0,0.0,0.0,0.0,0.0,0.0,0.0
1606987568296429601,1296800,1606983966464897096,imu_link,-0.001482913619838655,-0.0047413380816578865,0.30695056915283203,-0.9517125487327576,0.0,0.0,0.0,0.0,0.0,0.0,0.0,0.0,0.0,-35.7515869140625,0.5692511796951294,-0.005047878250479698,0.0,0.0,0.0,0.0,0.0,0.0,0.0,0.0,0.0,-0.004003896377980709,0.016025690361857414,0.039015572518110275,0.0,0.0,0.0,0.0,0.0,0.0,0.0,0.0,0.0
1606987568302723317,1296801,1606983966464971438,imu_link,-0.0014815647155046463,-0.0047425501979887486,0.30694863200187683,-0.9517131447792053,0.0,0.0,0.0,0.0,0.0,0.0,0.0,0.0,0.0,-35.7513542175293,0.5693359375,-0.005236491560935974,0.0,0.0,0.0,0.0,0.0,0.0,0.0,0.0,0.0,-0.02471848763525486,0.016568392515182495,0.04559174180030823,0.0,0.0,0.0,0.0,0.0,0.0,0.0,0.0,0.0
1606987568302793228,1296802,1606983966465045264,imu_link,-0.0014815647155046463,-0.0047425501979887486,0.30694863200187683,-0.9517131447792053,0.0,0.0,0.0,0.0,0.0,0.0,0.0,0.0,0.0,-35.7513542175293,0.5693359375,-0.005236491560935974,0.0,0.0,0.0,0.0,0.0,0.0,0.0,0.0,0.0,-0.02471848763525486,0.016568392515182495,0.04559174180030823,0.0,0.0,0.0,0.0,0.0,0.0,0.0,0.0,0.0
1606987568302810603,1296803,1606983966465132972,imu_link,-0.001477963523939252,-0.004739904310554266,0.30695047974586487,-0.9517126083374023,0.0,0.0,0.0,0.0,0.0,0.0,0.0,0.0,0.0,-35.7515754699707,0.5689206719398499,-0.005537260789424181,0.0,0.0,0.0,0.0,0.0,0.0,0.0,0.0,0.0,-0.021690748631954193,0.005541686899960041,0.025789320468902588,0.0,0.0,0.0,0.0,0.0,0.0,0.0,0.0,0.0
1606987568302841036,1296804,1606983966465208803,imu_link,-0.001477963523939252,-0.004739904310554266,0.30695047974586487,-0.9517126083374023,0.0,0.0,0.0,0.0,0.0,0.0,0.0,0.0,0.0,-35.7515754699707,0.5689206719398499,-0.005537260789424181,0.0,0.0,0.0,0.0,0.0,0.0,0.0,0.0,0.0,-0.021690748631954193,0.005541686899960041,0.025789320468902588,0.0,0.0,0.0,0.0,0.0,0.0,0.0,0.0,0.0
1606987568302858291,1296805,1606983966477055735,imu_link,-0.0014785208040848374,-0.004738623276352882,0.30695024132728577,-0.9517126679420471,0.0,0.0,0.0,0.0,0.0,0.0,0.0,0.0,0.0,-35.751548767089844,0.5688005685806274,-0.005431280937045813,0.0,0.0,0.0,0.0,0.0,0.0,0.0,0.0,0.0,-0.012655921280384064,-0.012970788404345512,0.008203881792724133,0.0,0.0,0.0,0.0,0.0,0.0,0.0,0.0,0.0
1606987568318110047,1296806,1606983966477192973,imu_link,-0.0014785208040848374,-0.004738623276352882,0.30695024132728577,-0.9517126679420471,0.0,0.0,0.0,0.0,0.0,0.0,0.0,0.0,0.0,-35.751548767089844,0.5688005685806274,-0.005431280937045813,0.0,0.0,0.0,0.0,0.0,0.0,0.0,0.0,0.0,-0.012655921280384064,-0.012970788404345512,0.008203881792724133,0.0,0.0,0.0,0.0,0.0,0.0,0.0,0.0,0.0
1606987568318157003,1296807,1606983966477370063,imu_link,-0.0014802070800215006,-0.0047360253520309925,0.3069484233856201,-0.9517132639884949,0.0,0.0,0.0,0.0,0.0,0.0,0.0,0.0,0.0,-35.75132751464844,0.5685765743255615,-0.005154897924512625,0.0,0.0,0.0,0.0,0.0,0.0,0.0,0.0,0.0,-0.011280796490609646,-0.010051015764474869,0.015336479060351849,0.0,0.0,0.0,0.0,0.0,0.0,0.0,0.0,0.0
1606987568318167781,1296808,1606983966477471131,imu_link,-0.0014802070800215006,-0.0047360253520309925,0.3069484233856201,-0.9517132639884949,0.0,0.0,0.0,0.0,0.0,0.0,0.0,0.0,0.0,-35.75132751464844,0.5685765743255615,-0.005154897924512625,0.0,0.0,0.0,0.0,0.0,0.0,0.0,0.0,0.0,-0.011280796490609646,-0.010051015764474869,0.015336479060351849,0.0,0.0,0.0,0.0,0.0,0.0,0.0,0.0,0.0
1606987568318230281,1296809,1606983966477562738,imu_link,-0.0014815620379522443,-0.004737073555588722,0.30694714188575745,-0.9517136216163635,0.0,0.0,0.0,0.0,0.0,0.0,0.0,0.0,0.0,-35.75117111206055,0.5687385201454163,-0.005043249111622572,0.0,0.0,0.0,0.0,0.0,0.0,0.0,0.0,0.0,-0.0025062880013138056,0.008862198330461979,0.0006778397946618497,0.0,0.0,0.0,0.0,0.0,0.0,0.0,0.0,0.0
1606987568469207521,1296810,1606983966477672628,imu_link,-0.0014815620379522443,-0.004737073555588722,0.30694714188575745,-0.9517136216163635,0.0,0.0,0.0,0.0,0.0,0.0,0.0,0.0,0.0,-35.75117111206055,0.5687385201454163,-0.005043249111622572,0.0,0.0,0.0,0.0,0.0,0.0,0.0,0.0,0.0,-0.0025062880013138056,0.008862198330461979,0.0006778397946618497,0.0,0.0,0.0,0.0,0.0,0.0,0.0,0.0,0.0
1606987568469227835,1296811,1606983966477757274,imu_link,-0.0014806013787165284,-0.004735497757792473,0.3069451153278351,-0.951714277267456,0.0,0.0,0.0,0.0,0.0,0.0,0.0,0.0,0.0,-35.75093078613281,0.5685328841209412,-0.005091382656246424,0.0,0.0,0.0,0.0,0.0,0.0,0.0,0.0,0.0,0.00547408452257514,0.0021424719598144293,-0.007710688281804323,0.0,0.0,0.0,0.0,0.0,0.0,0.0,0.0,0.0
1606987568469245610,1296812,1606983966477829922,imu_link,-0.0014806013787165284,-0.004735497757792473,0.3069451153278351,-0.951714277267456,0.0,0.0,0.0,0.0,0.0,0.0,0.0,0.0,0.0,-35.75093078613281,0.5685328841209412,-0.005091382656246424,0.0,0.0,0.0,0.0,0.0,0.0,0.0,0.0,0.0,0.00547408452257514,0.0021424719598144293,-0.007710688281804323,0.0,0.0,0.0,0.0,0.0,0.0,0.0,0.0,0.0
1606987568469252895,1296813,1606983966477906243,imu_link,-0.0014797679614275694,-0.004735030699521303,0.3069438636302948,-0.9517146944999695,0.0,0.0,0.0,0.0,0.0,0.0,0.0,0.0,0.0,-35.75077819824219,0.5684526562690735,-0.005165090784430504,0.0,0.0,0.0,0.0,0.0,0.0,0.0,0.0,0.0,-0.0008500511758029461,-0.004993035923689604,0.04318515583872795,0.0,0.0,0.0,0.0,0.0,0.0,0.0,0.0,0.0
1606987568482415096,1296814,1606983966477987577,imu_link,-0.0014797679614275694,-0.004735030699521303,0.3069438636302948,-0.9517146944999695,0.0,0.0,0.0,0.0,0.0,0.0,0.0,0.0,0.0,-35.75077819824219,0.5684526562690735,-0.005165090784430504,0.0,0.0,0.0,0.0,0.0,0.0,0.0,0.0,0.0,-0.0008500511758029461,-0.004993035923689604,0.04318515583872795,0.0,0.0,0.0,0.0,0.0,0.0,0.0,0.0,0.0
1606987568482440005,1296815,1606983966490475934,imu_link,-0.0014806591207161546,-0.004733844194561243,0.30694469809532166,-0.9517144560813904,0.0,0.0,0.0,0.0,0.0,0.0,0.0,0.0,0.0,-35.75087356567383,0.568354606628418,-0.0050266520120203495,0.0,0.0,0.0,0.0,0.0,0.0,0.0,0.0,0.0,-0.012872438877820969,-0.006488559767603874,0.057253334671258926,0.0,0.0,0.0,0.0,0.0,0.0,0.0,0.0,0.0
1606987568482448966,1296816,1606983966490613036,imu_link,-0.0014806591207161546,-0.004733844194561243,0.30694469809532166,-0.9517144560813904,0.0,0.0,0.0,0.0,0.0,0.0,0.0,0.0,0.0,-35.75087356567383,0.568354606628418,-0.0050266520120203495,0.0,0.0,0.0,0.0,0.0,0.0,0.0,0.0,0.0,-0.012872438877820969,-0.006488559767603874,0.057253334671258926,0.0,0.0,0.0,0.0,0.0,0.0,0.0,0.0,0.0
1606987568482495996,1296817,1606983966490793955,imu_link,-0.0014790598070248961,-0.004734668880701065,0.3069445788860321,-0.9517145156860352,0.0,0.0,0.0,0.0,0.0,0.0,0.0,0.0,0.0,-35.75086212158203,0.5683882832527161,-0.0052300067618489265,0.0,0.0,0.0,0.0,0.0,0.0,0.0,0.0,0.0,-0.014990502037107944,-0.009378550574183464,0.020452719181776047,0.0,0.0,0.0,0.0,0.0,0.0,0.0,0.0,0.0
1606987568487734771,1296818,1606983966490898567,imu_link,-0.0014790598070248961,-0.004734668880701065,0.3069445788860321,-0.9517145156860352,0.0,0.0,0.0,0.0,0.0,0.0,0.0,0.0,0.0,-35.75086212158203,0.5683882832527161,-0.0052300067618489265,0.0,0.0,0.0,0.0,0.0,0.0,0.0,0.0,0.0,-0.014990502037107944,-0.009378550574183464,0.020452719181776047,0.0,0.0,0.0,0.0,0.0,0.0,0.0,0.0,0.0
1606987568487758684,1296819,1606983966491023195,imu_link,-0.0014792820438742638,-0.004733700305223465,0.306946724653244,-0.9517138004302979,0.0,0.0,0.0,0.0,0.0,0.0,0.0,0.0,0.0,-35.751121520996094,0.5682904720306396,-0.005173001438379288,0.0,0.0,0.0,0.0,0.0,0.0,0.0,0.0,0.0,0.0008580763824284077,-0.003929628990590572,0.01714843511581421,0.0,0.0,0.0,0.0,0.0,0.0,0.0,0.0,0.0
1606987568487782294,1296820,1606983966491104303,imu_link,-0.0014792820438742638,-0.004733700305223465,0.306946724653244,-0.9517138004302979,0.0,0.0,0.0,0.0,0.0,0.0,0.0,0.0,0.0,-35.751121520996094,0.5682904720306396,-0.005173001438379288,0.0,0.0,0.0,0.0,0.0,0.0,0.0,0.0,0.0,0.0008580763824284077,-0.003929628990590572,0.01714843511581421,0.0,0.0,0.0,0.0,0.0,0.0,0.0,0.0,0.0
1606987568487797238,1296821,1606983966491209261,imu_link,-0.0014784411760047078,-0.004731534514576197,0.3069493770599365,-0.951712965965271,0.0,0.0,0.0,0.0,0.0,0.0,0.0,0.0,0.0,-35.75143814086914,0.5680246353149414,-0.0051900907419621944,0.0,0.0,0.0,0.0,0.0,0.0,0.0,0.0,0.0,-0.008448455482721329,-0.007394726853817701,0.02330939844250679,0.0,0.0,0.0,0.0,0.0,0.0,0.0,0.0,0.0
1606987568487814517,1296822,1606983966491299414,imu_link,-0.0014784411760047078,-0.004731534514576197,0.3069493770599365,-0.951712965965271,0.0,0.0,0.0,0.0,0.0,0.0,0.0,0.0,0.0,-35.75143814086914,0.5680246353149414,-0.0051900907419621944,0.0,0.0,0.0,0.0,0.0,0.0,0.0,0.0,0.0,-0.008448455482721329,-0.007394726853817701,0.02330939844250679,0.0,0.0,0.0,0.0,0.0,0.0,0.0,0.0,0.0
1606987568501555606,1296823,1606983966491383198,imu_link,-0.0014785928651690483,-0.004728155676275492,0.3069504201412201,-0.9517126679420471,0.0,0.0,0.0,0.0,0.0,0.0,0.0,0.0,0.0,-35.75156021118164,0.5676615238189697,-0.005055320914834738,0.0,0.0,0.0,0.0,0.0,0.0,0.0,0.0,0.0,-0.0148922735825181,-0.0023560470435768366,0.040950946509838104,0.0,0.0,0.0,0.0,0.0,0.0,0.0,0.0,0.0
1606987568501582105,1296824,1606983966491466611,imu_link,-0.0014785928651690483,-0.004728155676275492,0.3069504201412201,-0.9517126679420471,0.0,0.0,0.0,0.0,0.0,0.0,0.0,0.0,0.0,-35.75156021118164,0.5676615238189697,-0.005055320914834738,0.0,0.0,0.0,0.0,0.0,0.0,0.0,0.0,0.0,-0.0148922735825181,-0.0023560470435768366,0.040950946509838104,0.0,0.0,0.0,0.0,0.0,0.0,0.0,0.0,0.0
1606987568501591455,1296825,1606983966491548050,imu_link,-0.0014804278034716845,-0.004726692568510771,0.3069479465484619,-0.9517134428024292,0.0,0.0,0.0,0.0,0.0,0.0,0.0,0.0,0.0,-35.75126266479492,0.5675665140151978,-0.00480224471539259,0.0,0.0,0.0,0.0,0.0,0.0,0.0,0.0,0.0,0.004283931106328964,0.007559045683592558,0.05613522604107857,0.0,0.0,0.0,0.0,0.0,0.0,0.0,0.0,0.0
1606987568501598806,1296826,1606983966504338661,imu_link,-0.0014804278034716845,-0.004726692568510771,0.3069479465484619,-0.9517134428024292,0.0,0.0,0.0,0.0,0.0,0.0,0.0,0.0,0.0,-35.75126266479492,0.5675665140151978,-0.00480224471539259,0.0,0.0,0.0,0.0,0.0,0.0,0.0,0.0,0.0,0.004283931106328964,0.007559045683592558,0.05613522604107857,0.0,0.0,0.0,0.0,0.0,0.0,0.0,0.0,0.0
1606987568645018477,1296827,1606983966504479281,imu_link,-0.0014806125545874238,-0.004727237857878208,0.30694809556007385,-0.9517133831977844,0.0,0.0,0.0,0.0,0.0,0.0,0.0,0.0,0.0,-35.75128173828125,0.5676324367523193,-0.0048013776540756226,0.0,0.0,0.0,0.0,0.0,0.0,0.0,0.0,0.0,0.005470404401421547,0.006587360054254532,0.06315580755472183,0.0,0.0,0.0,0.0,0.0,0.0,0.0,0.0,0.0
1606987568645050230,1296828,1606983966504661418,imu_link,-0.0014806125545874238,-0.004727237857878208,0.30694809556007385,-0.9517133831977844,0.0,0.0,0.0,0.0,0.0,0.0,0.0,0.0,0.0,-35.75128173828125,0.5676324367523193,-0.0048013776540756226,0.0,0.0,0.0,0.0,0.0,0.0,0.0,0.0,0.0,0.005470404401421547,0.006587360054254532,0.06315580755472183,0.0,0.0,0.0,0.0,0.0,0.0,0.0,0.0,0.0
1606987568645059581,1296829,1606983966504759665,imu_link,-0.0014793782029300928,-0.004727963823825121,0.30694815516471863,-0.9517133831977844,0.0,0.0,0.0,0.0,0.0,0.0,0.0,0.0,0.0,-35.75128936767578,0.5676681995391846,-0.004961574915796518,0.0,0.0,0.0,0.0,0.0,0.0,0.0,0.0,0.0,0.01099561806768179,-0.0014491162728518248,0.03797155246138573,0.0,0.0,0.0,0.0,0.0,0.0,0.0,0.0,0.0
1606987568645072619,1296830,1606983966504852029,imu_link,-0.0014793782029300928,-0.004727963823825121,0.30694815516471863,-0.9517133831977844,0.0,0.0,0.0,0.0,0.0,0.0,0.0,0.0,0.0,-35.75128936767578,0.5676681995391846,-0.004961574915796518,0.0,0.0,0.0,0.0,0.0,0.0,0.0,0.0,0.0,0.01099561806768179,-0.0014491162728518248,0.03797155246138573,0.0,0.0,0.0,0.0,0.0,0.0,0.0,0.0,0.0
1606987568661599810,1296831,1606983966504935698,imu_link,-0.001478621270507574,-0.004730236250907183,0.3069489002227783,-0.9517131447792053,0.0,0.0,0.0,0.0,0.0,0.0,0.0,0.0,0.0,-35.75138473510742,0.567889392375946,-0.0051245070062577724,0.0,0.0,0.0,0.0,0.0,0.0,0.0,0.0,0.0,0.013062270358204842,-0.013561648316681385,0.012964393012225628,0.0,0.0,0.0,0.0,0.0,0.0,0.0,0.0,0.0
1606987568661649626,1296832,1606983966505041879,imu_link,-0.001478621270507574,-0.004730236250907183,0.3069489002227783,-0.9517131447792053,0.0,0.0,0.0,0.0,0.0,0.0,0.0,0.0,0.0,-35.75138473510742,0.567889392375946,-0.0051245070062577724,0.0,0.0,0.0,0.0,0.0,0.0,0.0,0.0,0.0,0.013062270358204842,-0.013561648316681385,0.012964393012225628,0.0,0.0,0.0,0.0,0.0,0.0,0.0,0.0,0.0
1606987568661670405,1296833,1606983966505124810,imu_link,-0.0014785254606977105,-0.0047273640520870686,0.30694833397865295,-0.9517133235931396,0.0,0.0,0.0,0.0,0.0,0.0,0.0,0.0,0.0,-35.751312255859375,0.5675727725028992,-0.005033588968217373,0.0,0.0,0.0,0.0,0.0,0.0,0.0,0.0,0.0,-0.00949505902826786,-0.01139277033507824,0.04349476471543312,0.0,0.0,0.0,0.0,0.0,0.0,0.0,0.0,0.0
1606987568661700699,1296834,1606983966505201703,imu_link,-0.0014785254606977105,-0.0047273640520870686,0.30694833397865295,-0.9517133235931396,0.0,0.0,0.0,0.0,0.0,0.0,0.0,0.0,0.0,-35.751312255859375,0.5675727725028992,-0.005033588968217373,0.0,0.0,0.0,0.0,0.0,0.0,0.0,0.0,0.0,-0.00949505902826786,-0.01139277033507824,0.04349476471543312,0.0,0.0,0.0,0.0,0.0,0.0,0.0,0.0,0.0
1606987568674001595,1296835,1606983966505286545,imu_link,-0.0014795358292758465,-0.004724760539829731,0.3069494962692261,-0.951712965965271,0.0,0.0,0.0,0.0,0.0,0.0,0.0,0.0,0.0,-35.7514533996582,0.5673243999481201,-0.0048325019888579845,0.0,0.0,0.0,0.0,0.0,0.0,0.0,0.0,0.0,-0.021741287782788277,-0.00278655462898314,0.0511719286441803,0.0,0.0,0.0,0.0,0.0,0.0,0.0,0.0,0.0
1606987568674038025,1296836,1606983966505367367,imu_link,-0.0014795358292758465,-0.004724760539829731,0.3069494962692261,-0.951712965965271,0.0,0.0,0.0,0.0,0.0,0.0,0.0,0.0,0.0,-35.7514533996582,0.5673243999481201,-0.0048325019888579845,0.0,0.0,0.0,0.0,0.0,0.0,0.0,0.0,0.0,-0.021741287782788277,-0.00278655462898314,0.0511719286441803,0.0,0.0,0.0,0.0,0.0,0.0,0.0,0.0,0.0
1606987568674053409,1296837,1606983966517731842,imu_link,-0.0014802555087953806,-0.004724699072539806,0.30694857239723206,-0.9517132639884949,0.0,0.0,0.0,0.0,0.0,0.0,0.0,0.0,0.0,-35.751338958740234,0.56734299659729,-0.004751295782625675,0.0,0.0,0.0,0.0,0.0,0.0,0.0,0.0,0.0,-0.0052557834424078465,-0.001942009781487286,0.022783692926168442,0.0,0.0,0.0,0.0,0.0,0.0,0.0,0.0,0.0
1606987568674078407,1296838,1606983966517857879,imu_link,-0.0014802555087953806,-0.004724699072539806,0.30694857239723206,-0.9517132639884949,0.0,0.0,0.0,0.0,0.0,0.0,0.0,0.0,0.0,-35.751338958740234,0.56734299659729,-0.004751295782625675,0.0,0.0,0.0,0.0,0.0,0.0,0.0,0.0,0.0,-0.0052557834424078465,-0.001942009781487286,0.022783692926168442,0.0,0.0,0.0,0.0,0.0,0.0,0.0,0.0,0.0
1606987568674103195,1296839,1606983966518036276,imu_link,-0.0014813881134614348,-0.004724860657006502,0.3069479763507843,-0.9517133831977844,0.0,0.0,0.0,0.0,0.0,0.0,0.0,0.0,0.0,-35.75127029418945,0.5674004554748535,-0.004633109550923109,0.0,0.0,0.0,0.0,0.0,0.0,0.0,0.0,0.0,0.0091867595911026,0.003541143611073494,0.014977898448705673,0.0,0.0,0.0,0.0,0.0,0.0,0.0,0.0,0.0
1606987568684135188,1296840,1606983966518122661,imu_link,-0.0014813881134614348,-0.004724860657006502,0.3069479763507843,-0.9517133831977844,0.0,0.0,0.0,0.0,0.0,0.0,0.0,0.0,0.0,-35.75127029418945,0.5674004554748535,-0.004633109550923109,0.0,0.0,0.0,0.0,0.0,0.0,0.0,0.0,0.0,0.0091867595911026,0.003541143611073494,0.014977898448705673,0.0,0.0,0.0,0.0,0.0,0.0,0.0,0.0,0.0
1606987568684177337,1296841,1606983966518208124,imu_link,-0.0014791933353990316,-0.004726158455014229,0.3069489896297455,-0.9517131447792053,0.0,0.0,0.0,0.0,0.0,0.0,0.0,0.0,0.0,-35.75138854980469,0.5674648284912109,-0.004918710328638554,0.0,0.0,0.0,0.0,0.0,0.0,0.0,0.0,0.0,-0.00417668791487813,0.005272130016237497,0.017106039449572563,0.0,0.0,0.0,0.0,0.0,0.0,0.0,0.0,0.0
1606987568684189057,1296842,1606983966518319507,imu_link,-0.0014791933353990316,-0.004726158455014229,0.3069489896297455,-0.9517131447792053,0.0,0.0,0.0,0.0,0.0,0.0,0.0,0.0,0.0,-35.75138854980469,0.5674648284912109,-0.004918710328638554,0.0,0.0,0.0,0.0,0.0,0.0,0.0,0.0,0.0,-0.00417668791487813,0.005272130016237497,0.017106039449572563,0.0,0.0,0.0,0.0,0.0,0.0,0.0,0.0,0.0
1606987568684200595,1296843,1606983966518414642,imu_link,-0.001476824632845819,-0.004724593833088875,0.3069523870944977,-0.9517120718955994,0.0,0.0,0.0,0.0,0.0,0.0,0.0,0.0,0.0,-35.75179672241211,0.567210853099823,-0.0051240394823253155,0.0,0.0,0.0,0.0,0.0,0.0,0.0,0.0,0.0,-0.006247743498533964,-0.00117520394269377,0.03142610192298889,0.0,0.0,0.0,0.0,0.0,0.0,0.0,0.0,0.0
1606987568785801228,1296844,1606983966518499328,imu_link,-0.001476824632845819,-0.004724593833088875,0.3069523870944977,-0.9517120718955994,0.0,0.0,0.0,0.0,0.0,0.0,0.0,0.0,0.0,-35.75179672241211,0.567210853099823,-0.0051240394823253155,0.0,0.0,0.0,0.0,0.0,0.0,0.0,0.0,0.0,-0.006247743498533964,-0.00117520394269377,0.03142610192298889,0.0,0.0,0.0,0.0,0.0,0.0,0.0,0.0,0.0
1606987568785848928,1296845,1606983966518581092,imu_link,-0.0014764632796868682,-0.004725292790681124,0.3069528043270111,-0.9517119526863098,0.0,0.0,0.0,0.0,0.0,0.0,0.0,0.0,0.0,-35.75185012817383,0.5672743916511536,-0.0051882886327803135,0.0,0.0,0.0,0.0,0.0,0.0,0.0,0.0,0.0,-0.007664960343390703,0.007585187908262014,0.033623579889535904,0.0,0.0,0.0,0.0,0.0,0.0,0.0,0.0,0.0
1606987568785916104,1296846,1606983966518661378,imu_link,-0.0014764632796868682,-0.004725292790681124,0.3069528043270111,-0.9517119526863098,0.0,0.0,0.0,0.0,0.0,0.0,0.0,0.0,0.0,-35.75185012817383,0.5672743916511536,-0.0051882886327803135,0.0,0.0,0.0,0.0,0.0,0.0,0.0,0.0,0.0,-0.007664960343390703,0.007585187908262014,0.033623579889535904,0.0,0.0,0.0,0.0,0.0,0.0,0.0,0.0,0.0
1606987568785947181,1296847,1606983966518741904,imu_link,-0.0014719340251758695,-0.004723820369690657,0.306953102350235,-0.9517117738723755,0.0,0.0,0.0,0.0,0.0,0.0,0.0,0.0,0.0,-35.75189208984375,0.5669543743133545,-0.005630659405142069,0.0,0.0,0.0,0.0,0.0,0.0,0.0,0.0,0.0,-0.01443077065050602,0.011832392774522305,0.03812069445848465,0.0,0.0,0.0,0.0,0.0,0.0,0.0,0.0,0.0
1606987568785972253,1296848,1606983966530573437,imu_link,-0.0014719340251758695,-0.004723820369690657,0.306953102350235,-0.9517117738723755,0.0,0.0,0.0,0.0,0.0,0.0,0.0,0.0,0.0,-35.75189208984375,0.5669543743133545,-0.005630659405142069,0.0,0.0,0.0,0.0,0.0,0.0,0.0,0.0,0.0,-0.01443077065050602,0.011832392774522305,0.03812069445848465,0.0,0.0,0.0,0.0,0.0,0.0,0.0,0.0,0.0
1606987568791291153,1296849,1606983966530672657,imu_link,-0.0014745696680620313,-0.004724362399429083,0.3069530129432678,-0.9517117738723755,0.0,0.0,0.0,0.0,0.0,0.0,0.0,0.0,0.0,-35.75188064575195,0.5671062469482422,-0.005362228024750948,0.0,0.0,0.0,0.0,0.0,0.0,0.0,0.0,0.0,-0.007479315623641014,0.003998457454144955,0.046056874096393585,0.0,0.0,0.0,0.0,0.0,0.0,0.0,0.0,0.0
1606987568791345231,1296850,1606983966530744633,imu_link,-0.0014745696680620313,-0.004724362399429083,0.3069530129432678,-0.9517117738723755,0.0,0.0,0.0,0.0,0.0,0.0,0.0,0.0,0.0,-35.75188064575195,0.5671062469482422,-0.005362228024750948,0.0,0.0,0.0,0.0,0.0,0.0,0.0,0.0,0.0,-0.007479315623641014,0.003998457454144955,0.046056874096393585,0.0,0.0,0.0,0.0,0.0,0.0,0.0,0.0,0.0
1606987568791370750,1296851,1606983966530821107,imu_link,-0.0014725810615345836,-0.004725235980004072,0.3069542944431305,-0.9517114162445068,0.0,0.0,0.0,0.0,0.0,0.0,0.0,0.0,0.0,-35.75203323364258,0.5671315789222717,-0.005610594525933266,0.0,0.0,0.0,0.0,0.0,0.0,0.0,0.0,0.0,-0.019053563475608826,-0.0014430972514674067,0.04233672097325325,0.0,0.0,0.0,0.0,0.0,0.0,0.0,0.0,0.0
1606987568791401177,1296852,1606983966530902158,imu_link,-0.0014725810615345836,-0.004725235980004072,0.3069542944431305,-0.9517114162445068,0.0,0.0,0.0,0.0,0.0,0.0,0.0,0.0,0.0,-35.75203323364258,0.5671315789222717,-0.005610594525933266,0.0,0.0,0.0,0.0,0.0,0.0,0.0,0.0,0.0,-0.019053563475608826,-0.0014430972514674067,0.04233672097325325,0.0,0.0,0.0,0.0,0.0,0.0,0.0,0.0,0.0
1606987568829749399,1296853,1606983966531018039,imu_link,-0.0014718490419909358,-0.004726247396320105,0.30695417523384094,-0.9517114162445068,0.0,0.0,0.0,0.0,0.0,0.0,0.0,0.0,0.0,-35.75202178955078,0.5672160983085632,-0.005725939758121967,0.0,0.0,0.0,0.0,0.0,0.0,0.0,0.0,0.0,-0.023422710597515106,-0.0003584682708606124,0.04969918727874756,0.0,0.0,0.0,0.0,0.0,0.0,0.0,0.0,0.0
1606987568829807895,1296854,1606983966531093890,imu_link,-0.0014718490419909358,-0.004726247396320105,0.30695417523384094,-0.9517114162445068,0.0,0.0,0.0,0.0,0.0,0.0,0.0,0.0,0.0,-35.75202178955078,0.5672160983085632,-0.005725939758121967,0.0,0.0,0.0,0.0,0.0,0.0,0.0,0.0,0.0,-0.023422710597515106,-0.0003584682708606124,0.04969918727874756,0.0,0.0,0.0,0.0,0.0,0.0,0.0,0.0,0.0
1606987568829834626,1296855,1606983966531171541,imu_link,-0.0014710219111293554,-0.004719381686300039,0.30695411562919617,-0.9517114758491516,0.0,0.0,0.0,0.0,0.0,0.0,0.0,0.0,0.0,-35.752010345458984,0.5664382576942444,-0.005574600305408239,0.0,0.0,0.0,0.0,0.0,0.0,0.0,0.0,0.0,-0.011444319039583206,0.01805703155696392,0.029476851224899292,0.0,0.0,0.0,0.0,0.0,0.0,0.0,0.0,0.0
1606987568829863691,1296856,1606983966531236566,imu_link,-0.0014710219111293554,-0.004719381686300039,0.30695411562919617,-0.9517114758491516,0.0,0.0,0.0,0.0,0.0,0.0,0.0,0.0,0.0,-35.752010345458984,0.5664382576942444,-0.005574600305408239,0.0,0.0,0.0,0.0,0.0,0.0,0.0,0.0,0.0,-0.011444319039583206,0.01805703155696392,0.029476851224899292,0.0,0.0,0.0,0.0,0.0,0.0,0.0,0.0,0.0
1606987568829890531,1296857,1606983966531307205,imu_link,-0.0014713406562805176,-0.004719547461718321,0.30695465207099915,-0.9517113566398621,0.0,0.0,0.0,0.0,0.0,0.0,0.0,0.0,0.0,-35.7520751953125,0.5664675235748291,-0.0055459835566580296,0.0,0.0,0.0,0.0,0.0,0.0,0.0,0.0,0.0,-0.006669259164482355,0.012533066794276237,0.017005925998091698,0.0,0.0,0.0,0.0,0.0,0.0,0.0,0.0,0.0
1606987568839271399,1296858,1606983966544517492,imu_link,-0.0014713406562805176,-0.004719547461718321,0.30695465207099915,-0.9517113566398621,0.0,0.0,0.0,0.0,0.0,0.0,0.0,0.0,0.0,-35.7520751953125,0.5664675235748291,-0.0055459835566580296,0.0,0.0,0.0,0.0,0.0,0.0,0.0,0.0,0.0,-0.006669259164482355,0.012533066794276237,0.017005925998091698,0.0,0.0,0.0,0.0,0.0,0.0,0.0,0.0,0.0
1606987568839321891,1296859,1606983966544664171,imu_link,-0.001468511065468192,-0.004719071555882692,0.3069547116756439,-0.9517112970352173,0.0,0.0,0.0,0.0,0.0,0.0,0.0,0.0,0.0,-35.752079010009766,0.5663160681724548,-0.005837895441800356,0.0,0.0,0.0,0.0,0.0,0.0,0.0,0.0,0.0,-0.006288131233304739,-0.006201779469847679,0.04306352138519287,0.0,0.0,0.0,0.0,0.0,0.0,0.0,0.0,0.0
1606987568839418418,1296860,1606983966544818774,imu_link,-0.001468511065468192,-0.004719071555882692,0.3069547116756439,-0.9517112970352173,0.0,0.0,0.0,0.0,0.0,0.0,0.0,0.0,0.0,-35.752079010009766,0.5663160681724548,-0.005837895441800356,0.0,0.0,0.0,0.0,0.0,0.0,0.0,0.0,0.0,-0.006288131233304739,-0.006201779469847679,0.04306352138519287,0.0,0.0,0.0,0.0,0.0,0.0,0.0,0.0,0.0
1606987568839478057,1296861,1606983966544920324,imu_link,-0.001468511065468192,-0.004719071555882692,0.3069547116756439,-0.9517112970352173,0.0,0.0,0.0,0.0,0.0,0.0,0.0,0.0,0.0,-35.752079010009766,0.5663160681724548,-0.005837895441800356,0.0,0.0,0.0,0.0,0.0,0.0,0.0,0.0,0.0,-0.009296349249780178,-0.005118070635944605,0.04485169053077698,0.0,0.0,0.0,0.0,0.0,0.0,0.0,0.0,0.0
1606987568932686802,1296862,1606983966545015555,imu_link,-0.001468511065468192,-0.004719071555882692,0.3069547116756439,-0.9517112970352173,0.0,0.0,0.0,0.0,0.0,0.0,0.0,0.0,0.0,-35.752079010009766,0.5663160681724548,-0.005837895441800356,0.0,0.0,0.0,0.0,0.0,0.0,0.0,0.0,0.0,-0.009296349249780178,-0.005118070635944605,0.04485169053077698,0.0,0.0,0.0,0.0,0.0,0.0,0.0,0.0,0.0
1606987568932714609,1296863,1606983966545096497,imu_link,-0.0014677324797958136,-0.004718012176454067,0.3069559931755066,-0.9517109394073486,0.0,0.0,0.0,0.0,0.0,0.0,0.0,0.0,0.0,-35.752235412597656,0.5661731958389282,-0.005886281840503216,0.0,0.0,0.0,0.0,0.0,0.0,0.0,0.0,0.0,-0.016499409452080727,-0.002431372180581093,0.027220895513892174,0.0,0.0,0.0,0.0,0.0,0.0,0.0,0.0,0.0
1606987568932728278,1296864,1606983966545193466,imu_link,-0.0014677324797958136,-0.004718012176454067,0.3069559931755066,-0.9517109394073486,0.0,0.0,0.0,0.0,0.0,0.0,0.0,0.0,0.0,-35.752235412597656,0.5661731958389282,-0.005886281840503216,0.0,0.0,0.0,0.0,0.0,0.0,0.0,0.0,0.0,-0.016499409452080727,-0.002431372180581093,0.027220895513892174,0.0,0.0,0.0,0.0,0.0,0.0,0.0,0.0,0.0
1606987568932739556,1296865,1606983966545279666,imu_link,-0.0014670726377516985,-0.004720172844827175,0.30695489048957825,-0.9517112374305725,0.0,0.0,0.0,0.0,0.0,0.0,0.0,0.0,0.0,-35.752105712890625,0.5663856267929077,-0.006033619400113821,0.0,0.0,0.0,0.0,0.0,0.0,0.0,0.0,0.0,-0.021468166261911392,0.004867835436016321,0.037116922438144684,0.0,0.0,0.0,0.0,0.0,0.0,0.0,0.0,0.0
1606987568932755776,1296866,1606983966545360583,imu_link,-0.0014670726377516985,-0.004720172844827175,0.30695489048957825,-0.9517112374305725,0.0,0.0,0.0,0.0,0.0,0.0,0.0,0.0,0.0,-35.752105712890625,0.5663856267929077,-0.006033619400113821,0.0,0.0,0.0,0.0,0.0,0.0,0.0,0.0,0.0,-0.021468166261911392,0.004867835436016321,0.037116922438144684,0.0,0.0,0.0,0.0,0.0,0.0,0.0,0.0,0.0
1606987568951796037,1296867,1606983966545443355,imu_link,-0.0014646378112956882,-0.004718793090432882,0.30695483088493347,-0.9517112970352173,0.0,0.0,0.0,0.0,0.0,0.0,0.0,0.0,0.0,-35.75210189819336,0.5661495327949524,-0.0062505812384188175,0.0,0.0,0.0,0.0,0.0,0.0,0.0,0.0,0.0,-0.024044718593358994,-0.008054109290242195,0.0505242757499218,0.0,0.0,0.0,0.0,0.0,0.0,0.0,0.0,0.0
1606987568951828669,1296868,1606983966545523701,imu_link,-0.0014646378112956882,-0.004718793090432882,0.30695483088493347,-0.9517112970352173,0.0,0.0,0.0,0.0,0.0,0.0,0.0,0.0,0.0,-35.75210189819336,0.5661495327949524,-0.0062505812384188175,0.0,0.0,0.0,0.0,0.0,0.0,0.0,0.0,0.0,-0.024044718593358994,-0.008054109290242195,0.0505242757499218,0.0,0.0,0.0,0.0,0.0,0.0,0.0,0.0,0.0
1606987568951851255,1296869,1606983966557827445,imu_link,-0.0014655524864792824,-0.004721364472061396,0.3069552779197693,-0.951711118221283,0.0,0.0,0.0,0.0,0.0,0.0,0.0,0.0,0.0,-35.75215530395508,0.5664620995521545,-0.006241550203412771,0.0,0.0,0.0,0.0,0.0,0.0,0.0,0.0,0.0,0.012251130305230618,-0.029983242973685265,0.047173500061035156,0.0,0.0,0.0,0.0,0.0,0.0,0.0,0.0,0.0
1606987568951867188,1296870,1606983966557939745,imu_link,-0.0014655524864792824,-0.004721364472061396,0.3069552779197693,-0.951711118221283,0.0,0.0,0.0,0.0,0.0,0.0,0.0,0.0,0.0,-35.75215530395508,0.5664620995521545,-0.006241550203412771,0.0,0.0,0.0,0.0,0.0,0.0,0.0,0.0,0.0,0.012251130305230618,-0.029983242973685265,0.047173500061035156,0.0,0.0,0.0,0.0,0.0,0.0,0.0,0.0,0.0
1606987568964741629,1296871,1606983966558024000,imu_link,-0.0014713832642883062,-0.004720769356936216,0.30695319175720215,-0.9517117738723755,0.0,0.0,0.0,0.0,0.0,0.0,0.0,0.0,0.0,-35.75190353393555,0.5666022896766663,-0.0055834585800766945,0.0,0.0,0.0,0.0,0.0,0.0,0.0,0.0,0.0,0.02307981811463833,-0.012603922747075558,0.021320462226867676,0.0,0.0,0.0,0.0,0.0,0.0,0.0,0.0,0.0
1606987568964788271,1296872,1606983966558112831,imu_link,-0.0014713832642883062,-0.004720769356936216,0.30695319175720215,-0.9517117738723755,0.0,0.0,0.0,0.0,0.0,0.0,0.0,0.0,0.0,-35.75190353393555,0.5666022896766663,-0.0055834585800766945,0.0,0.0,0.0,0.0,0.0,0.0,0.0,0.0,0.0,0.02307981811463833,-0.012603922747075558,0.021320462226867676,0.0,0.0,0.0,0.0,0.0,0.0,0.0,0.0,0.0
1606987568964808902,1296873,1606983966558193372,imu_link,-0.0014725800137966871,-0.0047170547768473625,0.30695387721061707,-0.9517115950584412,0.0,0.0,0.0,0.0,0.0,0.0,0.0,0.0,0.0,-35.75197982788086,0.5662392973899841,-0.00532267102971673,0.0,0.0,0.0,0.0,0.0,0.0,0.0,0.0,0.0,-0.004529689904302359,0.0029105176217854023,0.01484404131770134,0.0,0.0,0.0,0.0,0.0,0.0,0.0,0.0,0.0
1606987568964824985,1296874,1606983966558270240,imu_link,-0.0014725800137966871,-0.0047170547768473625,0.30695387721061707,-0.9517115950584412,0.0,0.0,0.0,0.0,0.0,0.0,0.0,0.0,0.0,-35.75197982788086,0.5662392973899841,-0.00532267102971673,0.0,0.0,0.0,0.0,0.0,0.0,0.0,0.0,0.0,-0.004529689904302359,0.0029105176217854023,0.01484404131770134,0.0,0.0,0.0,0.0,0.0,0.0,0.0,0.0,0.0
1606987568964846819,1296875,1606983966558369710,imu_link,-0.0014694506535306573,-0.004716176073998213,0.3069528341293335,-0.9517119526863098,0.0,0.0,0.0,0.0,0.0,0.0,0.0,0.0,0.0,-35.75185012817383,0.5660334229469299,-0.005632432177662849,0.0,0.0,0.0,0.0,0.0,0.0,0.0,0.0,0.0,0.0032544455025345087,-0.0025062153581529856,0.03136545419692993,0.0,0.0,0.0,0.0,0.0,0.0,0.0,0.0,0.0
1606987568974170257,1296876,1606983966558452366,imu_link,-0.0014694506535306573,-0.004716176073998213,0.3069528341293335,-0.9517119526863098,0.0,0.0,0.0,0.0,0.0,0.0,0.0,0.0,0.0,-35.75185012817383,0.5660334229469299,-0.005632432177662849,0.0,0.0,0.0,0.0,0.0,0.0,0.0,0.0,0.0,0.0032544455025345087,-0.0025062153581529856,0.03136545419692993,0.0,0.0,0.0,0.0,0.0,0.0,0.0,0.0,0.0
1606987568974218648,1296877,1606983966558536787,imu_link,-0.0014707527589052916,-0.004715973511338234,0.30695340037345886,-0.9517117738723755,0.0,0.0,0.0,0.0,0.0,0.0,0.0,0.0,0.0,-35.751922607421875,0.5660571455955505,-0.005483641289174557,0.0,0.0,0.0,0.0,0.0,0.0,0.0,0.0,0.0,0.003197696292772889,0.004956064745783806,0.020622901618480682,0.0,0.0,0.0,0.0,0.0,0.0,0.0,0.0,0.0
1606987568974242266,1296878,1606983966558616582,imu_link,-0.0014707527589052916,-0.004715973511338234,0.30695340037345886,-0.9517117738723755,0.0,0.0,0.0,0.0,0.0,0.0,0.0,0.0,0.0,-35.751922607421875,0.5660571455955505,-0.005483641289174557,0.0,0.0,0.0,0.0,0.0,0.0,0.0,0.0,0.0,0.003197696292772889,0.004956064745783806,0.020622901618480682,0.0,0.0,0.0,0.0,0.0,0.0,0.0,0.0,0.0
1606987568974254337,1296879,1606983966558706735,imu_link,-0.0014728527748957276,-0.004717689007520676,0.3069532513618469,-0.9517118334770203,0.0,0.0,0.0,0.0,0.0,0.0,0.0,0.0,0.0,-35.75190353393555,0.5663180947303772,-0.0053148530423641205,0.0,0.0,0.0,0.0,0.0,0.0,0.0,0.0,0.0,-0.00020465061243157834,0.006058845203369856,0.0039412216283380985,0.0,0.0,0.0,0.0,0.0,0.0,0.0,0.0,0.0
1606987569046887457,1296880,1606983966571958414,imu_link,-0.0014728527748957276,-0.004717689007520676,0.3069532513618469,-0.9517118334770203,0.0,0.0,0.0,0.0,0.0,0.0,0.0,0.0,0.0,-35.75190353393555,0.5663180947303772,-0.0053148530423641205,0.0,0.0,0.0,0.0,0.0,0.0,0.0,0.0,0.0,-0.00020465061243157834,0.006058845203369856,0.0039412216283380985,0.0,0.0,0.0,0.0,0.0,0.0,0.0,0.0,0.0
1606987569046912688,1296881,1606983966572093566,imu_link,-0.0014727198285982013,-0.004718122538179159,0.30695244669914246,-0.9517120718955994,0.0,0.0,0.0,0.0,0.0,0.0,0.0,0.0,0.0,-35.751808166503906,0.5663607120513916,-0.005344123113900423,0.0,0.0,0.0,0.0,0.0,0.0,0.0,0.0,0.0,0.0034545878879725933,-0.008006504736840725,0.009892016649246216,0.0,0.0,0.0,0.0,0.0,0.0,0.0,0.0,0.0
1606987569046970858,1296882,1606983966572273207,imu_link,-0.0014727198285982013,-0.004718122538179159,0.30695244669914246,-0.9517120718955994,0.0,0.0,0.0,0.0,0.0,0.0,0.0,0.0,0.0,-35.751808166503906,0.5663607120513916,-0.005344123113900423,0.0,0.0,0.0,0.0,0.0,0.0,0.0,0.0,0.0,0.0034545878879725933,-0.008006504736840725,0.009892016649246216,0.0,0.0,0.0,0.0,0.0,0.0,0.0,0.0,0.0
1606987569046989476,1296883,1606983966572373840,imu_link,-0.0014764281222596765,-0.004715792369097471,0.3069515824317932,-0.9517123103141785,0.0,0.0,0.0,0.0,0.0,0.0,0.0,0.0,0.0,-35.75170135498047,0.5662369728088379,-0.004857221618294716,0.0,0.0,0.0,0.0,0.0,0.0,0.0,0.0,0.0,-0.0017226324416697025,-0.0033943422604352236,0.02911599911749363,0.0,0.0,0.0,0.0,0.0,0.0,0.0,0.0,0.0
1606987569047009309,1296884,1606983966572518645,imu_link,-0.0014764281222596765,-0.004715792369097471,0.3069515824317932,-0.9517123103141785,0.0,0.0,0.0,0.0,0.0,0.0,0.0,0.0,0.0,-35.75170135498047,0.5662369728088379,-0.004857221618294716,0.0,0.0,0.0,0.0,0.0,0.0,0.0,0.0,0.0,-0.0017226324416697025,-0.0033943422604352236,0.02911599911749363,0.0,0.0,0.0,0.0,0.0,0.0,0.0,0.0,0.0
1606987569054576334,1296885,1606983966572606138,imu_link,-0.001476500416174531,-0.004713045433163643,0.30695340037345886,-0.9517117738723755,0.0,0.0,0.0,0.0,0.0,0.0,0.0,0.0,0.0,-35.75191879272461,0.5659399628639221,-0.004753775894641876,0.0,0.0,0.0,0.0,0.0,0.0,0.0,0.0,0.0,-0.007330005057156086,0.0036552120000123978,0.0409998893737793,0.0,0.0,0.0,0.0,0.0,0.0,0.0,0.0,0.0
1606987569054623385,1296886,1606983966572764228,imu_link,-0.001476500416174531,-0.004713045433163643,0.30695340037345886,-0.9517117738723755,0.0,0.0,0.0,0.0,0.0,0.0,0.0,0.0,0.0,-35.75191879272461,0.5659399628639221,-0.004753775894641876,0.0,0.0,0.0,0.0,0.0,0.0,0.0,0.0,0.0,-0.007330005057156086,0.0036552120000123978,0.0409998893737793,0.0,0.0,0.0,0.0,0.0,0.0,0.0,0.0,0.0
1606987569054636762,1296887,1606983966572850172,imu_link,-0.001473975949920714,-0.004708778578788042,0.3069554567337036,-0.9517111778259277,0.0,0.0,0.0,0.0,0.0,0.0,0.0,0.0,0.0,-35.752166748046875,0.5653858184814453,-0.0048802196979522705,0.0,0.0,0.0,0.0,0.0,0.0,0.0,0.0,0.0,-0.018128225579857826,-0.0055320230312645435,0.04267418012022972,0.0,0.0,0.0,0.0,0.0,0.0,0.0,0.0,0.0
1606987569054643398,1296888,1606983966573020366,imu_link,-0.001473975949920714,-0.004708778578788042,0.3069554567337036,-0.9517111778259277,0.0,0.0,0.0,0.0,0.0,0.0,0.0,0.0,0.0,-35.752166748046875,0.5653858184814453,-0.0048802196979522705,0.0,0.0,0.0,0.0,0.0,0.0,0.0,0.0,0.0,-0.018128225579857826,-0.0055320230312645435,0.04267418012022972,0.0,0.0,0.0,0.0,0.0,0.0,0.0,0.0,0.0
1606987569067120024,1296889,1606983966573103073,imu_link,-0.0014752352144569159,-0.00471014529466629,0.3069552183151245,-0.9517112374305725,0.0,0.0,0.0,0.0,0.0,0.0,0.0,0.0,0.0,-35.752140045166016,0.5655791163444519,-0.004790822975337505,0.0,0.0,0.0,0.0,0.0,0.0,0.0,0.0,0.0,-0.012424453161656857,0.005068122409284115,0.03852349892258644,0.0,0.0,0.0,0.0,0.0,0.0,0.0,0.0,0.0
1606987569067152466,1296890,1606983966573189152,imu_link,-0.0014752352144569159,-0.00471014529466629,0.3069552183151245,-0.9517112374305725,0.0,0.0,0.0,0.0,0.0,0.0,0.0,0.0,0.0,-35.752140045166016,0.5655791163444519,-0.004790822975337505,0.0,0.0,0.0,0.0,0.0,0.0,0.0,0.0,0.0,-0.012424453161656857,0.005068122409284115,0.03852349892258644,0.0,0.0,0.0,0.0,0.0,0.0,0.0,0.0,0.0
1606987569067170328,1296891,1606983966585197319,imu_link,-0.0014734958531334996,-0.004707385320216417,0.3069556653499603,-0.951711118221283,0.0,0.0,0.0,0.0,0.0,0.0,0.0,0.0,0.0,-35.75218963623047,0.5652169585227966,-0.004883701913058758,0.0,0.0,0.0,0.0,0.0,0.0,0.0,0.0,0.0,-0.011847607791423798,0.005712013691663742,0.026775674894452095,0.0,0.0,0.0,0.0,0.0,0.0,0.0,0.0,0.0
1606987569067220752,1296892,1606983966585309683,imu_link,-0.0014734958531334996,-0.004707385320216417,0.3069556653499603,-0.951711118221283,0.0,0.0,0.0,0.0,0.0,0.0,0.0,0.0,0.0,-35.75218963623047,0.5652169585227966,-0.004883701913058758,0.0,0.0,0.0,0.0,0.0,0.0,0.0,0.0,0.0,-0.011847607791423798,0.005712013691663742,0.026775674894452095,0.0,0.0,0.0,0.0,0.0,0.0,0.0,0.0,0.0
1606987569067239921,1296893,1606983966585439788,imu_link,-0.001473346957936883,-0.004708020016551018,0.306955486536026,-0.9517111778259277,0.0,0.0,0.0,0.0,0.0,0.0,0.0,0.0,0.0,-35.752166748046875,0.5652809739112854,-0.004922150168567896,0.0,0.0,0.0,0.0,0.0,0.0,0.0,0.0,0.0,-0.008137918077409267,0.006516587920486927,0.022828644141554832,0.0,0.0,0.0,0.0,0.0,0.0,0.0,0.0,0.0
1606987569076156863,1296894,1606983966585517156,imu_link,-0.001473346957936883,-0.004708020016551018,0.306955486536026,-0.9517111778259277,0.0,0.0,0.0,0.0,0.0,0.0,0.0,0.0,0.0,-35.752166748046875,0.5652809739112854,-0.004922150168567896,0.0,0.0,0.0,0.0,0.0,0.0,0.0,0.0,0.0,-0.008137918077409267,0.006516587920486927,0.022828644141554832,0.0,0.0,0.0,0.0,0.0,0.0,0.0,0.0,0.0
1606987569076177473,1296895,1606983966585579504,imu_link,-0.0014716662699356675,-0.0047042472288012505,0.3069535195827484,-0.9517117142677307,0.0,0.0,0.0,0.0,0.0,0.0,0.0,0.0,0.0,-35.75193786621094,0.5648103356361389,-0.00497159268707037,0.0,0.0,0.0,0.0,0.0,0.0,0.0,0.0,0.0,0.014528563246130943,0.012847344391047955,0.024926766753196716,0.0,0.0,0.0,0.0,0.0,0.0,0.0,0.0,0.0
1606987569076186264,1296896,1606983966585663154,imu_link,-0.0014716662699356675,-0.0047042472288012505,0.3069535195827484,-0.9517117142677307,0.0,0.0,0.0,0.0,0.0,0.0,0.0,0.0,0.0,-35.75193786621094,0.5648103356361389,-0.00497159268707037,0.0,0.0,0.0,0.0,0.0,0.0,0.0,0.0,0.0,0.014528563246130943,0.012847344391047955,0.024926766753196716,0.0,0.0,0.0,0.0,0.0,0.0,0.0,0.0,0.0
1606987569076219638,1296897,1606983966585729595,imu_link,-0.0014738423051312566,-0.004703194834291935,0.30695533752441406,-0.9517112374305725,0.0,0.0,0.0,0.0,0.0,0.0,0.0,0.0,0.0,-35.75214767456055,0.5647721290588379,-0.0046983035281300545,0.0,0.0,0.0,0.0,0.0,0.0,0.0,0.0,0.0,0.011321060359477997,0.005642829928547144,0.018663834780454636,0.0,0.0,0.0,0.0,0.0,0.0,0.0,0.0,0.0
1606987569260669368,1296898,1606983966585795263,imu_link,-0.0014738423051312566,-0.004703194834291935,0.30695533752441406,-0.9517112374305725,0.0,0.0,0.0,0.0,0.0,0.0,0.0,0.0,0.0,-35.75214767456055,0.5647721290588379,-0.0046983035281300545,0.0,0.0,0.0,0.0,0.0,0.0,0.0,0.0,0.0,0.011321060359477997,0.005642829928547144,0.018663834780454636,0.0,0.0,0.0,0.0,0.0,0.0,0.0,0.0,0.0
1606987569260695608,1296899,1606983966585862415,imu_link,-0.0014748505782335997,-0.004708178341388702,0.30695614218711853,-0.9517109394073486,0.0,0.0,0.0,0.0,0.0,0.0,0.0,0.0,0.0,-35.75224304199219,0.565351128578186,-0.004764127545058727,0.0,0.0,0.0,0.0,0.0,0.0,0.0,0.0,0.0,-0.0014546429738402367,-0.0018596895970404148,0.028819335624575615,0.0,0.0,0.0,0.0,0.0,0.0,0.0,0.0,0.0
1606987569260707711,1296900,1606983966585929566,imu_link,-0.0014748505782335997,-0.004708178341388702,0.30695614218711853,-0.9517109394073486,0.0,0.0,0.0,0.0,0.0,0.0,0.0,0.0,0.0,-35.75224304199219,0.565351128578186,-0.004764127545058727,0.0,0.0,0.0,0.0,0.0,0.0,0.0,0.0,0.0,-0.0014546429738402367,-0.0018596895970404148,0.028819335624575615,0.0,0.0,0.0,0.0,0.0,0.0,0.0,0.0,0.0
1606987569260731953,1296901,1606983966585996886,imu_link,-0.001474844291806221,-0.004707279149442911,0.3069543242454529,-0.9517115354537964,0.0,0.0,0.0,0.0,0.0,0.0,0.0,0.0,0.0,-35.75202560424805,0.5652528405189514,-0.004732109606266022,0.0,0.0,0.0,0.0,0.0,0.0,0.0,0.0,0.0,-0.007642447017133236,-0.01451412495225668,0.03309476748108864,0.0,0.0,0.0,0.0,0.0,0.0,0.0,0.0,0.0
1606987569276382321,1296902,1606983966598094711,imu_link,-0.001474844291806221,-0.004707279149442911,0.3069543242454529,-0.9517115354537964,0.0,0.0,0.0,0.0,0.0,0.0,0.0,0.0,0.0,-35.75202560424805,0.5652528405189514,-0.004732109606266022,0.0,0.0,0.0,0.0,0.0,0.0,0.0,0.0,0.0,-0.007642447017133236,-0.01451412495225668,0.03309476748108864,0.0,0.0,0.0,0.0,0.0,0.0,0.0,0.0,0.0
1606987569276412424,1296903,1606983966598205758,imu_link,-0.0014780490892007947,-0.004706158302724361,0.30695608258247375,-0.9517109394073486,0.0,0.0,0.0,0.0,0.0,0.0,0.0,0.0,0.0,-35.75223922729492,0.5652433037757874,-0.004344197455793619,0.0,0.0,0.0,0.0,0.0,0.0,0.0,0.0,0.0,-0.005242559593170881,-0.010224144905805588,0.023502500727772713,0.0,0.0,0.0,0.0,0.0,0.0,0.0,0.0,0.0
1606987569276424821,1296904,1606983966598290845,imu_link,-0.0014780490892007947,-0.004706158302724361,0.30695608258247375,-0.9517109394073486,0.0,0.0,0.0,0.0,0.0,0.0,0.0,0.0,0.0,-35.75223922729492,0.5652433037757874,-0.004344197455793619,0.0,0.0,0.0,0.0,0.0,0.0,0.0,0.0,0.0,-0.005242559593170881,-0.010224144905805588,0.023502500727772713,0.0,0.0,0.0,0.0,0.0,0.0,0.0,0.0,0.0
1606987569276435507,1296905,1606983966598370259,imu_link,-0.0014785362873226404,-0.00470776529982686,0.30695658922195435,-0.9517107605934143,0.0,0.0,0.0,0.0,0.0,0.0,0.0,0.0,0.0,-35.75230026245117,0.5654357075691223,-0.004347893409430981,0.0,0.0,0.0,0.0,0.0,0.0,0.0,0.0,0.0,-0.005955038592219353,0.014208645559847355,0.0377926267683506,0.0,0.0,0.0,0.0,0.0,0.0,0.0,0.0,0.0
1606987569276454724,1296906,1606983966598451807,imu_link,-0.0014785362873226404,-0.00470776529982686,0.30695658922195435,-0.9517107605934143,0.0,0.0,0.0,0.0,0.0,0.0,0.0,0.0,0.0,-35.75230026245117,0.5654357075691223,-0.004347893409430981,0.0,0.0,0.0,0.0,0.0,0.0,0.0,0.0,0.0,-0.005955038592219353,0.014208645559847355,0.0377926267683506,0.0,0.0,0.0,0.0,0.0,0.0,0.0,0.0,0.0
1606987569284170408,1296907,1606983966598558624,imu_link,-0.0014771996065974236,-0.004708771128207445,0.3069568872451782,-0.9517107009887695,0.0,0.0,0.0,0.0,0.0,0.0,0.0,0.0,0.0,-35.75233459472656,0.565498411655426,-0.004529222380369902,0.0,0.0,0.0,0.0,0.0,0.0,0.0,0.0,0.0,-0.006653599441051483,0.030353669077157974,0.03852618485689163,0.0,0.0,0.0,0.0,0.0,0.0,0.0,0.0,0.0
1606987569284244463,1296908,1606983966598640399,imu_link,-0.0014771996065974236,-0.004708771128207445,0.3069568872451782,-0.9517107009887695,0.0,0.0,0.0,0.0,0.0,0.0,0.0,0.0,0.0,-35.75233459472656,0.565498411655426,-0.004529222380369902,0.0,0.0,0.0,0.0,0.0,0.0,0.0,0.0,0.0,-0.006653599441051483,0.030353669077157974,0.03852618485689163,0.0,0.0,0.0,0.0,0.0,0.0,0.0,0.0,0.0
1606987569284273064,1296909,1606983966598773096,imu_link,-0.0014772575814276934,-0.004711089190095663,0.30695608258247375,-0.9517109394073486,0.0,0.0,0.0,0.0,0.0,0.0,0.0,0.0,0.0,-35.75223922729492,0.565753161907196,-0.004603971261531115,0.0,0.0,0.0,0.0,0.0,0.0,0.0,0.0,0.0,-0.0041975765489041805,0.013809997588396072,0.01557397935539484,0.0,0.0,0.0,0.0,0.0,0.0,0.0,0.0,0.0
1606987569284285982,1296910,1606983966598857787,imu_link,-0.0014772575814276934,-0.004711089190095663,0.30695608258247375,-0.9517109394073486,0.0,0.0,0.0,0.0,0.0,0.0,0.0,0.0,0.0,-35.75223922729492,0.565753161907196,-0.004603971261531115,0.0,0.0,0.0,0.0,0.0,0.0,0.0,0.0,0.0,-0.0041975765489041805,0.013809997588396072,0.01557397935539484,0.0,0.0,0.0,0.0,0.0,0.0,0.0,0.0,0.0
1606987569296166044,1296911,1606983966598930530,imu_link,-0.0014730948023498058,-0.004710401874035597,0.3069542646408081,-0.9517115354537964,0.0,0.0,0.0,0.0,0.0,0.0,0.0,0.0,0.0,-35.75202178955078,0.5655319094657898,-0.005032719578593969,0.0,0.0,0.0,0.0,0.0,0.0,0.0,0.0,0.0,-0.002078547840937972,-0.0024898936972022057,0.029114484786987305,0.0,0.0,0.0,0.0,0.0,0.0,0.0,0.0,0.0
1606987569296201985,1296912,1606983966612033710,imu_link,-0.0014730948023498058,-0.004710401874035597,0.3069542646408081,-0.9517115354537964,0.0,0.0,0.0,0.0,0.0,0.0,0.0,0.0,0.0,-35.75202178955078,0.5655319094657898,-0.005032719578593969,0.0,0.0,0.0,0.0,0.0,0.0,0.0,0.0,0.0,-0.002078547840937972,-0.0024898936972022057,0.029114484786987305,0.0,0.0,0.0,0.0,0.0,0.0,0.0,0.0,0.0
1606987569296216298,1296913,1606983966612169760,imu_link,-0.0014741288032382727,-0.004711173474788666,0.3069557845592499,-0.9517110586166382,0.0,0.0,0.0,0.0,0.0,0.0,0.0,0.0,0.0,-35.75220489501953,0.5656523704528809,-0.004947992041707039,0.0,0.0,0.0,0.0,0.0,0.0,0.0,0.0,0.0,-0.0022931674029678106,-0.005744957365095615,0.031865477561950684,0.0,0.0,0.0,0.0,0.0,0.0,0.0,0.0,0.0
1606987569296234004,1296914,1606983966612331078,imu_link,-0.0014741288032382727,-0.004711173474788666,0.3069557845592499,-0.9517110586166382,0.0,0.0,0.0,0.0,0.0,0.0,0.0,0.0,0.0,-35.75220489501953,0.5656523704528809,-0.004947992041707039,0.0,0.0,0.0,0.0,0.0,0.0,0.0,0.0,0.0,-0.0022931674029678106,-0.005744957365095615,0.031865477561950684,0.0,0.0,0.0,0.0,0.0,0.0,0.0,0.0,0.0
1606987569296265399,1296915,1606983966612432207,imu_link,-0.001473248121328652,-0.004707650281488895,0.3069542646408081,-0.9517115354537964,0.0,0.0,0.0,0.0,0.0,0.0,0.0,0.0,0.0,-35.752017974853516,0.5652371644973755,-0.0049192155711352825,0.0,0.0,0.0,0.0,0.0,0.0,0.0,0.0,0.0,-0.008310670033097267,-0.010431627742946148,0.006710468325763941,0.0,0.0,0.0,0.0,0.0,0.0,0.0,0.0,0.0
1606987569488596298,1296916,1606983966612521824,imu_link,-0.001473248121328652,-0.004707650281488895,0.3069542646408081,-0.9517115354537964,0.0,0.0,0.0,0.0,0.0,0.0,0.0,0.0,0.0,-35.752017974853516,0.5652371644973755,-0.0049192155711352825,0.0,0.0,0.0,0.0,0.0,0.0,0.0,0.0,0.0,-0.008310670033097267,-0.010431627742946148,0.006710468325763941,0.0,0.0,0.0,0.0,0.0,0.0,0.0,0.0,0.0
1606987569488617343,1296917,1606983966612603714,imu_link,-0.001472500036470592,-0.004707397427409887,0.3069542348384857,-0.9517115354537964,0.0,0.0,0.0,0.0,0.0,0.0,0.0,0.0,0.0,-35.75201416015625,0.5651832222938538,-0.004991883412003517,0.0,0.0,0.0,0.0,0.0,0.0,0.0,0.0,0.0,-0.0058156345039606094,-0.005264515522867441,0.013439228758215904,0.0,0.0,0.0,0.0,0.0,0.0,0.0,0.0,0.0
1606987569488629983,1296918,1606983966612706291,imu_link,-0.001472500036470592,-0.004707397427409887,0.3069542348384857,-0.9517115354537964,0.0,0.0,0.0,0.0,0.0,0.0,0.0,0.0,0.0,-35.75201416015625,0.5651832222938538,-0.004991883412003517,0.0,0.0,0.0,0.0,0.0,0.0,0.0,0.0,0.0,-0.0058156345039606094,-0.005264515522867441,0.013439228758215904,0.0,0.0,0.0,0.0,0.0,0.0,0.0,0.0,0.0
1606987569488643511,1296919,1606983966612789785,imu_link,-0.0014729317044839263,-0.004703618586063385,0.3069537281990051,-0.9517117142677307,0.0,0.0,0.0,0.0,0.0,0.0,0.0,0.0,0.0,-35.75196075439453,0.5647862553596497,-0.00481158122420311,0.0,0.0,0.0,0.0,0.0,0.0,0.0,0.0,0.0,0.003820064477622509,0.00413015391677618,0.03596752509474754,0.0,0.0,0.0,0.0,0.0,0.0,0.0,0.0,0.0
1606987569501979921,1296920,1606983966612870461,imu_link,-0.0014729317044839263,-0.004703618586063385,0.3069537281990051,-0.9517117142677307,0.0,0.0,0.0,0.0,0.0,0.0,0.0,0.0,0.0,-35.75196075439453,0.5647862553596497,-0.00481158122420311,0.0,0.0,0.0,0.0,0.0,0.0,0.0,0.0,0.0,0.003820064477622509,0.00413015391677618,0.03596752509474754,0.0,0.0,0.0,0.0,0.0,0.0,0.0,0.0,0.0
1606987569502022221,1296921,1606983966612953970,imu_link,-0.0014710727846249938,-0.004703874234110117,0.30695316195487976,-0.951711893081665,0.0,0.0,0.0,0.0,0.0,0.0,0.0,0.0,0.0,-35.75189208984375,0.5647487640380859,-0.005022980738431215,0.0,0.0,0.0,0.0,0.0,0.0,0.0,0.0,0.0,-0.008198105730116367,-0.007821404375135899,0.01928475871682167,0.0,0.0,0.0,0.0,0.0,0.0,0.0,0.0,0.0
1606987569502079488,1296922,1606983966613035654,imu_link,-0.0014710727846249938,-0.004703874234110117,0.30695316195487976,-0.951711893081665,0.0,0.0,0.0,0.0,0.0,0.0,0.0,0.0,0.0,-35.75189208984375,0.5647487640380859,-0.005022980738431215,0.0,0.0,0.0,0.0,0.0,0.0,0.0,0.0,0.0,-0.008198105730116367,-0.007821404375135899,0.01928475871682167,0.0,0.0,0.0,0.0,0.0,0.0,0.0,0.0,0.0
1606987569502092639,1296923,1606983966625432499,imu_link,-0.0014719944447278976,-0.004701987840235233,0.3069550693035126,-0.9517112970352173,0.0,0.0,0.0,0.0,0.0,0.0,0.0,0.0,0.0,-35.75212097167969,0.5645754933357239,-0.004857233259826899,0.0,0.0,0.0,0.0,0.0,0.0,0.0,0.0,0.0,-0.01652064360678196,-0.009608692489564419,0.025287382304668427,0.0,0.0,0.0,0.0,0.0,0.0,0.0,0.0,0.0
1606987569502100895,1296924,1606983966625568498,imu_link,-0.0014719944447278976,-0.004701987840235233,0.3069550693035126,-0.9517112970352173,0.0,0.0,0.0,0.0,0.0,0.0,0.0,0.0,0.0,-35.75212097167969,0.5645754933357239,-0.004857233259826899,0.0,0.0,0.0,0.0,0.0,0.0,0.0,0.0,0.0,-0.01652064360678196,-0.009608692489564419,0.025287382304668427,0.0,0.0,0.0,0.0,0.0,0.0,0.0,0.0,0.0
1606987569509879135,1296925,1606983966625726013,imu_link,-0.001473170006647706,-0.004699908662587404,0.30695587396621704,-0.9517110586166382,0.0,0.0,0.0,0.0,0.0,0.0,0.0,0.0,0.0,-35.75221252441406,0.5643900632858276,-0.0046563465148210526,0.0,0.0,0.0,0.0,0.0,0.0,0.0,0.0,0.0,-0.01239259447902441,0.0009246651898138225,0.05399973690509796,0.0,0.0,0.0,0.0,0.0,0.0,0.0,0.0,0.0
1606987569509913859,1296926,1606983966625823869,imu_link,-0.001473170006647706,-0.004699908662587404,0.30695587396621704,-0.9517110586166382,0.0,0.0,0.0,0.0,0.0,0.0,0.0,0.0,0.0,-35.75221252441406,0.5643900632858276,-0.0046563465148210526,0.0,0.0,0.0,0.0,0.0,0.0,0.0,0.0,0.0,-0.01239259447902441,0.0009246651898138225,0.05399973690509796,0.0,0.0,0.0,0.0,0.0,0.0,0.0,0.0,0.0
1606987569509925676,1296927,1606983966625908230,imu_link,-0.0014730701223015785,-0.004697529133409262,0.30695635080337524,-0.9517108201980591,0.0,0.0,0.0,0.0,0.0,0.0,0.0,0.0,0.0,-35.75227355957031,0.5641270279884338,-0.004583839327096939,0.0,0.0,0.0,0.0,0.0,0.0,0.0,0.0,0.0,-0.015378734096884727,-0.0010932855075225234,0.025512157008051872,0.0,0.0,0.0,0.0,0.0,0.0,0.0,0.0,0.0
1606987569509934379,1296928,1606983966625993111,imu_link,-0.0014730701223015785,-0.004697529133409262,0.30695635080337524,-0.9517108201980591,0.0,0.0,0.0,0.0,0.0,0.0,0.0,0.0,0.0,-35.75227355957031,0.5641270279884338,-0.004583839327096939,0.0,0.0,0.0,0.0,0.0,0.0,0.0,0.0,0.0,-0.015378734096884727,-0.0010932855075225234,0.025512157008051872,0.0,0.0,0.0,0.0,0.0,0.0,0.0,0.0,0.0
1606987569524159142,1296929,1606983966626104394,imu_link,-0.0014724539360031486,-0.0046972185373306274,0.30695807933807373,-0.9517103433609009,0.0,0.0,0.0,0.0,0.0,0.0,0.0,0.0,0.0,-35.752479553222656,0.564071536064148,-0.00464112451300025,0.0,0.0,0.0,0.0,0.0,0.0,0.0,0.0,0.0,-0.010421712882816792,0.005826351698487997,0.03727131709456444,0.0,0.0,0.0,0.0,0.0,0.0,0.0,0.0,0.0
1606987569524210087,1296930,1606983966626188168,imu_link,-0.0014724539360031486,-0.0046972185373306274,0.30695807933807373,-0.9517103433609009,0.0,0.0,0.0,0.0,0.0,0.0,0.0,0.0,0.0,-35.752479553222656,0.564071536064148,-0.00464112451300025,0.0,0.0,0.0,0.0,0.0,0.0,0.0,0.0,0.0,-0.010421712882816792,0.005826351698487997,0.03727131709456444,0.0,0.0,0.0,0.0,0.0,0.0,0.0,0.0,0.0
1606987569524244038,1296931,1606983966626273179,imu_link,-0.0014718360034748912,-0.004697724711149931,0.30695682764053345,-0.9517107605934143,0.0,0.0,0.0,0.0,0.0,0.0,0.0,0.0,0.0,-35.75232696533203,0.5641049742698669,-0.00472558569163084,0.0,0.0,0.0,0.0,0.0,0.0,0.0,0.0,0.0,-0.00178063428029418,0.006175775546580553,0.07770644128322601,0.0,0.0,0.0,0.0,0.0,0.0,0.0,0.0,0.0
1606987569524282758,1296932,1606983966626362892,imu_link,-0.0014718360034748912,-0.004697724711149931,0.30695682764053345,-0.9517107605934143,0.0,0.0,0.0,0.0,0.0,0.0,0.0,0.0,0.0,-35.75232696533203,0.5641049742698669,-0.00472558569163084,0.0,0.0,0.0,0.0,0.0,0.0,0.0,0.0,0.0,-0.00178063428029418,0.006175775546580553,0.07770644128322601,0.0,0.0,0.0,0.0,0.0,0.0,0.0,0.0,0.0
1606987569524307789,1296933,1606983966626442000,imu_link,-0.0014717457816004753,-0.004696566611528397,0.30695560574531555,-0.9517111778259277,0.0,0.0,0.0,0.0,0.0,0.0,0.0,0.0,0.0,-35.75218200683594,0.5639755725860596,-0.004693953786045313,0.0,0.0,0.0,0.0,0.0,0.0,0.0,0.0,0.0,0.004178155213594437,-0.009128827601671219,0.07476629316806793,0.0,0.0,0.0,0.0,0.0,0.0,0.0,0.0,0.0
1606987569682007933,1296934,1606983966639121499,imu_link,-0.0014717457816004753,-0.004696566611528397,0.30695560574531555,-0.9517111778259277,0.0,0.0,0.0,0.0,0.0,0.0,0.0,0.0,0.0,-35.75218200683594,0.5639755725860596,-0.004693953786045313,0.0,0.0,0.0,0.0,0.0,0.0,0.0,0.0,0.0,0.004178155213594437,-0.009128827601671219,0.07476629316806793,0.0,0.0,0.0,0.0,0.0,0.0,0.0,0.0,0.0
1606987569682027460,1296935,1606983966639234952,imu_link,-0.0014716944424435496,-0.0046986364759504795,0.306954562664032,-0.9517114758491516,0.0,0.0,0.0,0.0,0.0,0.0,0.0,0.0,0.0,-35.75205612182617,0.5641994476318359,-0.004771758336573839,0.0,0.0,0.0,0.0,0.0,0.0,0.0,0.0,0.0,-0.00654341746121645,-0.020982056856155396,0.03112906403839588,0.0,0.0,0.0,0.0,0.0,0.0,0.0,0.0,0.0
1606987569682034394,1296936,1606983966639353712,imu_link,-0.0014716944424435496,-0.0046986364759504795,0.306954562664032,-0.9517114758491516,0.0,0.0,0.0,0.0,0.0,0.0,0.0,0.0,0.0,-35.75205612182617,0.5641994476318359,-0.004771758336573839,0.0,0.0,0.0,0.0,0.0,0.0,0.0,0.0,0.0,-0.00654341746121645,-0.020982056856155396,0.03112906403839588,0.0,0.0,0.0,0.0,0.0,0.0,0.0,0.0,0.0
1606987569682042038,1296937,1606983966639440668,imu_link,-0.0014713609125465155,-0.004697976168245077,0.3069540560245514,-0.9517116546630859,0.0,0.0,0.0,0.0,0.0,0.0,0.0,0.0,0.0,-35.75199508666992,0.5641157031059265,-0.0047845919616520405,0.0,0.0,0.0,0.0,0.0,0.0,0.0,0.0,0.0,-0.012639126740396023,-0.019988713786005974,0.0062523698434233665,0.0,0.0,0.0,0.0,0.0,0.0,0.0,0.0,0.0
1606987569703532719,1296938,1606983966639522622,imu_link,-0.0014713609125465155,-0.004697976168245077,0.3069540560245514,-0.9517116546630859,0.0,0.0,0.0,0.0,0.0,0.0,0.0,0.0,0.0,-35.75199508666992,0.5641157031059265,-0.0047845919616520405,0.0,0.0,0.0,0.0,0.0,0.0,0.0,0.0,0.0,-0.012639126740396023,-0.019988713786005974,0.0062523698434233665,0.0,0.0,0.0,0.0,0.0,0.0,0.0,0.0,0.0
1606987569703588464,1296939,1606983966639606451,imu_link,-0.0014736833982169628,-0.004697134718298912,0.3069537878036499,-0.9517117142677307,0.0,0.0,0.0,0.0,0.0,0.0,0.0,0.0,0.0,-35.7519645690918,0.5641056299209595,-0.004501552786678076,0.0,0.0,0.0,0.0,0.0,0.0,0.0,0.0,0.0,0.004144330509006977,-0.015228213742375374,0.04646672308444977,0.0,0.0,0.0,0.0,0.0,0.0,0.0,0.0,0.0
1606987569703598511,1296940,1606983966639701501,imu_link,-0.0014736833982169628,-0.004697134718298912,0.3069537878036499,-0.9517117142677307,0.0,0.0,0.0,0.0,0.0,0.0,0.0,0.0,0.0,-35.7519645690918,0.5641056299209595,-0.004501552786678076,0.0,0.0,0.0,0.0,0.0,0.0,0.0,0.0,0.0,0.004144330509006977,-0.015228213742375374,0.04646672308444977,0.0,0.0,0.0,0.0,0.0,0.0,0.0,0.0,0.0
1606987569703619703,1296941,1606983966639781857,imu_link,-0.0014743845677003264,-0.0046998364850878716,0.3069530129432678,-0.9517119526863098,0.0,0.0,0.0,0.0,0.0,0.0,0.0,0.0,0.0,-35.751869201660156,0.5644249320030212,-0.004519656300544739,0.0,0.0,0.0,0.0,0.0,0.0,0.0,0.0,0.0,0.004764288663864136,0.006340985652059317,0.06263440102338791,0.0,0.0,0.0,0.0,0.0,0.0,0.0,0.0,0.0
1606987569703655576,1296942,1606983966639949596,imu_link,-0.0014743845677003264,-0.0046998364850878716,0.3069530129432678,-0.9517119526863098,0.0,0.0,0.0,0.0,0.0,0.0,0.0,0.0,0.0,-35.751869201660156,0.5644249320030212,-0.004519656300544739,0.0,0.0,0.0,0.0,0.0,0.0,0.0,0.0,0.0,0.004764288663864136,0.006340985652059317,0.06263440102338791,0.0,0.0,0.0,0.0,0.0,0.0,0.0,0.0,0.0
1606987569712118804,1296943,1606983966640032202,imu_link,-0.0014744296204298735,-0.004701821133494377,0.30695271492004395,-0.9517120122909546,0.0,0.0,0.0,0.0,0.0,0.0,0.0,0.0,0.0,-35.7518310546875,0.5646429061889648,-0.004584386479109526,0.0,0.0,0.0,0.0,0.0,0.0,0.0,0.0,0.0,-0.011655035428702831,0.006560481619089842,0.033349812030792236,0.0,0.0,0.0,0.0,0.0,0.0,0.0,0.0,0.0
1606987569712151992,1296944,1606983966640111465,imu_link,-0.0014744296204298735,-0.004701821133494377,0.30695271492004395,-0.9517120122909546,0.0,0.0,0.0,0.0,0.0,0.0,0.0,0.0,0.0,-35.7518310546875,0.5646429061889648,-0.004584386479109526,0.0,0.0,0.0,0.0,0.0,0.0,0.0,0.0,0.0,-0.011655035428702831,0.006560481619089842,0.033349812030792236,0.0,0.0,0.0,0.0,0.0,0.0,0.0,0.0,0.0
1606987569712165139,1296945,1606983966652607465,imu_link,-0.001475416123867035,-0.004701066296547651,0.30695295333862305,-0.9517119526863098,0.0,0.0,0.0,0.0,0.0,0.0,0.0,0.0,0.0,-35.751861572265625,0.5645953416824341,-0.0044503905810415745,0.0,0.0,0.0,0.0,0.0,0.0,0.0,0.0,0.0,-0.012713272124528885,-0.008580428548157215,0.014301938004791737,0.0,0.0,0.0,0.0,0.0,0.0,0.0,0.0,0.0
1606987569712175065,1296946,1606983966652719213,imu_link,-0.001475416123867035,-0.004701066296547651,0.30695295333862305,-0.9517119526863098,0.0,0.0,0.0,0.0,0.0,0.0,0.0,0.0,0.0,-35.751861572265625,0.5645953416824341,-0.0044503905810415745,0.0,0.0,0.0,0.0,0.0,0.0,0.0,0.0,0.0,-0.012713272124528885,-0.008580428548157215,0.014301938004791737,0.0,0.0,0.0,0.0,0.0,0.0,0.0,0.0,0.0
1606987569717201216,1296947,1606983966652808545,imu_link,-0.001476996229030192,-0.004700118210166693,0.306952565908432,-0.9517120718955994,0.0,0.0,0.0,0.0,0.0,0.0,0.0,0.0,0.0,-35.75181198120117,0.5645474791526794,-0.004244461189955473,0.0,0.0,0.0,0.0,0.0,0.0,0.0,0.0,0.0,-0.01613002084195614,0.007213004864752293,0.020938850939273834,0.0,0.0,0.0,0.0,0.0,0.0,0.0,0.0,0.0
1606987569717251928,1296948,1606983966652890425,imu_link,-0.001476996229030192,-0.004700118210166693,0.306952565908432,-0.9517120718955994,0.0,0.0,0.0,0.0,0.0,0.0,0.0,0.0,0.0,-35.75181198120117,0.5645474791526794,-0.004244461189955473,0.0,0.0,0.0,0.0,0.0,0.0,0.0,0.0,0.0,-0.01613002084195614,0.007213004864752293,0.020938850939273834,0.0,0.0,0.0,0.0,0.0,0.0,0.0,0.0,0.0
1606987569717274059,1296949,1606983966652965188,imu_link,-0.0014775878516957164,-0.0047016204334795475,0.3069533705711365,-0.9517118334770203,0.0,0.0,0.0,0.0,0.0,0.0,0.0,0.0,0.0,-35.75191116333008,0.5647321343421936,-0.004233268555253744,0.0,0.0,0.0,0.0,0.0,0.0,0.0,0.0,0.0,-0.002418381627649069,0.017878519371151924,0.038443900644779205,0.0,0.0,0.0,0.0,0.0,0.0,0.0,0.0,0.0
1606987569717294610,1296950,1606983966653060844,imu_link,-0.0014775878516957164,-0.0047016204334795475,0.3069533705711365,-0.9517118334770203,0.0,0.0,0.0,0.0,0.0,0.0,0.0,0.0,0.0,-35.75191116333008,0.5647321343421936,-0.004233268555253744,0.0,0.0,0.0,0.0,0.0,0.0,0.0,0.0,0.0,-0.002418381627649069,0.017878519371151924,0.038443900644779205,0.0,0.0,0.0,0.0,0.0,0.0,0.0,0.0,0.0
1606987569717320505,1296951,1606983966653143380,imu_link,-0.001475196098908782,-0.004703004844486713,0.3069555163383484,-0.9517111778259277,0.0,0.0,0.0,0.0,0.0,0.0,0.0,0.0,0.0,-35.75217056274414,0.5647990107536316,-0.0045440830290317535,0.0,0.0,0.0,0.0,0.0,0.0,0.0,0.0,0.0,0.020113926380872726,0.01767750456929207,0.03552359715104103,0.0,0.0,0.0,0.0,0.0,0.0,0.0,0.0,0.0
1606987569796590464,1296952,1606983966653222608,imu_link,-0.001475196098908782,-0.004703004844486713,0.3069555163383484,-0.9517111778259277,0.0,0.0,0.0,0.0,0.0,0.0,0.0,0.0,0.0,-35.75217056274414,0.5647990107536316,-0.0045440830290317535,0.0,0.0,0.0,0.0,0.0,0.0,0.0,0.0,0.0,0.020113926380872726,0.01767750456929207,0.03552359715104103,0.0,0.0,0.0,0.0,0.0,0.0,0.0,0.0,0.0
1606987569796629825,1296953,1606983966653301486,imu_link,-0.0014710392570123076,-0.004704294726252556,0.30695846676826477,-0.9517101049423218,0.0,0.0,0.0,0.0,0.0,0.0,0.0,0.0,0.0,-35.75252914428711,0.5647934079170227,-0.0050445799715816975,0.0,0.0,0.0,0.0,0.0,0.0,0.0,0.0,0.0,0.011445553041994572,-0.001321048359386623,0.01064750924706459,0.0,0.0,0.0,0.0,0.0,0.0,0.0,0.0,0.0
1606987569796645197,1296954,1606983966653379837,imu_link,-0.0014710392570123076,-0.004704294726252556,0.30695846676826477,-0.9517101049423218,0.0,0.0,0.0,0.0,0.0,0.0,0.0,0.0,0.0,-35.75252914428711,0.5647934079170227,-0.0050445799715816975,0.0,0.0,0.0,0.0,0.0,0.0,0.0,0.0,0.0,0.011445553041994572,-0.001321048359386623,0.01064750924706459,0.0,0.0,0.0,0.0,0.0,0.0,0.0,0.0,0.0
1606987569796660441,1296955,1606983966653460699,imu_link,-0.0014716841978952289,-0.004706901032477617,0.30696171522140503,-0.9517091512680054,0.0,0.0,0.0,0.0,0.0,0.0,0.0,0.0,0.0,-35.7529182434082,0.565100371837616,-0.005067832302302122,0.0,0.0,0.0,0.0,0.0,0.0,0.0,0.0,0.0,-0.002178068971261382,-0.015050944872200489,0.0012036710977554321,0.0,0.0,0.0,0.0,0.0,0.0,0.0,0.0,0.0
1606987569808318398,1296956,1606983966665495331,imu_link,-0.0014716841978952289,-0.004706901032477617,0.30696171522140503,-0.9517091512680054,0.0,0.0,0.0,0.0,0.0,0.0,0.0,0.0,0.0,-35.7529182434082,0.565100371837616,-0.005067832302302122,0.0,0.0,0.0,0.0,0.0,0.0,0.0,0.0,0.0,-0.002178068971261382,-0.015050944872200489,0.0012036710977554321,0.0,0.0,0.0,0.0,0.0,0.0,0.0,0.0,0.0
1606987569808362915,1296957,1606983966665608428,imu_link,-0.0014727796660736203,-0.00470608938485384,0.30696049332618713,-0.9517095685005188,0.0,0.0,0.0,0.0,0.0,0.0,0.0,0.0,0.0,-35.75276565551758,0.5650504231452942,-0.004919081460684538,0.0,0.0,0.0,0.0,0.0,0.0,0.0,0.0,0.0,-0.014736302196979523,-0.015644900500774384,0.016587309539318085,0.0,0.0,0.0,0.0,0.0,0.0,0.0,0.0,0.0
1606987569808393175,1296958,1606983966665694176,imu_link,-0.0014727796660736203,-0.00470608938485384,0.30696049332618713,-0.9517095685005188,0.0,0.0,0.0,0.0,0.0,0.0,0.0,0.0,0.0,-35.75276565551758,0.5650504231452942,-0.004919081460684538,0.0,0.0,0.0,0.0,0.0,0.0,0.0,0.0,0.0,-0.014736302196979523,-0.015644900500774384,0.016587309539318085,0.0,0.0,0.0,0.0,0.0,0.0,0.0,0.0,0.0
1606987569808410529,1296959,1606983966665777003,imu_link,-0.0014726415975019336,-0.004705417901277542,0.3069629371166229,-0.9517087936401367,0.0,0.0,0.0,0.0,0.0,0.0,0.0,0.0,0.0,-35.75305938720703,0.5649723410606384,-0.004911970812827349,0.0,0.0,0.0,0.0,0.0,0.0,0.0,0.0,0.0,-0.008816255256533623,-0.020165670663118362,0.04953533783555031,0.0,0.0,0.0,0.0,0.0,0.0,0.0,0.0,0.0
1606987569808434039,1296960,1606983966665850102,imu_link,-0.0014726415975019336,-0.004705417901277542,0.3069629371166229,-0.9517087936401367,0.0,0.0,0.0,0.0,0.0,0.0,0.0,0.0,0.0,-35.75305938720703,0.5649723410606384,-0.004911970812827349,0.0,0.0,0.0,0.0,0.0,0.0,0.0,0.0,0.0,-0.008816255256533623,-0.020165670663118362,0.04953533783555031,0.0,0.0,0.0,0.0,0.0,0.0,0.0,0.0,0.0
1606987569813586851,1296961,1606983966665945739,imu_link,-0.0014740598853677511,-0.004703810904175043,0.3069623112678528,-0.951708972454071,0.0,0.0,0.0,0.0,0.0,0.0,0.0,0.0,0.0,-35.752986907958984,0.5648468732833862,-0.004700398072600365,0.0,0.0,0.0,0.0,0.0,0.0,0.0,0.0,0.0,-0.00031334179220721126,-0.0019823566544800997,0.06982436776161194,0.0,0.0,0.0,0.0,0.0,0.0,0.0,0.0,0.0
1606987569813620174,1296962,1606983966666028966,imu_link,-0.0014740598853677511,-0.004703810904175043,0.3069623112678528,-0.951708972454071,0.0,0.0,0.0,0.0,0.0,0.0,0.0,0.0,0.0,-35.752986907958984,0.5648468732833862,-0.004700398072600365,0.0,0.0,0.0,0.0,0.0,0.0,0.0,0.0,0.0,-0.00031334179220721126,-0.0019823566544800997,0.06982436776161194,0.0,0.0,0.0,0.0,0.0,0.0,0.0,0.0,0.0
1606987569813644361,1296963,1606983966666118463,imu_link,-0.0014749597758054733,-0.004702508449554443,0.3069639205932617,-0.9517084360122681,0.0,0.0,0.0,0.0,0.0,0.0,0.0,0.0,0.0,-35.75318145751953,0.5647364854812622,-0.004557384178042412,0.0,0.0,0.0,0.0,0.0,0.0,0.0,0.0,0.0,-0.005179193336516619,0.024231677874922752,0.04146824777126312,0.0,0.0,0.0,0.0,0.0,0.0,0.0,0.0,0.0
1606987569813658680,1296964,1606983966666199796,imu_link,-0.0014749597758054733,-0.004702508449554443,0.3069639205932617,-0.9517084360122681,0.0,0.0,0.0,0.0,0.0,0.0,0.0,0.0,0.0,-35.75318145751953,0.5647364854812622,-0.004557384178042412,0.0,0.0,0.0,0.0,0.0,0.0,0.0,0.0,0.0,-0.005179193336516619,0.024231677874922752,0.04146824777126312,0.0,0.0,0.0,0.0,0.0,0.0,0.0,0.0,0.0
1606987569853213932,1296965,1606983966666285831,imu_link,-0.0014749444089829922,-0.004703152924776077,0.306964248418808,-0.9517083168029785,0.0,0.0,0.0,0.0,0.0,0.0,0.0,0.0,0.0,-35.75322341918945,0.5648062229156494,-0.004581931512802839,0.0,0.0,0.0,0.0,0.0,0.0,0.0,0.0,0.0,0.007436574436724186,0.015050279907882214,0.05158497020602226,0.0,0.0,0.0,0.0,0.0,0.0,0.0,0.0,0.0
1606987569853300065,1296966,1606983966679341104,imu_link,-0.0014749444089829922,-0.004703152924776077,0.306964248418808,-0.9517083168029785,0.0,0.0,0.0,0.0,0.0,0.0,0.0,0.0,0.0,-35.75322341918945,0.5648062229156494,-0.004581931512802839,0.0,0.0,0.0,0.0,0.0,0.0,0.0,0.0,0.0,0.007436574436724186,0.015050279907882214,0.05158497020602226,0.0,0.0,0.0,0.0,0.0,0.0,0.0,0.0,0.0
1606987569853327085,1296967,1606983966679485303,imu_link,-0.0014755415031686425,-0.0047067804262042046,0.30696365237236023,-0.9517084360122681,0.0,0.0,0.0,0.0,0.0,0.0,0.0,0.0,0.0,-35.753150939941406,0.5652228593826294,-0.004644074011594057,0.0,0.0,0.0,0.0,0.0,0.0,0.0,0.0,0.0,0.02624097652733326,-0.0033226097002625465,0.05762395262718201,0.0,0.0,0.0,0.0,0.0,0.0,0.0,0.0,0.0
1606987569853360815,1296968,1606983966679637400,imu_link,-0.0014755415031686425,-0.0047067804262042046,0.30696365237236023,-0.9517084360122681,0.0,0.0,0.0,0.0,0.0,0.0,0.0,0.0,0.0,-35.753150939941406,0.5652228593826294,-0.004644074011594057,0.0,0.0,0.0,0.0,0.0,0.0,0.0,0.0,0.0,0.02624097652733326,-0.0033226097002625465,0.05762395262718201,0.0,0.0,0.0,0.0,0.0,0.0,0.0,0.0,0.0
1606987569853384127,1296969,1606983966679730440,imu_link,-0.001476013334468007,-0.004706485662609339,0.30696284770965576,-0.9517087340354919,0.0,0.0,0.0,0.0,0.0,0.0,0.0,0.0,0.0,-35.753055572509766,0.5652073621749878,-0.004581758752465248,0.0,0.0,0.0,0.0,0.0,0.0,0.0,0.0,0.0,0.033533256500959396,-0.011537509970366955,0.026641132310032845,0.0,0.0,0.0,0.0,0.0,0.0,0.0,0.0,0.0
1606987569968130796,1296970,1606983966679806777,imu_link,-0.001476013334468007,-0.004706485662609339,0.30696284770965576,-0.9517087340354919,0.0,0.0,0.0,0.0,0.0,0.0,0.0,0.0,0.0,-35.753055572509766,0.5652073621749878,-0.004581758752465248,0.0,0.0,0.0,0.0,0.0,0.0,0.0,0.0,0.0,0.033533256500959396,-0.011537509970366955,0.026641132310032845,0.0,0.0,0.0,0.0,0.0,0.0,0.0,0.0,0.0
1606987569968158658,1296971,1606983966679889509,imu_link,-0.001478319289162755,-0.0047101667150855064,0.30696016550064087,-0.9517095685005188,0.0,0.0,0.0,0.0,0.0,0.0,0.0,0.0,0.0,-35.75273132324219,0.5656899213790894,-0.00445816945284605,0.0,0.0,0.0,0.0,0.0,0.0,0.0,0.0,0.0,0.024436306208372116,-0.002229113597422838,0.027072127908468246,0.0,0.0,0.0,0.0,0.0,0.0,0.0,0.0,0.0
1606987569968173780,1296972,1606983966679990578,imu_link,-0.001478319289162755,-0.0047101667150855064,0.30696016550064087,-0.9517095685005188,0.0,0.0,0.0,0.0,0.0,0.0,0.0,0.0,0.0,-35.75273132324219,0.5656899213790894,-0.00445816945284605,0.0,0.0,0.0,0.0,0.0,0.0,0.0,0.0,0.0,0.024436306208372116,-0.002229113597422838,0.027072127908468246,0.0,0.0,0.0,0.0,0.0,0.0,0.0,0.0,0.0
1606987569968215496,1296973,1606983966680071234,imu_link,-0.0014781135832890868,-0.004711022134870291,0.3069609999656677,-0.9517093300819397,0.0,0.0,0.0,0.0,0.0,0.0,0.0,0.0,0.0,-35.752830505371094,0.565775990486145,-0.004511185921728611,0.0,0.0,0.0,0.0,0.0,0.0,0.0,0.0,0.0,0.012708766385912895,-0.009571620263159275,0.04156487062573433,0.0,0.0,0.0,0.0,0.0,0.0,0.0,0.0,0.0
1606987569975807067,1296974,1606983966680231906,imu_link,-0.0014781135832890868,-0.004711022134870291,0.3069609999656677,-0.9517093300819397,0.0,0.0,0.0,0.0,0.0,0.0,0.0,0.0,0.0,-35.752830505371094,0.565775990486145,-0.004511185921728611,0.0,0.0,0.0,0.0,0.0,0.0,0.0,0.0,0.0,0.012708766385912895,-0.009571620263159275,0.04156487062573433,0.0,0.0,0.0,0.0,0.0,0.0,0.0,0.0,0.0
1606987569975854099,1296975,1606983966680315966,imu_link,-0.0014778992626816034,-0.004711624700576067,0.3069591224193573,-0.9517099261283875,0.0,0.0,0.0,0.0,0.0,0.0,0.0,0.0,0.0,-35.75260543823242,0.565834105014801,-0.0045546372421085835,0.0,0.0,0.0,0.0,0.0,0.0,0.0,0.0,0.0,0.01048919279128313,-0.021662332117557526,0.043452296406030655,0.0,0.0,0.0,0.0,0.0,0.0,0.0,0.0,0.0
1606987569975885428,1296976,1606983966680391861,imu_link,-0.0014778992626816034,-0.004711624700576067,0.3069591224193573,-0.9517099261283875,0.0,0.0,0.0,0.0,0.0,0.0,0.0,0.0,0.0,-35.75260543823242,0.565834105014801,-0.0045546372421085835,0.0,0.0,0.0,0.0,0.0,0.0,0.0,0.0,0.0,0.01048919279128313,-0.021662332117557526,0.043452296406030655,0.0,0.0,0.0,0.0,0.0,0.0,0.0,0.0,0.0
1606987569975907820,1296977,1606983966692881491,imu_link,-0.0014769576955586672,-0.004711764864623547,0.30695730447769165,-0.9517105221748352,0.0,0.0,0.0,0.0,0.0,0.0,0.0,0.0,0.0,-35.75238800048828,0.565816342830658,-0.004661176819354296,0.0,0.0,0.0,0.0,0.0,0.0,0.0,0.0,0.0,0.007969015277922153,0.00018154758436139673,0.029605912044644356,0.0,0.0,0.0,0.0,0.0,0.0,0.0,0.0,0.0
1606987569991482527,1296978,1606983966693020232,imu_link,-0.0014769576955586672,-0.004711764864623547,0.30695730447769165,-0.9517105221748352,0.0,0.0,0.0,0.0,0.0,0.0,0.0,0.0,0.0,-35.75238800048828,0.565816342830658,-0.004661176819354296,0.0,0.0,0.0,0.0,0.0,0.0,0.0,0.0,0.0,0.007969015277922153,0.00018154758436139673,0.029605912044644356,0.0,0.0,0.0,0.0,0.0,0.0,0.0,0.0,0.0
1606987569991523251,1296979,1606983966693166912,imu_link,-0.0014770081033930182,-0.004713063128292561,0.30695822834968567,-0.9517102241516113,0.0,0.0,0.0,0.0,0.0,0.0,0.0,0.0,0.0,-35.752498626708984,0.5659596920013428,-0.00470189331099391,0.0,0.0,0.0,0.0,0.0,0.0,0.0,0.0,0.0,0.012022465467453003,0.00393341900780797,0.03405056521296501,0.0,0.0,0.0,0.0,0.0,0.0,0.0,0.0,0.0
1606987569991606106,1296980,1606983966693263174,imu_link,-0.0014770081033930182,-0.004713063128292561,0.30695822834968567,-0.9517102241516113,0.0,0.0,0.0,0.0,0.0,0.0,0.0,0.0,0.0,-35.752498626708984,0.5659596920013428,-0.00470189331099391,0.0,0.0,0.0,0.0,0.0,0.0,0.0,0.0,0.0,0.012022465467453003,0.00393341900780797,0.03405056521296501,0.0,0.0,0.0,0.0,0.0,0.0,0.0,0.0,0.0
1606987569991638260,1296981,1606983966693349740,imu_link,-0.00147733255289495,-0.004713845904916525,0.3069593906402588,-0.9517098069190979,0.0,0.0,0.0,0.0,0.0,0.0,0.0,0.0,0.0,-35.75263595581055,0.566056489944458,-0.0046947430819272995,0.0,0.0,0.0,0.0,0.0,0.0,0.0,0.0,0.0,0.012467521242797375,-0.0010709775378927588,0.04131048172712326,0.0,0.0,0.0,0.0,0.0,0.0,0.0,0.0,0.0
1606987569991725241,1296982,1606983966693430958,imu_link,-0.00147733255289495,-0.004713845904916525,0.3069593906402588,-0.9517098069190979,0.0,0.0,0.0,0.0,0.0,0.0,0.0,0.0,0.0,-35.75263595581055,0.566056489944458,-0.0046947430819272995,0.0,0.0,0.0,0.0,0.0,0.0,0.0,0.0,0.0,0.012467521242797375,-0.0010709775378927588,0.04131048172712326,0.0,0.0,0.0,0.0,0.0,0.0,0.0,0.0,0.0
1606987569998452896,1296983,1606983966693532092,imu_link,-0.0014767922693863511,-0.004715578630566597,0.30695927143096924,-0.9517098069190979,0.0,0.0,0.0,0.0,0.0,0.0,0.0,0.0,0.0,-35.752628326416016,0.5662264227867126,-0.004814557731151581,0.0,0.0,0.0,0.0,0.0,0.0,0.0,0.0,0.0,0.0014419227372854948,-0.004093872383236885,0.034036945551633835,0.0,0.0,0.0,0.0,0.0,0.0,0.0,0.0,0.0
1606987569998490243,1296984,1606983966693618111,imu_link,-0.0014767922693863511,-0.004715578630566597,0.30695927143096924,-0.9517098069190979,0.0,0.0,0.0,0.0,0.0,0.0,0.0,0.0,0.0,-35.752628326416016,0.5662264227867126,-0.004814557731151581,0.0,0.0,0.0,0.0,0.0,0.0,0.0,0.0,0.0,0.0014419227372854948,-0.004093872383236885,0.034036945551633835,0.0,0.0,0.0,0.0,0.0,0.0,0.0,0.0,0.0
1606987569998527494,1296985,1606983966693698938,imu_link,-0.0014777209144085646,-0.004715670831501484,0.30696094036102295,-0.9517093300819397,0.0,0.0,0.0,0.0,0.0,0.0,0.0,0.0,0.0,-35.75282669067383,0.5662691593170166,-0.0047175027430057526,0.0,0.0,0.0,0.0,0.0,0.0,0.0,0.0,0.0,-0.005508073139935732,-0.009033191949129105,0.03824339061975479,0.0,0.0,0.0,0.0,0.0,0.0,0.0,0.0,0.0
1606987569998543231,1296986,1606983966693779945,imu_link,-0.0014777209144085646,-0.004715670831501484,0.30696094036102295,-0.9517093300819397,0.0,0.0,0.0,0.0,0.0,0.0,0.0,0.0,0.0,-35.75282669067383,0.5662691593170166,-0.0047175027430057526,0.0,0.0,0.0,0.0,0.0,0.0,0.0,0.0,0.0,-0.005508073139935732,-0.009033191949129105,0.03824339061975479,0.0,0.0,0.0,0.0,0.0,0.0,0.0,0.0,0.0
1606987570171147188,1296987,1606983966693861905,imu_link,-0.0014786573592573404,-0.004714647773653269,0.30696022510528564,-0.951709508895874,0.0,0.0,0.0,0.0,0.0,0.0,0.0,0.0,0.0,-35.75273895263672,0.5661905407905579,-0.004578971769660711,0.0,0.0,0.0,0.0,0.0,0.0,0.0,0.0,0.0,-0.02429354004561901,-0.001115582068450749,0.04520272836089134,0.0,0.0,0.0,0.0,0.0,0.0,0.0,0.0,0.0
1606987570171169542,1296988,1606983966706663111,imu_link,-0.0014786573592573404,-0.004714647773653269,0.30696022510528564,-0.951709508895874,0.0,0.0,0.0,0.0,0.0,0.0,0.0,0.0,0.0,-35.75273895263672,0.5661905407905579,-0.004578971769660711,0.0,0.0,0.0,0.0,0.0,0.0,0.0,0.0,0.0,-0.02429354004561901,-0.001115582068450749,0.04520272836089134,0.0,0.0,0.0,0.0,0.0,0.0,0.0,0.0,0.0
1606987570171197088,1296989,1606983966706804864,imu_link,-0.0014794801827520132,-0.004713407717645168,0.3069608509540558,-0.9517093300819397,0.0,0.0,0.0,0.0,0.0,0.0,0.0,0.0,0.0,-35.75281524658203,0.5660842061042786,-0.004445976577699184,0.0,0.0,0.0,0.0,0.0,0.0,0.0,0.0,0.0,-0.03495175018906593,0.015860380604863167,0.023154623806476593,0.0,0.0,0.0,0.0,0.0,0.0,0.0,0.0,0.0
1606987570171204182,1296990,1606983966706981097,imu_link,-0.0014794801827520132,-0.004713407717645168,0.3069608509540558,-0.9517093300819397,0.0,0.0,0.0,0.0,0.0,0.0,0.0,0.0,0.0,-35.75281524658203,0.5660842061042786,-0.004445976577699184,0.0,0.0,0.0,0.0,0.0,0.0,0.0,0.0,0.0,-0.03495175018906593,0.015860380604863167,0.023154623806476593,0.0,0.0,0.0,0.0,0.0,0.0,0.0,0.0,0.0
1606987570171234149,1296991,1606983966707082206,imu_link,-0.0014767944812774658,-0.004710446577519178,0.30696016550064087,-0.9517095685005188,0.0,0.0,0.0,0.0,0.0,0.0,0.0,0.0,0.0,-35.75273513793945,0.5656667947769165,-0.004634321667253971,0.0,0.0,0.0,0.0,0.0,0.0,0.0,0.0,0.0,-0.015088779851794243,0.017911089584231377,0.007760729640722275,0.0,0.0,0.0,0.0,0.0,0.0,0.0,0.0,0.0
1606987570178477025,1296992,1606983966707160427,imu_link,-0.0014767944812774658,-0.004710446577519178,0.30696016550064087,-0.9517095685005188,0.0,0.0,0.0,0.0,0.0,0.0,0.0,0.0,0.0,-35.75273513793945,0.5656667947769165,-0.004634321667253971,0.0,0.0,0.0,0.0,0.0,0.0,0.0,0.0,0.0,-0.015088779851794243,0.017911089584231377,0.007760729640722275,0.0,0.0,0.0,0.0,0.0,0.0,0.0,0.0,0.0
1606987570178500920,1296993,1606983966707262613,imu_link,-0.0014760831836611032,-0.00471178675070405,0.3069606423377991,-0.9517094492912292,0.0,0.0,0.0,0.0,0.0,0.0,0.0,0.0,0.0,-35.75279235839844,0.5657879710197449,-0.004759312607347965,0.0,0.0,0.0,0.0,0.0,0.0,0.0,0.0,0.0,-0.010739345103502274,0.015125665813684464,0.0153330834582448,0.0,0.0,0.0,0.0,0.0,0.0,0.0,0.0,0.0
1606987570178529068,1296994,1606983966707345826,imu_link,-0.0014760831836611032,-0.00471178675070405,0.3069606423377991,-0.9517094492912292,0.0,0.0,0.0,0.0,0.0,0.0,0.0,0.0,0.0,-35.75279235839844,0.5657879710197449,-0.004759312607347965,0.0,0.0,0.0,0.0,0.0,0.0,0.0,0.0,0.0,-0.010739345103502274,0.015125665813684464,0.0153330834582448,0.0,0.0,0.0,0.0,0.0,0.0,0.0,0.0,0.0
1606987570178538226,1296995,1606983966707427625,imu_link,-0.0014736353186890483,-0.004711035173386335,0.30695977807044983,-0.9517096877098083,0.0,0.0,0.0,0.0,0.0,0.0,0.0,0.0,0.0,-35.752689361572266,0.5656198263168335,-0.004999341443181038,0.0,0.0,0.0,0.0,0.0,0.0,0.0,0.0,0.0,-0.01401559542864561,0.013851533643901348,0.033483412116765976,0.0,0.0,0.0,0.0,0.0,0.0,0.0,0.0,0.0
1606987570178552364,1296996,1606983966707506999,imu_link,-0.0014736353186890483,-0.004711035173386335,0.30695977807044983,-0.9517096877098083,0.0,0.0,0.0,0.0,0.0,0.0,0.0,0.0,0.0,-35.752689361572266,0.5656198263168335,-0.004999341443181038,0.0,0.0,0.0,0.0,0.0,0.0,0.0,0.0,0.0,-0.01401559542864561,0.013851533643901348,0.033483412116765976,0.0,0.0,0.0,0.0,0.0,0.0,0.0,0.0,0.0
1606987570178576896,1296997,1606983966707585360,imu_link,-0.0014748267130926251,-0.0047108326107263565,0.30696195363998413,-0.951708972454071,0.0,0.0,0.0,0.0,0.0,0.0,0.0,0.0,0.0,-35.752952575683594,0.5656396746635437,-0.0048635718412697315,0.0,0.0,0.0,0.0,0.0,0.0,0.0,0.0,0.0,-0.004875455982983112,-0.009790061041712761,0.03449670970439911,0.0,0.0,0.0,0.0,0.0,0.0,0.0,0.0,0.0
1606987570178597451,1296998,1606983966707666032,imu_link,-0.0014748267130926251,-0.0047108326107263565,0.30696195363998413,-0.951708972454071,0.0,0.0,0.0,0.0,0.0,0.0,0.0,0.0,0.0,-35.752952575683594,0.5656396746635437,-0.0048635718412697315,0.0,0.0,0.0,0.0,0.0,0.0,0.0,0.0,0.0,-0.004875455982983112,-0.009790061041712761,0.03449670970439911,0.0,0.0,0.0,0.0,0.0,0.0,0.0,0.0,0.0
1606987570178629893,1296999,1606983966719552882,imu_link,-0.0014774998417124152,-0.004710223991423845,0.30696114897727966,-0.9517092704772949,0.0,0.0,0.0,0.0,0.0,0.0,0.0,0.0,0.0,-35.75285339355469,0.5656673312187195,-0.004550128243863583,0.0,0.0,0.0,0.0,0.0,0.0,0.0,0.0,0.0,0.0025900662876665592,-0.012607653625309467,0.020466623827815056,0.0,0.0,0.0,0.0,0.0,0.0,0.0,0.0,0.0
1606987570178650112,1297000,1606983966719709820,imu_link,-0.0014774998417124152,-0.004710223991423845,0.30696114897727966,-0.9517092704772949,0.0,0.0,0.0,0.0,0.0,0.0,0.0,0.0,0.0,-35.75285339355469,0.5656673312187195,-0.004550128243863583,0.0,0.0,0.0,0.0,0.0,0.0,0.0,0.0,0.0,0.0025900662876665592,-0.012607653625309467,0.020466623827815056,0.0,0.0,0.0,0.0,0.0,0.0,0.0,0.0,0.0
1606987570190611785,1297001,1606983966719841530,imu_link,-0.0014789594570174813,-0.0047095720656216145,0.30696192383766174,-0.9517090320587158,0.0,0.0,0.0,0.0,0.0,0.0,0.0,0.0,0.0,-35.7529411315918,0.5656476020812988,-0.004368465393781662,0.0,0.0,0.0,0.0,0.0,0.0,0.0,0.0,0.0,-0.0010721058351919055,-0.006452901754528284,0.019223567098379135,0.0,0.0,0.0,0.0,0.0,0.0,0.0,0.0,0.0
1606987570190630594,1297002,1606983966719928315,imu_link,-0.0014789594570174813,-0.0047095720656216145,0.30696192383766174,-0.9517090320587158,0.0,0.0,0.0,0.0,0.0,0.0,0.0,0.0,0.0,-35.7529411315918,0.5656476020812988,-0.004368465393781662,0.0,0.0,0.0,0.0,0.0,0.0,0.0,0.0,0.0,-0.0010721058351919055,-0.006452901754528284,0.019223567098379135,0.0,0.0,0.0,0.0,0.0,0.0,0.0,0.0,0.0
1606987570190718041,1297003,1606983966720013037,imu_link,-0.001480001024901867,-0.004709326662123203,0.30696365237236023,-0.9517084956169128,0.0,0.0,0.0,0.0,0.0,0.0,0.0,0.0,0.0,-35.75314712524414,0.5656574368476868,-0.004247263539582491,0.0,0.0,0.0,0.0,0.0,0.0,0.0,0.0,0.0,-0.01770312525331974,-0.01221739873290062,0.03104722872376442,0.0,0.0,0.0,0.0,0.0,0.0,0.0,0.0,0.0
1606987570190727946,1297004,1606983966720115734,imu_link,-0.001480001024901867,-0.004709326662123203,0.30696365237236023,-0.9517084956169128,0.0,0.0,0.0,0.0,0.0,0.0,0.0,0.0,0.0,-35.75314712524414,0.5656574368476868,-0.004247263539582491,0.0,0.0,0.0,0.0,0.0,0.0,0.0,0.0,0.0,-0.01770312525331974,-0.01221739873290062,0.03104722872376442,0.0,0.0,0.0,0.0,0.0,0.0,0.0,0.0,0.0
1606987570389012382,1297005,1606983966720201237,imu_link,-0.0014794133603572845,-0.0047095404006540775,0.30696389079093933,-0.9517084360122681,0.0,0.0,0.0,0.0,0.0,0.0,0.0,0.0,0.0,-35.753177642822266,0.5656600594520569,-0.004319010302424431,0.0,0.0,0.0,0.0,0.0,0.0,0.0,0.0,0.0,-0.01380144339054823,-0.013607939705252647,0.036323465406894684,0.0,0.0,0.0,0.0,0.0,0.0,0.0,0.0,0.0
1606987570389035718,1297006,1606983966720282480,imu_link,-0.0014794133603572845,-0.0047095404006540775,0.30696389079093933,-0.9517084360122681,0.0,0.0,0.0,0.0,0.0,0.0,0.0,0.0,0.0,-35.753177642822266,0.5656600594520569,-0.004319010302424431,0.0,0.0,0.0,0.0,0.0,0.0,0.0,0.0,0.0,-0.01380144339054823,-0.013607939705252647,0.036323465406894684,0.0,0.0,0.0,0.0,0.0,0.0,0.0,0.0,0.0
1606987570389053029,1297007,1606983966720363402,imu_link,-0.0014805470127612352,-0.004705971572548151,0.3069608509540558,-0.9517093896865845,0.0,0.0,0.0,0.0,0.0,0.0,0.0,0.0,0.0,-35.75281524658203,0.5653107762336731,-0.00406802911311388,0.0,0.0,0.0,0.0,0.0,0.0,0.0,0.0,0.0,-0.00783667154610157,-0.01578105427324772,0.024592405185103416,0.0,0.0,0.0,0.0,0.0,0.0,0.0,0.0,0.0
1606987570389068507,1297008,1606983966720443493,imu_link,-0.0014805470127612352,-0.004705971572548151,0.3069608509540558,-0.9517093896865845,0.0,0.0,0.0,0.0,0.0,0.0,0.0,0.0,0.0,-35.75281524658203,0.5653107762336731,-0.00406802911311388,0.0,0.0,0.0,0.0,0.0,0.0,0.0,0.0,0.0,-0.00783667154610157,-0.01578105427324772,0.024592405185103416,0.0,0.0,0.0,0.0,0.0,0.0,0.0,0.0,0.0
1606987570389081231,1297009,1606983966733112979,imu_link,-0.0014789727283641696,-0.004706486593931913,0.306960791349411,-0.9517093896865845,0.0,0.0,0.0,0.0,0.0,0.0,0.0,0.0,0.0,-35.7528076171875,0.5653115510940552,-0.004257802851498127,0.0,0.0,0.0,0.0,0.0,0.0,0.0,0.0,0.0,-0.003103825496509671,-0.015424654819071293,-0.008496043272316456,0.0,0.0,0.0,0.0,0.0,0.0,0.0,0.0,0.0
1606987570398198349,1297010,1606983966733257999,imu_link,-0.0014789727283641696,-0.004706486593931913,0.306960791349411,-0.9517093896865845,0.0,0.0,0.0,0.0,0.0,0.0,0.0,0.0,0.0,-35.7528076171875,0.5653115510940552,-0.004257802851498127,0.0,0.0,0.0,0.0,0.0,0.0,0.0,0.0,0.0,-0.003103825496509671,-0.015424654819071293,-0.008496043272316456,0.0,0.0,0.0,0.0,0.0,0.0,0.0,0.0,0.0
1606987570398227604,1297011,1606983966733409731,imu_link,-0.001483140280470252,-0.004707470536231995,0.3069625794887543,-0.9517087936401367,0.0,0.0,0.0,0.0,0.0,0.0,0.0,0.0,0.0,-35.753021240234375,0.5655654668807983,-0.003838966367766261,0.0,0.0,0.0,0.0,0.0,0.0,0.0,0.0,0.0,0.019145820289850235,-0.013857648707926273,-0.010466903448104858,0.0,0.0,0.0,0.0,0.0,0.0,0.0,0.0,0.0
1606987570398235214,1297012,1606983966733506785,imu_link,-0.001483140280470252,-0.004707470536231995,0.3069625794887543,-0.9517087936401367,0.0,0.0,0.0,0.0,0.0,0.0,0.0,0.0,0.0,-35.753021240234375,0.5655654668807983,-0.003838966367766261,0.0,0.0,0.0,0.0,0.0,0.0,0.0,0.0,0.0,0.019145820289850235,-0.013857648707926273,-0.010466903448104858,0.0,0.0,0.0,0.0,0.0,0.0,0.0,0.0,0.0
1606987570398251038,1297013,1606983966733587387,imu_link,-0.0014839312061667442,-0.004707240033894777,0.30696168541908264,-0.9517090916633606,0.0,0.0,0.0,0.0,0.0,0.0,0.0,0.0,0.0,-35.75291061401367,0.5655681490898132,-0.0037440594751387835,0.0,0.0,0.0,0.0,0.0,0.0,0.0,0.0,0.0,0.02646455727517605,-0.00949623342603445,0.025032563135027885,0.0,0.0,0.0,0.0,0.0,0.0,0.0,0.0,0.0
1606987570411308403,1297014,1606983966733667191,imu_link,-0.0014839312061667442,-0.004707240033894777,0.30696168541908264,-0.9517090916633606,0.0,0.0,0.0,0.0,0.0,0.0,0.0,0.0,0.0,-35.75291061401367,0.5655681490898132,-0.0037440594751387835,0.0,0.0,0.0,0.0,0.0,0.0,0.0,0.0,0.0,0.02646455727517605,-0.00949623342603445,0.025032563135027885,0.0,0.0,0.0,0.0,0.0,0.0,0.0,0.0,0.0
1606987570411336282,1297015,1606983966733771473,imu_link,-0.0014847442507743835,-0.004710756242275238,0.3069615960121155,-0.9517090916633606,0.0,0.0,0.0,0.0,0.0,0.0,0.0,0.0,0.0,-35.75289535522461,0.5659801959991455,-0.0037790262140333652,0.0,0.0,0.0,0.0,0.0,0.0,0.0,0.0,0.0,0.014811333268880844,-0.002081912010908127,0.05493934825062752,0.0,0.0,0.0,0.0,0.0,0.0,0.0,0.0,0.0
1606987570411363603,1297016,1606983966733852821,imu_link,-0.0014847442507743835,-0.004710756242275238,0.3069615960121155,-0.9517090916633606,0.0,0.0,0.0,0.0,0.0,0.0,0.0,0.0,0.0,-35.75289535522461,0.5659801959991455,-0.0037790262140333652,0.0,0.0,0.0,0.0,0.0,0.0,0.0,0.0,0.0,0.014811333268880844,-0.002081912010908127,0.05493934825062752,0.0,0.0,0.0,0.0,0.0,0.0,0.0,0.0,0.0
1606987570411421004,1297017,1606983966733941847,imu_link,-0.0014848763821646571,-0.004711109679192305,0.3069615960121155,-0.9517090916633606,0.0,0.0,0.0,0.0,0.0,0.0,0.0,0.0,0.0,-35.75289535522461,0.5660234093666077,-0.0037770518101751804,0.0,0.0,0.0,0.0,0.0,0.0,0.0,0.0,0.0,0.006461360491812229,-0.0007566940621472895,0.04920520633459091,0.0,0.0,0.0,0.0,0.0,0.0,0.0,0.0,0.0
1606987570411435192,1297018,1606983966734020274,imu_link,-0.0014848763821646571,-0.004711109679192305,0.3069615960121155,-0.9517090916633606,0.0,0.0,0.0,0.0,0.0,0.0,0.0,0.0,0.0,-35.75289535522461,0.5660234093666077,-0.0037770518101751804,0.0,0.0,0.0,0.0,0.0,0.0,0.0,0.0,0.0,0.006461360491812229,-0.0007566940621472895,0.04920520633459091,0.0,0.0,0.0,0.0,0.0,0.0,0.0,0.0,0.0
1606987570449506212,1297019,1606983966734109400,imu_link,-0.0014859369257465005,-0.0047104512341320515,0.3069634735584259,-0.9517085552215576,0.0,0.0,0.0,0.0,0.0,0.0,0.0,0.0,0.0,-35.75312423706055,0.5659889578819275,-0.0036393338814377785,0.0,0.0,0.0,0.0,0.0,0.0,0.0,0.0,0.0,0.006683137267827988,-0.0012248895363882184,0.03907027095556259,0.0,0.0,0.0,0.0,0.0,0.0,0.0,0.0,0.0
