%time,field.header.seq,field.header.stamp,field.header.frame_id,field.orientation.x,field.orientation.y,field.orientation.z,field.orientation.w,field.orientation_covariance0,field.orientation_covariance1,field.orientation_covariance2,field.orientation_covariance3,field.orientation_covariance4,field.orientation_covariance5,field.orientation_covariance6,field.orientation_covariance7,field.orientation_covariance8,field.angular_velocity.x,field.angular_velocity.y,field.angular_velocity.z,field.angular_velocity_covariance0,field.angular_velocity_covariance1,field.angular_velocity_covariance2,field.angular_velocity_covariance3,field.angular_velocity_covariance4,field.angular_velocity_covariance5,field.angular_velocity_covariance6,field.angular_velocity_covariance7,field.angular_velocity_covariance8,field.linear_acceleration.x,field.linear_acceleration.y,field.linear_acceleration.z,field.linear_acceleration_covariance0,field.linear_acceleration_covariance1,field.linear_acceleration_covariance2,field.linear_acceleration_covariance3,field.linear_acceleration_covariance4,field.linear_acceleration_covariance5,field.linear_acceleration_covariance6,field.linear_acceleration_covariance7,field.linear_acceleration_covariance8
1606986772348961529,660991,1606983171700346697,imu_link,0.005741010885685682,0.015921829268336296,0.5216773748397827,0.8529750108718872,0.0,0.0,0.0,0.0,0.0,0.0,0.0,0.0,0.0,62.91572570800781,1.2131530046463013,1.5134669542312622,0.0,0.0,0.0,0.0,0.0,0.0,0.0,0.0,0.0,0.0016168085858225822,0.0077934665605425835,0.033660247921943665,0.0,0.0,0.0,0.0,0.0,0.0,0.0,0.0,0.0
1606986772348986952,660992,1606983171700484331,imu_link,0.005741010885685682,0.015921829268336296,0.5216773748397827,0.8529750108718872,0.0,0.0,0.0,0.0,0.0,0.0,0.0,0.0,0.0,62.91572570800781,1.2131530046463013,1.5134669542312622,0.0,0.0,0.0,0.0,0.0,0.0,0.0,0.0,0.0,0.0016168085858225822,0.0077934665605425835,0.033660247921943665,0.0,0.0,0.0,0.0,0.0,0.0,0.0,0.0,0.0
1606986772349001884,660993,1606983171700663781,imu_link,0.005741010885685682,0.015921829268336296,0.5216773748397827,0.8529750108718872,0.0,0.0,0.0,0.0,0.0,0.0,0.0,0.0,0.0,62.91572570800781,1.2131530046463013,1.5134669542312622,0.0,0.0,0.0,0.0,0.0,0.0,0.0,0.0,0.0,-0.0033261768985539675,0.010256227105855942,0.030717499554157257,0.0,0.0,0.0,0.0,0.0,0.0,0.0,0.0,0.0
1606986772349009098,660994,1606983171700747911,imu_link,0.005741010885685682,0.015921829268336296,0.5216773748397827,0.8529750108718872,0.0,0.0,0.0,0.0,0.0,0.0,0.0,0.0,0.0,62.91572570800781,1.2131530046463013,1.5134669542312622,0.0,0.0,0.0,0.0,0.0,0.0,0.0,0.0,0.0,-0.0033261768985539675,0.010256227105855942,0.030717499554157257,0.0,0.0,0.0,0.0,0.0,0.0,0.0,0.0,0.0
1606986772352696244,660995,1606983171700891242,imu_link,0.005739590153098106,0.015919746831059456,0.5216835737228394,0.8529712557792664,0.0,0.0,0.0,0.0,0.0,0.0,0.0,0.0,0.0,62.91654968261719,1.2130235433578491,1.513211965560913,0.0,0.0,0.0,0.0,0.0,0.0,0.0,0.0,0.0,-0.009194142185151577,0.01231000293046236,0.03380148112773895,0.0,0.0,0.0,0.0,0.0,0.0,0.0,0.0,0.0
1606986772352723627,660996,1606983171700999097,imu_link,0.005739590153098106,0.015919746831059456,0.5216835737228394,0.8529712557792664,0.0,0.0,0.0,0.0,0.0,0.0,0.0,0.0,0.0,62.91654968261719,1.2130235433578491,1.513211965560913,0.0,0.0,0.0,0.0,0.0,0.0,0.0,0.0,0.0,-0.009194142185151577,0.01231000293046236,0.03380148112773895,0.0,0.0,0.0,0.0,0.0,0.0,0.0,0.0,0.0
1606986772352734535,660997,1606983171701085106,imu_link,0.0057410807348787785,0.015918266028165817,0.5216845273971558,0.8529707193374634,0.0,0.0,0.0,0.0,0.0,0.0,0.0,0.0,0.0,62.91667175292969,1.2127881050109863,1.5132707357406616,0.0,0.0,0.0,0.0,0.0,0.0,0.0,0.0,0.0,-0.015066099353134632,0.01225180085748434,0.027475299313664436,0.0,0.0,0.0,0.0,0.0,0.0,0.0,0.0,0.0
1606986772352745343,660998,1606983171701166525,imu_link,0.0057410807348787785,0.015918266028165817,0.5216845273971558,0.8529707193374634,0.0,0.0,0.0,0.0,0.0,0.0,0.0,0.0,0.0,62.91667175292969,1.2127881050109863,1.5132707357406616,0.0,0.0,0.0,0.0,0.0,0.0,0.0,0.0,0.0,-0.015066099353134632,0.01225180085748434,0.027475299313664436,0.0,0.0,0.0,0.0,0.0,0.0,0.0,0.0,0.0
1606986772403925328,660999,1606983171701248920,imu_link,0.005742689128965139,0.01591452956199646,0.5216889977455139,0.8529679775238037,0.0,0.0,0.0,0.0,0.0,0.0,0.0,0.0,0.0,62.917266845703125,1.2123185396194458,1.5132107734680176,0.0,0.0,0.0,0.0,0.0,0.0,0.0,0.0,0.0,-0.007790013216435909,0.008653366938233376,0.026388607919216156,0.0,0.0,0.0,0.0,0.0,0.0,0.0,0.0,0.0
1606986772403944827,661000,1606983171701330098,imu_link,0.005742689128965139,0.01591452956199646,0.5216889977455139,0.8529679775238037,0.0,0.0,0.0,0.0,0.0,0.0,0.0,0.0,0.0,62.917266845703125,1.2123185396194458,1.5132107734680176,0.0,0.0,0.0,0.0,0.0,0.0,0.0,0.0,0.0,-0.007790013216435909,0.008653366938233376,0.026388607919216156,0.0,0.0,0.0,0.0,0.0,0.0,0.0,0.0,0.0
1606986772403950532,661001,1606983171701417565,imu_link,0.005742309615015984,0.015916448086500168,0.5216884613037109,0.8529682755470276,0.0,0.0,0.0,0.0,0.0,0.0,0.0,0.0,0.0,62.917198181152344,1.2125296592712402,1.5132876634597778,0.0,0.0,0.0,0.0,0.0,0.0,0.0,0.0,0.0,-0.016771230846643448,0.01804634928703308,0.035825494676828384,0.0,0.0,0.0,0.0,0.0,0.0,0.0,0.0,0.0
1606986772403968283,661002,1606983171713356721,imu_link,0.005742309615015984,0.015916448086500168,0.5216884613037109,0.8529682755470276,0.0,0.0,0.0,0.0,0.0,0.0,0.0,0.0,0.0,62.917198181152344,1.2125296592712402,1.5132876634597778,0.0,0.0,0.0,0.0,0.0,0.0,0.0,0.0,0.0,-0.016771230846643448,0.01804634928703308,0.035825494676828384,0.0,0.0,0.0,0.0,0.0,0.0,0.0,0.0,0.0
1606986772403984364,661003,1606983171713496670,imu_link,0.005737045779824257,0.01591123268008232,0.5216885209083557,0.8529683351516724,0.0,0.0,0.0,0.0,0.0,0.0,0.0,0.0,0.0,62.91719436645508,1.2123346328735352,1.5124609470367432,0.0,0.0,0.0,0.0,0.0,0.0,0.0,0.0,0.0,-0.009974077343940735,0.023817677050828934,0.028936423361301422,0.0,0.0,0.0,0.0,0.0,0.0,0.0,0.0,0.0
1606986772407567744,661004,1606983171713634314,imu_link,0.005737045779824257,0.01591123268008232,0.5216885209083557,0.8529683351516724,0.0,0.0,0.0,0.0,0.0,0.0,0.0,0.0,0.0,62.91719436645508,1.2123346328735352,1.5124609470367432,0.0,0.0,0.0,0.0,0.0,0.0,0.0,0.0,0.0,-0.009974077343940735,0.023817677050828934,0.028936423361301422,0.0,0.0,0.0,0.0,0.0,0.0,0.0,0.0,0.0
1606986772407591489,661005,1606983171713741336,imu_link,0.0057365670800209045,0.015914132818579674,0.5216889977455139,0.8529680371284485,0.0,0.0,0.0,0.0,0.0,0.0,0.0,0.0,0.0,62.917259216308594,1.2126457691192627,1.5125882625579834,0.0,0.0,0.0,0.0,0.0,0.0,0.0,0.0,0.0,-0.0027705030515789986,0.010005461052060127,0.024525988847017288,0.0,0.0,0.0,0.0,0.0,0.0,0.0,0.0,0.0
1606986772407601326,661006,1606983171713849908,imu_link,0.0057365670800209045,0.015914132818579674,0.5216889977455139,0.8529680371284485,0.0,0.0,0.0,0.0,0.0,0.0,0.0,0.0,0.0,62.917259216308594,1.2126457691192627,1.5125882625579834,0.0,0.0,0.0,0.0,0.0,0.0,0.0,0.0,0.0,-0.0027705030515789986,0.010005461052060127,0.024525988847017288,0.0,0.0,0.0,0.0,0.0,0.0,0.0,0.0,0.0
1606986772407618245,661007,1606983171713953538,imu_link,0.005731985904276371,0.015914147719740868,0.5216900110244751,0.8529674410820007,0.0,0.0,0.0,0.0,0.0,0.0,0.0,0.0,0.0,62.917396545410156,1.2129195928573608,1.5121427774429321,0.0,0.0,0.0,0.0,0.0,0.0,0.0,0.0,0.0,-0.024990836158394814,0.007081200834363699,0.004358308855444193,0.0,0.0,0.0,0.0,0.0,0.0,0.0,0.0,0.0
1606986772414167424,661008,1606983171714038780,imu_link,0.005731985904276371,0.015914147719740868,0.5216900110244751,0.8529674410820007,0.0,0.0,0.0,0.0,0.0,0.0,0.0,0.0,0.0,62.917396545410156,1.2129195928573608,1.5121427774429321,0.0,0.0,0.0,0.0,0.0,0.0,0.0,0.0,0.0,-0.024990836158394814,0.007081200834363699,0.004358308855444193,0.0,0.0,0.0,0.0,0.0,0.0,0.0,0.0,0.0
1606986772414191517,661009,1606983171714120699,imu_link,0.005733484402298927,0.01591320149600506,0.5216909646987915,0.852966845035553,0.0,0.0,0.0,0.0,0.0,0.0,0.0,0.0,0.0,62.917518615722656,1.212735652923584,1.5122342109680176,0.0,0.0,0.0,0.0,0.0,0.0,0.0,0.0,0.0,-0.017337150871753693,0.004805491305887699,0.005375401582568884,0.0,0.0,0.0,0.0,0.0,0.0,0.0,0.0,0.0
1606986772414201041,661010,1606983171714204764,imu_link,0.005733484402298927,0.01591320149600506,0.5216909646987915,0.852966845035553,0.0,0.0,0.0,0.0,0.0,0.0,0.0,0.0,0.0,62.917518615722656,1.212735652923584,1.5122342109680176,0.0,0.0,0.0,0.0,0.0,0.0,0.0,0.0,0.0,-0.017337150871753693,0.004805491305887699,0.005375401582568884,0.0,0.0,0.0,0.0,0.0,0.0,0.0,0.0,0.0
1606986772414223538,661011,1606983171714284944,imu_link,0.005735908634960651,0.015910116955637932,0.5216842889785767,0.8529710173606873,0.0,0.0,0.0,0.0,0.0,0.0,0.0,0.0,0.0,62.91661071777344,1.212301254272461,1.5122768878936768,0.0,0.0,0.0,0.0,0.0,0.0,0.0,0.0,0.0,-0.0005663763731718063,-0.0019770388025790453,0.027418693527579308,0.0,0.0,0.0,0.0,0.0,0.0,0.0,0.0,0.0
1606986772414249846,661012,1606983171727074518,imu_link,0.005735908634960651,0.015910116955637932,0.5216842889785767,0.8529710173606873,0.0,0.0,0.0,0.0,0.0,0.0,0.0,0.0,0.0,62.91661071777344,1.212301254272461,1.5122768878936768,0.0,0.0,0.0,0.0,0.0,0.0,0.0,0.0,0.0,-0.0005663763731718063,-0.0019770388025790453,0.027418693527579308,0.0,0.0,0.0,0.0,0.0,0.0,0.0,0.0,0.0
1606986772418059148,661013,1606983171727184923,imu_link,0.0057340143248438835,0.015911806374788284,0.5216836333274841,0.8529713749885559,0.0,0.0,0.0,0.0,0.0,0.0,0.0,0.0,0.0,62.91653060913086,1.212580680847168,1.5121920108795166,0.0,0.0,0.0,0.0,0.0,0.0,0.0,0.0,0.0,-0.0009255824261344969,-0.004655205644667149,0.023974068462848663,0.0,0.0,0.0,0.0,0.0,0.0,0.0,0.0,0.0
1606986772418086912,661014,1606983171727299158,imu_link,0.0057340143248438835,0.015911806374788284,0.5216836333274841,0.8529713749885559,0.0,0.0,0.0,0.0,0.0,0.0,0.0,0.0,0.0,62.91653060913086,1.212580680847168,1.5121920108795166,0.0,0.0,0.0,0.0,0.0,0.0,0.0,0.0,0.0,-0.0009255824261344969,-0.004655205644667149,0.023974068462848663,0.0,0.0,0.0,0.0,0.0,0.0,0.0,0.0,0.0
1606986772418116676,661015,1606983171727376487,imu_link,0.005735795479267836,0.015913141891360283,0.5216776728630066,0.8529750108718872,0.0,0.0,0.0,0.0,0.0,0.0,0.0,0.0,0.0,62.91573715209961,1.2126152515411377,1.5124374628067017,0.0,0.0,0.0,0.0,0.0,0.0,0.0,0.0,0.0,-0.004333368502557278,-0.0011768992990255356,0.010917622596025467,0.0,0.0,0.0,0.0,0.0,0.0,0.0,0.0,0.0
1606986772418133475,661016,1606983171727445811,imu_link,0.005735795479267836,0.015913141891360283,0.5216776728630066,0.8529750108718872,0.0,0.0,0.0,0.0,0.0,0.0,0.0,0.0,0.0,62.91573715209961,1.2126152515411377,1.5124374628067017,0.0,0.0,0.0,0.0,0.0,0.0,0.0,0.0,0.0,-0.004333368502557278,-0.0011768992990255356,0.010917622596025467,0.0,0.0,0.0,0.0,0.0,0.0,0.0,0.0,0.0
1606986772459671250,661017,1606983171727506419,imu_link,0.005733673460781574,0.01591387949883938,0.5216786861419678,0.8529743552207947,0.0,0.0,0.0,0.0,0.0,0.0,0.0,0.0,0.0,62.91587448120117,1.2128125429153442,1.5122756958007812,0.0,0.0,0.0,0.0,0.0,0.0,0.0,0.0,0.0,-0.0032950458116829395,0.009936465881764889,0.012245469726622105,0.0,0.0,0.0,0.0,0.0,0.0,0.0,0.0,0.0
1606986772459705493,661018,1606983171727582140,imu_link,0.005733673460781574,0.01591387949883938,0.5216786861419678,0.8529743552207947,0.0,0.0,0.0,0.0,0.0,0.0,0.0,0.0,0.0,62.91587448120117,1.2128125429153442,1.5122756958007812,0.0,0.0,0.0,0.0,0.0,0.0,0.0,0.0,0.0,-0.0032950458116829395,0.009936465881764889,0.012245469726622105,0.0,0.0,0.0,0.0,0.0,0.0,0.0,0.0,0.0
1606986772459723931,661019,1606983171727645516,imu_link,0.005733284633606672,0.01591043546795845,0.5216804146766663,0.8529734015464783,0.0,0.0,0.0,0.0,0.0,0.0,0.0,0.0,0.0,62.91609191894531,1.2124961614608765,1.5120340585708618,0.0,0.0,0.0,0.0,0.0,0.0,0.0,0.0,0.0,-0.008423971943557262,0.01948666013777256,0.02298242785036564,0.0,0.0,0.0,0.0,0.0,0.0,0.0,0.0,0.0
1606986772459737409,661020,1606983171727704587,imu_link,0.005733284633606672,0.01591043546795845,0.5216804146766663,0.8529734015464783,0.0,0.0,0.0,0.0,0.0,0.0,0.0,0.0,0.0,62.91609191894531,1.2124961614608765,1.5120340585708618,0.0,0.0,0.0,0.0,0.0,0.0,0.0,0.0,0.0,-0.008423971943557262,0.01948666013777256,0.02298242785036564,0.0,0.0,0.0,0.0,0.0,0.0,0.0,0.0,0.0
1606986772459771099,661021,1606983171727764424,imu_link,0.00573305319994688,0.015911472961306572,0.5216805338859558,0.8529732823371887,0.0,0.0,0.0,0.0,0.0,0.0,0.0,0.0,0.0,62.916114807128906,1.2126110792160034,1.5120737552642822,0.0,0.0,0.0,0.0,0.0,0.0,0.0,0.0,0.0,-0.028599118813872337,-0.0003001888399012387,0.018398012965917587,0.0,0.0,0.0,0.0,0.0,0.0,0.0,0.0,0.0
1606986772494931107,661022,1606983171727823098,imu_link,0.00573305319994688,0.015911472961306572,0.5216805338859558,0.8529732823371887,0.0,0.0,0.0,0.0,0.0,0.0,0.0,0.0,0.0,62.916114807128906,1.2126110792160034,1.5120737552642822,0.0,0.0,0.0,0.0,0.0,0.0,0.0,0.0,0.0,-0.028599118813872337,-0.0003001888399012387,0.018398012965917587,0.0,0.0,0.0,0.0,0.0,0.0,0.0,0.0,0.0
1606986772494952532,661023,1606983171740449726,imu_link,0.005737424828112125,0.01590736024081707,0.5216826796531677,0.8529720306396484,0.0,0.0,0.0,0.0,0.0,0.0,0.0,0.0,0.0,62.916385650634766,1.2119439840316772,1.5122580528259277,0.0,0.0,0.0,0.0,0.0,0.0,0.0,0.0,0.0,-0.016369769349694252,-0.008248099125921726,0.01107004564255476,0.0,0.0,0.0,0.0,0.0,0.0,0.0,0.0,0.0
1606986772494984036,661024,1606983171740553621,imu_link,0.005737424828112125,0.01590736024081707,0.5216826796531677,0.8529720306396484,0.0,0.0,0.0,0.0,0.0,0.0,0.0,0.0,0.0,62.916385650634766,1.2119439840316772,1.5122580528259277,0.0,0.0,0.0,0.0,0.0,0.0,0.0,0.0,0.0,-0.016369769349694252,-0.008248099125921726,0.01107004564255476,0.0,0.0,0.0,0.0,0.0,0.0,0.0,0.0,0.0
1606986772494996646,661025,1606983171740697346,imu_link,0.005735280457884073,0.01590730994939804,0.5216836929321289,0.8529714345932007,0.0,0.0,0.0,0.0,0.0,0.0,0.0,0.0,0.0,62.91652297973633,1.212065577507019,1.512046456336975,0.0,0.0,0.0,0.0,0.0,0.0,0.0,0.0,0.0,0.00798751413822174,-0.0009448154596611857,0.011120771057903767,0.0,0.0,0.0,0.0,0.0,0.0,0.0,0.0,0.0
1606986772501518626,661026,1606983171740762760,imu_link,0.005735280457884073,0.01590730994939804,0.5216836929321289,0.8529714345932007,0.0,0.0,0.0,0.0,0.0,0.0,0.0,0.0,0.0,62.91652297973633,1.212065577507019,1.512046456336975,0.0,0.0,0.0,0.0,0.0,0.0,0.0,0.0,0.0,0.00798751413822174,-0.0009448154596611857,0.011120771057903767,0.0,0.0,0.0,0.0,0.0,0.0,0.0,0.0,0.0
1606986772501552802,661027,1606983171740827418,imu_link,0.005734359845519066,0.015911765396595,0.5216855406761169,0.8529702425003052,0.0,0.0,0.0,0.0,0.0,0.0,0.0,0.0,0.0,62.91678237915039,1.212552785873413,1.512225866317749,0.0,0.0,0.0,0.0,0.0,0.0,0.0,0.0,0.0,0.006763876881450415,-0.015039423480629921,0.01897292211651802,0.0,0.0,0.0,0.0,0.0,0.0,0.0,0.0,0.0
1606986772501634679,661028,1606983171740890236,imu_link,0.005734359845519066,0.015911765396595,0.5216855406761169,0.8529702425003052,0.0,0.0,0.0,0.0,0.0,0.0,0.0,0.0,0.0,62.91678237915039,1.212552785873413,1.512225866317749,0.0,0.0,0.0,0.0,0.0,0.0,0.0,0.0,0.0,0.006763876881450415,-0.015039423480629921,0.01897292211651802,0.0,0.0,0.0,0.0,0.0,0.0,0.0,0.0,0.0
1606986772501648215,661029,1606983171740965793,imu_link,0.005735619459301233,0.01591343805193901,0.5216845870018005,0.8529707193374634,0.0,0.0,0.0,0.0,0.0,0.0,0.0,0.0,0.0,62.91666793823242,1.2126424312591553,1.5124479532241821,0.0,0.0,0.0,0.0,0.0,0.0,0.0,0.0,0.0,-0.008399903774261475,-0.01014171913266182,0.004896313883364201,0.0,0.0,0.0,0.0,0.0,0.0,0.0,0.0,0.0
1606986772501661818,661030,1606983171741027244,imu_link,0.005735619459301233,0.01591343805193901,0.5216845870018005,0.8529707193374634,0.0,0.0,0.0,0.0,0.0,0.0,0.0,0.0,0.0,62.91666793823242,1.2126424312591553,1.5124479532241821,0.0,0.0,0.0,0.0,0.0,0.0,0.0,0.0,0.0,-0.008399903774261475,-0.01014171913266182,0.004896313883364201,0.0,0.0,0.0,0.0,0.0,0.0,0.0,0.0,0.0
1606986772506286843,661031,1606983171741083673,imu_link,0.0057375747710466385,0.015912018716335297,0.5216860175132751,0.8529698848724365,0.0,0.0,0.0,0.0,0.0,0.0,0.0,0.0,0.0,62.9168586730957,1.2123843431472778,1.5125563144683838,0.0,0.0,0.0,0.0,0.0,0.0,0.0,0.0,0.0,-0.006094236858189106,-0.010595588013529778,0.0022128301206976175,0.0,0.0,0.0,0.0,0.0,0.0,0.0,0.0,0.0
1606986772506320356,661032,1606983171741142599,imu_link,0.0057375747710466385,0.015912018716335297,0.5216860175132751,0.8529698848724365,0.0,0.0,0.0,0.0,0.0,0.0,0.0,0.0,0.0,62.9168586730957,1.2123843431472778,1.5125563144683838,0.0,0.0,0.0,0.0,0.0,0.0,0.0,0.0,0.0,-0.006094236858189106,-0.010595588013529778,0.0022128301206976175,0.0,0.0,0.0,0.0,0.0,0.0,0.0,0.0,0.0
1606986772506337544,661033,1606983171741196815,imu_link,0.0057395282201468945,0.015909623354673386,0.5216838121414185,0.8529713153839111,0.0,0.0,0.0,0.0,0.0,0.0,0.0,0.0,0.0,62.91654968261719,1.212037444114685,1.5126005411148071,0.0,0.0,0.0,0.0,0.0,0.0,0.0,0.0,0.0,0.0037158774212002754,-0.01931319199502468,0.01055546011775732,0.0,0.0,0.0,0.0,0.0,0.0,0.0,0.0,0.0
1606986772506346841,661034,1606983171754386652,imu_link,0.0057395282201468945,0.015909623354673386,0.5216838121414185,0.8529713153839111,0.0,0.0,0.0,0.0,0.0,0.0,0.0,0.0,0.0,62.91654968261719,1.212037444114685,1.5126005411148071,0.0,0.0,0.0,0.0,0.0,0.0,0.0,0.0,0.0,0.0037158774212002754,-0.01931319199502468,0.01055546011775732,0.0,0.0,0.0,0.0,0.0,0.0,0.0,0.0,0.0
1606986772576434939,661035,1606983171754511140,imu_link,0.005743635818362236,0.015913477167487144,0.5216818451881409,0.8529723882675171,0.0,0.0,0.0,0.0,0.0,0.0,0.0,0.0,0.0,62.916297912597656,1.2121717929840088,1.5132300853729248,0.0,0.0,0.0,0.0,0.0,0.0,0.0,0.0,0.0,-0.003692111000418663,-0.016078051179647446,0.007133954670280218,0.0,0.0,0.0,0.0,0.0,0.0,0.0,0.0,0.0
1606986772576468075,661036,1606983171754639931,imu_link,0.005743635818362236,0.015913477167487144,0.5216818451881409,0.8529723882675171,0.0,0.0,0.0,0.0,0.0,0.0,0.0,0.0,0.0,62.916297912597656,1.2121717929840088,1.5132300853729248,0.0,0.0,0.0,0.0,0.0,0.0,0.0,0.0,0.0,-0.003692111000418663,-0.016078051179647446,0.007133954670280218,0.0,0.0,0.0,0.0,0.0,0.0,0.0,0.0,0.0
1606986772576480246,661037,1606983171754727422,imu_link,0.005743024405092001,0.015913046896457672,0.5216808915138245,0.8529729843139648,0.0,0.0,0.0,0.0,0.0,0.0,0.0,0.0,0.0,62.916175842285156,1.2121679782867432,1.5131431818008423,0.0,0.0,0.0,0.0,0.0,0.0,0.0,0.0,0.0,0.005469275638461113,0.0021135429851710796,0.006892156787216663,0.0,0.0,0.0,0.0,0.0,0.0,0.0,0.0,0.0
1606986772576491080,661038,1606983171754811832,imu_link,0.005743024405092001,0.015913046896457672,0.5216808915138245,0.8529729843139648,0.0,0.0,0.0,0.0,0.0,0.0,0.0,0.0,0.0,62.916175842285156,1.2121679782867432,1.5131431818008423,0.0,0.0,0.0,0.0,0.0,0.0,0.0,0.0,0.0,0.005469275638461113,0.0021135429851710796,0.006892156787216663,0.0,0.0,0.0,0.0,0.0,0.0,0.0,0.0,0.0
1606986772576515525,661039,1606983171754902980,imu_link,0.005743938498198986,0.015914181247353554,0.5216784477233887,0.8529744744300842,0.0,0.0,0.0,0.0,0.0,0.0,0.0,0.0,0.0,62.91584777832031,1.2122286558151245,1.5132968425750732,0.0,0.0,0.0,0.0,0.0,0.0,0.0,0.0,0.0,0.01283504068851471,0.021435601636767387,0.001502199680544436,0.0,0.0,0.0,0.0,0.0,0.0,0.0,0.0,0.0
1606986772580208723,661040,1606983171755005995,imu_link,0.005743938498198986,0.015914181247353554,0.5216784477233887,0.8529744744300842,0.0,0.0,0.0,0.0,0.0,0.0,0.0,0.0,0.0,62.91584777832031,1.2122286558151245,1.5132968425750732,0.0,0.0,0.0,0.0,0.0,0.0,0.0,0.0,0.0,0.01283504068851471,0.021435601636767387,0.001502199680544436,0.0,0.0,0.0,0.0,0.0,0.0,0.0,0.0,0.0
1606986772580225092,661041,1606983171755080475,imu_link,0.005744817666709423,0.015915652737021446,0.5216785073280334,0.8529743552207947,0.0,0.0,0.0,0.0,0.0,0.0,0.0,0.0,0.0,62.91585922241211,1.2123196125030518,1.513471245765686,0.0,0.0,0.0,0.0,0.0,0.0,0.0,0.0,0.0,-0.004002498462796211,0.019394971430301666,0.007896349765360355,0.0,0.0,0.0,0.0,0.0,0.0,0.0,0.0,0.0
1606986772580229907,661042,1606983171755153583,imu_link,0.005744817666709423,0.015915652737021446,0.5216785073280334,0.8529743552207947,0.0,0.0,0.0,0.0,0.0,0.0,0.0,0.0,0.0,62.91585922241211,1.2123196125030518,1.513471245765686,0.0,0.0,0.0,0.0,0.0,0.0,0.0,0.0,0.0,-0.004002498462796211,0.019394971430301666,0.007896349765360355,0.0,0.0,0.0,0.0,0.0,0.0,0.0,0.0,0.0
1606986772580241405,661043,1606983171755221513,imu_link,0.005741016939282417,0.015912657603621483,0.5216793417930603,0.8529739379882812,0.0,0.0,0.0,0.0,0.0,0.0,0.0,0.0,0.0,62.91596221923828,1.2122527360916138,1.5129214525222778,0.0,0.0,0.0,0.0,0.0,0.0,0.0,0.0,0.0,-0.0061692893505096436,0.007274650037288666,0.031538695096969604,0.0,0.0,0.0,0.0,0.0,0.0,0.0,0.0,0.0
1606986772584664150,661044,1606983171755290468,imu_link,0.005741016939282417,0.015912657603621483,0.5216793417930603,0.8529739379882812,0.0,0.0,0.0,0.0,0.0,0.0,0.0,0.0,0.0,62.91596221923828,1.2122527360916138,1.5129214525222778,0.0,0.0,0.0,0.0,0.0,0.0,0.0,0.0,0.0,-0.0061692893505096436,0.007274650037288666,0.031538695096969604,0.0,0.0,0.0,0.0,0.0,0.0,0.0,0.0,0.0
1606986772584683561,661045,1606983171767255905,imu_link,0.005741493310779333,0.01591295190155506,0.5216792225837708,0.852973997592926,0.0,0.0,0.0,0.0,0.0,0.0,0.0,0.0,0.0,62.915950775146484,1.212253212928772,1.5129854679107666,0.0,0.0,0.0,0.0,0.0,0.0,0.0,0.0,0.0,0.005149168893694878,-0.0025630625896155834,0.043395254760980606,0.0,0.0,0.0,0.0,0.0,0.0,0.0,0.0,0.0
1606986772584717768,661046,1606983171767381476,imu_link,0.005741493310779333,0.01591295190155506,0.5216792225837708,0.852973997592926,0.0,0.0,0.0,0.0,0.0,0.0,0.0,0.0,0.0,62.915950775146484,1.212253212928772,1.5129854679107666,0.0,0.0,0.0,0.0,0.0,0.0,0.0,0.0,0.0,0.005149168893694878,-0.0025630625896155834,0.043395254760980606,0.0,0.0,0.0,0.0,0.0,0.0,0.0,0.0,0.0
1606986772584736749,661047,1606983171767510549,imu_link,0.005741829518228769,0.015916593372821808,0.5216821432113647,0.852972149848938,0.0,0.0,0.0,0.0,0.0,0.0,0.0,0.0,0.0,62.916351318359375,1.2125837802886963,1.5132403373718262,0.0,0.0,0.0,0.0,0.0,0.0,0.0,0.0,0.0,0.018519090488553047,-0.008476708084344864,0.03056904673576355,0.0,0.0,0.0,0.0,0.0,0.0,0.0,0.0,0.0
1606986772584758876,661048,1606983171767597033,imu_link,0.005741829518228769,0.015916593372821808,0.5216821432113647,0.852972149848938,0.0,0.0,0.0,0.0,0.0,0.0,0.0,0.0,0.0,62.916351318359375,1.2125837802886963,1.5132403373718262,0.0,0.0,0.0,0.0,0.0,0.0,0.0,0.0,0.0,0.018519090488553047,-0.008476708084344864,0.03056904673576355,0.0,0.0,0.0,0.0,0.0,0.0,0.0,0.0,0.0
1606986772589489028,661049,1606983171767672309,imu_link,0.0057399943470954895,0.01591736450791359,0.5216817855834961,0.8529723882675171,0.0,0.0,0.0,0.0,0.0,0.0,0.0,0.0,0.0,62.91630554199219,1.2127697467803955,1.5131067037582397,0.0,0.0,0.0,0.0,0.0,0.0,0.0,0.0,0.0,0.03281409665942192,-0.019490830600261688,0.010389367118477821,0.0,0.0,0.0,0.0,0.0,0.0,0.0,0.0,0.0
1606986772589511305,661050,1606983171767761445,imu_link,0.0057399943470954895,0.01591736450791359,0.5216817855834961,0.8529723882675171,0.0,0.0,0.0,0.0,0.0,0.0,0.0,0.0,0.0,62.91630554199219,1.2127697467803955,1.5131067037582397,0.0,0.0,0.0,0.0,0.0,0.0,0.0,0.0,0.0,0.03281409665942192,-0.019490830600261688,0.010389367118477821,0.0,0.0,0.0,0.0,0.0,0.0,0.0,0.0,0.0
1606986772589533164,661051,1606983171767835767,imu_link,0.005739197134971619,0.01592618227005005,0.521686315536499,0.8529694080352783,0.0,0.0,0.0,0.0,0.0,0.0,0.0,0.0,0.0,62.91693878173828,1.2136708498001099,1.5135631561279297,0.0,0.0,0.0,0.0,0.0,0.0,0.0,0.0,0.0,0.025552161037921906,-0.004500895738601685,-0.009072599932551384,0.0,0.0,0.0,0.0,0.0,0.0,0.0,0.0,0.0
1606986772589537856,661052,1606983171767907147,imu_link,0.005739197134971619,0.01592618227005005,0.521686315536499,0.8529694080352783,0.0,0.0,0.0,0.0,0.0,0.0,0.0,0.0,0.0,62.91693878173828,1.2136708498001099,1.5135631561279297,0.0,0.0,0.0,0.0,0.0,0.0,0.0,0.0,0.0,0.025552161037921906,-0.004500895738601685,-0.009072599932551384,0.0,0.0,0.0,0.0,0.0,0.0,0.0,0.0,0.0
1606986772629708301,661053,1606983171767977812,imu_link,0.005739662796258926,0.015927130356431007,0.5216871500015259,0.8529688715934753,0.0,0.0,0.0,0.0,0.0,0.0,0.0,0.0,0.0,62.917057037353516,1.2137343883514404,1.5136665105819702,0.0,0.0,0.0,0.0,0.0,0.0,0.0,0.0,0.0,0.011638347059488297,0.005062654614448547,-0.006433071102946997,0.0,0.0,0.0,0.0,0.0,0.0,0.0,0.0,0.0
1606986772629730329,661054,1606983171768057343,imu_link,0.005739662796258926,0.015927130356431007,0.5216871500015259,0.8529688715934753,0.0,0.0,0.0,0.0,0.0,0.0,0.0,0.0,0.0,62.917057037353516,1.2137343883514404,1.5136665105819702,0.0,0.0,0.0,0.0,0.0,0.0,0.0,0.0,0.0,0.011638347059488297,0.005062654614448547,-0.006433071102946997,0.0,0.0,0.0,0.0,0.0,0.0,0.0,0.0,0.0
1606986772629739995,661055,1606983171780510437,imu_link,0.005736966151744127,0.015929365530610085,0.521689772605896,0.8529673218727112,0.0,0.0,0.0,0.0,0.0,0.0,0.0,0.0,0.0,62.91741180419922,1.2141094207763672,1.5135400295257568,0.0,0.0,0.0,0.0,0.0,0.0,0.0,0.0,0.0,-0.000769047939684242,0.013847717083990574,0.0012390280608087778,0.0,0.0,0.0,0.0,0.0,0.0,0.0,0.0,0.0
1606986772629751318,661056,1606983171780583269,imu_link,0.005736966151744127,0.015929365530610085,0.521689772605896,0.8529673218727112,0.0,0.0,0.0,0.0,0.0,0.0,0.0,0.0,0.0,62.91741180419922,1.2141094207763672,1.5135400295257568,0.0,0.0,0.0,0.0,0.0,0.0,0.0,0.0,0.0,-0.000769047939684242,0.013847717083990574,0.0012390280608087778,0.0,0.0,0.0,0.0,0.0,0.0,0.0,0.0,0.0
1606986772629764699,661057,1606983171780666673,imu_link,0.0057378774508833885,0.015929266810417175,0.5216896533966064,0.8529673218727112,0.0,0.0,0.0,0.0,0.0,0.0,0.0,0.0,0.0,62.917396545410156,1.2140454053878784,1.5136233568191528,0.0,0.0,0.0,0.0,0.0,0.0,0.0,0.0,0.0,-0.010808498598635197,0.03170361369848251,-0.0034944075159728527,0.0,0.0,0.0,0.0,0.0,0.0,0.0,0.0,0.0
1606986772645261786,661058,1606983171780720976,imu_link,0.0057378774508833885,0.015929266810417175,0.5216896533966064,0.8529673218727112,0.0,0.0,0.0,0.0,0.0,0.0,0.0,0.0,0.0,62.917396545410156,1.2140454053878784,1.5136233568191528,0.0,0.0,0.0,0.0,0.0,0.0,0.0,0.0,0.0,-0.010808498598635197,0.03170361369848251,-0.0034944075159728527,0.0,0.0,0.0,0.0,0.0,0.0,0.0,0.0,0.0
1606986772645283895,661059,1606983171780766267,imu_link,0.0057322075590491295,0.015925677493214607,0.5216885805130005,0.8529680371284485,0.0,0.0,0.0,0.0,0.0,0.0,0.0,0.0,0.0,62.917240142822266,1.2140355110168457,1.5128529071807861,0.0,0.0,0.0,0.0,0.0,0.0,0.0,0.0,0.0,-0.007016303483396769,0.02585778385400772,-0.001130327582359314,0.0,0.0,0.0,0.0,0.0,0.0,0.0,0.0,0.0
1606986772645294578,661060,1606983171780815604,imu_link,0.0057322075590491295,0.015925677493214607,0.5216885805130005,0.8529680371284485,0.0,0.0,0.0,0.0,0.0,0.0,0.0,0.0,0.0,62.917240142822266,1.2140355110168457,1.5128529071807861,0.0,0.0,0.0,0.0,0.0,0.0,0.0,0.0,0.0,-0.007016303483396769,0.02585778385400772,-0.001130327582359314,0.0,0.0,0.0,0.0,0.0,0.0,0.0,0.0,0.0
1606986772645306127,661061,1606983171780881811,imu_link,0.005732472520321608,0.01592569798231125,0.5216882824897766,0.8529682755470276,0.0,0.0,0.0,0.0,0.0,0.0,0.0,0.0,0.0,62.917198181152344,1.2140223979949951,1.512879490852356,0.0,0.0,0.0,0.0,0.0,0.0,0.0,0.0,0.0,-0.00504203699529171,0.010503324680030346,0.017503539100289345,0.0,0.0,0.0,0.0,0.0,0.0,0.0,0.0,0.0
1606986772680857664,661062,1606983171780932617,imu_link,0.005732472520321608,0.01592569798231125,0.5216882824897766,0.8529682755470276,0.0,0.0,0.0,0.0,0.0,0.0,0.0,0.0,0.0,62.917198181152344,1.2140223979949951,1.512879490852356,0.0,0.0,0.0,0.0,0.0,0.0,0.0,0.0,0.0,-0.00504203699529171,0.010503324680030346,0.017503539100289345,0.0,0.0,0.0,0.0,0.0,0.0,0.0,0.0,0.0
1606986772680895072,661063,1606983171780988332,imu_link,0.00573205528780818,0.015924958512187004,0.5216853022575378,0.8529701232910156,0.0,0.0,0.0,0.0,0.0,0.0,0.0,0.0,0.0,62.91679763793945,1.2139803171157837,1.5127900838851929,0.0,0.0,0.0,0.0,0.0,0.0,0.0,0.0,0.0,-0.007570303976535797,0.0010519404895603657,0.03132011741399765,0.0,0.0,0.0,0.0,0.0,0.0,0.0,0.0,0.0
1606986772680906599,661064,1606983171781036532,imu_link,0.00573205528780818,0.015924958512187004,0.5216853022575378,0.8529701232910156,0.0,0.0,0.0,0.0,0.0,0.0,0.0,0.0,0.0,62.91679763793945,1.2139803171157837,1.5127900838851929,0.0,0.0,0.0,0.0,0.0,0.0,0.0,0.0,0.0,-0.007570303976535797,0.0010519404895603657,0.03132011741399765,0.0,0.0,0.0,0.0,0.0,0.0,0.0,0.0,0.0
1606986772680918584,661065,1606983171781085225,imu_link,0.005731591023504734,0.015925051644444466,0.5216837525367737,0.852971076965332,0.0,0.0,0.0,0.0,0.0,0.0,0.0,0.0,0.0,62.91658401489258,1.214020013809204,1.512747883796692,0.0,0.0,0.0,0.0,0.0,0.0,0.0,0.0,0.0,-0.009549329057335854,-7.61444098316133e-05,0.0337669812142849,0.0,0.0,0.0,0.0,0.0,0.0,0.0,0.0,0.0
1606986772689836027,661066,1606983171794308135,imu_link,0.005731591023504734,0.015925051644444466,0.5216837525367737,0.852971076965332,0.0,0.0,0.0,0.0,0.0,0.0,0.0,0.0,0.0,62.91658401489258,1.214020013809204,1.512747883796692,0.0,0.0,0.0,0.0,0.0,0.0,0.0,0.0,0.0,-0.009549329057335854,-7.61444098316133e-05,0.0337669812142849,0.0,0.0,0.0,0.0,0.0,0.0,0.0,0.0,0.0
1606986772689864260,661067,1606983171794343947,imu_link,0.005731854122132063,0.01592470146715641,0.5216895937919617,0.8529675006866455,0.0,0.0,0.0,0.0,0.0,0.0,0.0,0.0,0.0,62.9173698425293,1.2139596939086914,1.5127613544464111,0.0,0.0,0.0,0.0,0.0,0.0,0.0,0.0,0.0,-0.01950831711292267,-0.0031316475942730904,0.03687233105301857,0.0,0.0,0.0,0.0,0.0,0.0,0.0,0.0,0.0
1606986772689879312,661068,1606983171794375144,imu_link,0.005731854122132063,0.01592470146715641,0.5216895937919617,0.8529675006866455,0.0,0.0,0.0,0.0,0.0,0.0,0.0,0.0,0.0,62.9173698425293,1.2139596939086914,1.5127613544464111,0.0,0.0,0.0,0.0,0.0,0.0,0.0,0.0,0.0,-0.01950831711292267,-0.0031316475942730904,0.03687233105301857,0.0,0.0,0.0,0.0,0.0,0.0,0.0,0.0,0.0
1606986772689891811,661069,1606983171794399061,imu_link,0.005731107201427221,0.01592589169740677,0.5216900706291199,0.8529672026634216,0.0,0.0,0.0,0.0,0.0,0.0,0.0,0.0,0.0,62.91743850708008,1.214119791984558,1.512760043144226,0.0,0.0,0.0,0.0,0.0,0.0,0.0,0.0,0.0,-0.018851498141884804,-0.015531672164797783,0.02139364369213581,0.0,0.0,0.0,0.0,0.0,0.0,0.0,0.0,0.0
1606986772689914093,661070,1606983171794424754,imu_link,0.005731107201427221,0.01592589169740677,0.5216900706291199,0.8529672026634216,0.0,0.0,0.0,0.0,0.0,0.0,0.0,0.0,0.0,62.91743850708008,1.214119791984558,1.512760043144226,0.0,0.0,0.0,0.0,0.0,0.0,0.0,0.0,0.0,-0.018851498141884804,-0.015531672164797783,0.02139364369213581,0.0,0.0,0.0,0.0,0.0,0.0,0.0,0.0,0.0
1606986772784840489,661071,1606983171794450379,imu_link,0.0057353968732059,0.01592610776424408,0.521696150302887,0.8529634475708008,0.0,0.0,0.0,0.0,0.0,0.0,0.0,0.0,0.0,62.91825866699219,1.2138735055923462,1.5132009983062744,0.0,0.0,0.0,0.0,0.0,0.0,0.0,0.0,0.0,-0.012204810045659542,-0.018040018156170845,0.0005470589967444539,0.0,0.0,0.0,0.0,0.0,0.0,0.0,0.0,0.0
1606986772784866295,661072,1606983171794481168,imu_link,0.0057353968732059,0.01592610776424408,0.521696150302887,0.8529634475708008,0.0,0.0,0.0,0.0,0.0,0.0,0.0,0.0,0.0,62.91825866699219,1.2138735055923462,1.5132009983062744,0.0,0.0,0.0,0.0,0.0,0.0,0.0,0.0,0.0,-0.012204810045659542,-0.018040018156170845,0.0005470589967444539,0.0,0.0,0.0,0.0,0.0,0.0,0.0,0.0,0.0
1606986772784885154,661073,1606983171794508012,imu_link,0.005735067650675774,0.01592634804546833,0.5216959714889526,0.8529635071754456,0.0,0.0,0.0,0.0,0.0,0.0,0.0,0.0,0.0,62.918235778808594,1.2139170169830322,1.5131831169128418,0.0,0.0,0.0,0.0,0.0,0.0,0.0,0.0,0.0,-0.00028406086494214833,-0.009949794039130211,0.007761763408780098,0.0,0.0,0.0,0.0,0.0,0.0,0.0,0.0,0.0
1606986772784892487,661074,1606983171794534059,imu_link,0.005735067650675774,0.01592634804546833,0.5216959714889526,0.8529635071754456,0.0,0.0,0.0,0.0,0.0,0.0,0.0,0.0,0.0,62.918235778808594,1.2139170169830322,1.5131831169128418,0.0,0.0,0.0,0.0,0.0,0.0,0.0,0.0,0.0,-0.00028406086494214833,-0.009949794039130211,0.007761763408780098,0.0,0.0,0.0,0.0,0.0,0.0,0.0,0.0,0.0
1606986772789847010,661075,1606983171794560897,imu_link,0.005737259052693844,0.015928929671645164,0.5216963291168213,0.8529632687568665,0.0,0.0,0.0,0.0,0.0,0.0,0.0,0.0,0.0,62.91829299926758,1.2140376567840576,1.5135520696640015,0.0,0.0,0.0,0.0,0.0,0.0,0.0,0.0,0.0,-0.010105465538799763,-0.013663310557603836,0.020611975342035294,0.0,0.0,0.0,0.0,0.0,0.0,0.0,0.0,0.0
1606986772789899774,661076,1606983171794585868,imu_link,0.005737259052693844,0.015928929671645164,0.5216963291168213,0.8529632687568665,0.0,0.0,0.0,0.0,0.0,0.0,0.0,0.0,0.0,62.91829299926758,1.2140376567840576,1.5135520696640015,0.0,0.0,0.0,0.0,0.0,0.0,0.0,0.0,0.0,-0.010105465538799763,-0.013663310557603836,0.020611975342035294,0.0,0.0,0.0,0.0,0.0,0.0,0.0,0.0,0.0
1606986772789960524,661077,1606983171807766885,imu_link,0.00573540385812521,0.015930498018860817,0.5216964483261108,0.8529632091522217,0.0,0.0,0.0,0.0,0.0,0.0,0.0,0.0,0.0,62.918312072753906,1.2143017053604126,1.5134649276733398,0.0,0.0,0.0,0.0,0.0,0.0,0.0,0.0,0.0,-0.021690048277378082,-0.022549299523234367,0.03398972749710083,0.0,0.0,0.0,0.0,0.0,0.0,0.0,0.0,0.0
1606986772789980545,661078,1606983171807823659,imu_link,0.00573540385812521,0.015930498018860817,0.5216964483261108,0.8529632091522217,0.0,0.0,0.0,0.0,0.0,0.0,0.0,0.0,0.0,62.918312072753906,1.2143017053604126,1.5134649276733398,0.0,0.0,0.0,0.0,0.0,0.0,0.0,0.0,0.0,-0.021690048277378082,-0.022549299523234367,0.03398972749710083,0.0,0.0,0.0,0.0,0.0,0.0,0.0,0.0,0.0
1606986772789985933,661079,1606983171807893706,imu_link,0.0057389396242797375,0.015929535031318665,0.5216962099075317,0.8529633283615112,0.0,0.0,0.0,0.0,0.0,0.0,0.0,0.0,0.0,62.918277740478516,1.2139965295791626,1.5137524604797363,0.0,0.0,0.0,0.0,0.0,0.0,0.0,0.0,0.0,-0.0047321137972176075,-0.014971818774938583,0.035047125071287155,0.0,0.0,0.0,0.0,0.0,0.0,0.0,0.0,0.0
1606986772793927052,661080,1606983171807937848,imu_link,0.0057389396242797375,0.015929535031318665,0.5216962099075317,0.8529633283615112,0.0,0.0,0.0,0.0,0.0,0.0,0.0,0.0,0.0,62.918277740478516,1.2139965295791626,1.5137524604797363,0.0,0.0,0.0,0.0,0.0,0.0,0.0,0.0,0.0,-0.0047321137972176075,-0.014971818774938583,0.035047125071287155,0.0,0.0,0.0,0.0,0.0,0.0,0.0,0.0,0.0
1606986772793953275,661081,1606983171807974904,imu_link,0.0057406374253332615,0.01592974364757538,0.521697461605072,0.8529625535011292,0.0,0.0,0.0,0.0,0.0,0.0,0.0,0.0,0.0,62.91844177246094,1.213913083076477,1.513932704925537,0.0,0.0,0.0,0.0,0.0,0.0,0.0,0.0,0.0,-0.003201690735295415,0.005005553364753723,0.020278390496969223,0.0,0.0,0.0,0.0,0.0,0.0,0.0,0.0,0.0
1606986772793972938,661082,1606983171808015713,imu_link,0.0057406374253332615,0.01592974364757538,0.521697461605072,0.8529625535011292,0.0,0.0,0.0,0.0,0.0,0.0,0.0,0.0,0.0,62.91844177246094,1.213913083076477,1.513932704925537,0.0,0.0,0.0,0.0,0.0,0.0,0.0,0.0,0.0,-0.003201690735295415,0.005005553364753723,0.020278390496969223,0.0,0.0,0.0,0.0,0.0,0.0,0.0,0.0,0.0
1606986772793994703,661083,1606983171808068914,imu_link,0.005742071662098169,0.01592872478067875,0.5216974020004272,0.8529626131057739,0.0,0.0,0.0,0.0,0.0,0.0,0.0,0.0,0.0,62.918434143066406,1.2137279510498047,1.5140118598937988,0.0,0.0,0.0,0.0,0.0,0.0,0.0,0.0,0.0,-0.019177686423063278,0.018247803673148155,0.03619229421019554,0.0,0.0,0.0,0.0,0.0,0.0,0.0,0.0,0.0
1606986772797246685,661084,1606983171808109575,imu_link,0.005742071662098169,0.01592872478067875,0.5216974020004272,0.8529626131057739,0.0,0.0,0.0,0.0,0.0,0.0,0.0,0.0,0.0,62.918434143066406,1.2137279510498047,1.5140118598937988,0.0,0.0,0.0,0.0,0.0,0.0,0.0,0.0,0.0,-0.019177686423063278,0.018247803673148155,0.03619229421019554,0.0,0.0,0.0,0.0,0.0,0.0,0.0,0.0,0.0
1606986772797291216,661085,1606983171808147801,imu_link,0.005742396228015423,0.015929408371448517,0.5216964483261108,0.8529632091522217,0.0,0.0,0.0,0.0,0.0,0.0,0.0,0.0,0.0,62.918304443359375,1.2137771844863892,1.5140832662582397,0.0,0.0,0.0,0.0,0.0,0.0,0.0,0.0,0.0,-0.016642171889543533,0.007566478103399277,0.061249345541000366,0.0,0.0,0.0,0.0,0.0,0.0,0.0,0.0,0.0
1606986772797349813,661086,1606983171808185885,imu_link,0.005742396228015423,0.015929408371448517,0.5216964483261108,0.8529632091522217,0.0,0.0,0.0,0.0,0.0,0.0,0.0,0.0,0.0,62.918304443359375,1.2137771844863892,1.5140832662582397,0.0,0.0,0.0,0.0,0.0,0.0,0.0,0.0,0.0,-0.016642171889543533,0.007566478103399277,0.061249345541000366,0.0,0.0,0.0,0.0,0.0,0.0,0.0,0.0,0.0
1606986772797364853,661087,1606983171808226273,imu_link,0.005742006469517946,0.01592683233320713,0.5216948986053467,0.8529642224311829,0.0,0.0,0.0,0.0,0.0,0.0,0.0,0.0,0.0,62.918094635009766,1.2135512828826904,1.5138887166976929,0.0,0.0,0.0,0.0,0.0,0.0,0.0,0.0,0.0,-0.004132987931370735,0.004808980971574783,0.04342377930879593,0.0,0.0,0.0,0.0,0.0,0.0,0.0,0.0,0.0
1606986772797382892,661088,1606983171821865152,imu_link,0.005742006469517946,0.01592683233320713,0.5216948986053467,0.8529642224311829,0.0,0.0,0.0,0.0,0.0,0.0,0.0,0.0,0.0,62.918094635009766,1.2135512828826904,1.5138887166976929,0.0,0.0,0.0,0.0,0.0,0.0,0.0,0.0,0.0,-0.004132987931370735,0.004808980971574783,0.04342377930879593,0.0,0.0,0.0,0.0,0.0,0.0,0.0,0.0,0.0
1606986772848366447,661089,1606983171821943321,imu_link,0.005740833468735218,0.015928218141198158,0.5216965079307556,0.8529632091522217,0.0,0.0,0.0,0.0,0.0,0.0,0.0,0.0,0.0,62.918312072753906,1.2137540578842163,1.5138592720031738,0.0,0.0,0.0,0.0,0.0,0.0,0.0,0.0,0.0,-0.010892454534769058,0.004148792941123247,0.01638222672045231,0.0,0.0,0.0,0.0,0.0,0.0,0.0,0.0,0.0
1606986772848384864,661090,1606983171821998154,imu_link,0.005740833468735218,0.015928218141198158,0.5216965079307556,0.8529632091522217,0.0,0.0,0.0,0.0,0.0,0.0,0.0,0.0,0.0,62.918312072753906,1.2137540578842163,1.5138592720031738,0.0,0.0,0.0,0.0,0.0,0.0,0.0,0.0,0.0,-0.010892454534769058,0.004148792941123247,0.01638222672045231,0.0,0.0,0.0,0.0,0.0,0.0,0.0,0.0,0.0
1606986772848421060,661091,1606983171822042929,imu_link,0.005742363631725311,0.015925869345664978,0.5217023491859436,0.8529596328735352,0.0,0.0,0.0,0.0,0.0,0.0,0.0,0.0,0.0,62.919090270996094,1.2134226560592651,1.5138765573501587,0.0,0.0,0.0,0.0,0.0,0.0,0.0,0.0,0.0,-0.0026202606968581676,-0.010913431644439697,0.02453310415148735,0.0,0.0,0.0,0.0,0.0,0.0,0.0,0.0,0.0
1606986772848426458,661092,1606983171822090155,imu_link,0.005742363631725311,0.015925869345664978,0.5217023491859436,0.8529596328735352,0.0,0.0,0.0,0.0,0.0,0.0,0.0,0.0,0.0,62.919090270996094,1.2134226560592651,1.5138765573501587,0.0,0.0,0.0,0.0,0.0,0.0,0.0,0.0,0.0,-0.0026202606968581676,-0.010913431644439697,0.02453310415148735,0.0,0.0,0.0,0.0,0.0,0.0,0.0,0.0,0.0
1606986772852014970,661093,1606983171822146775,imu_link,0.005743429996073246,0.015924882143735886,0.5216994881629944,0.8529614210128784,0.0,0.0,0.0,0.0,0.0,0.0,0.0,0.0,0.0,62.91870880126953,1.2132675647735596,1.5139176845550537,0.0,0.0,0.0,0.0,0.0,0.0,0.0,0.0,0.0,0.0008163668680936098,-0.015144702978432178,0.04852939397096634,0.0,0.0,0.0,0.0,0.0,0.0,0.0,0.0,0.0
1606986772852045434,661094,1606983171822194471,imu_link,0.005743429996073246,0.015924882143735886,0.5216994881629944,0.8529614210128784,0.0,0.0,0.0,0.0,0.0,0.0,0.0,0.0,0.0,62.91870880126953,1.2132675647735596,1.5139176845550537,0.0,0.0,0.0,0.0,0.0,0.0,0.0,0.0,0.0,0.0008163668680936098,-0.015144702978432178,0.04852939397096634,0.0,0.0,0.0,0.0,0.0,0.0,0.0,0.0,0.0
1606986772852062263,661095,1606983171822240913,imu_link,0.005743484944105148,0.015926850959658623,0.5217036604881287,0.8529587984085083,0.0,0.0,0.0,0.0,0.0,0.0,0.0,0.0,0.0,62.91927719116211,1.2134491205215454,1.5140467882156372,0.0,0.0,0.0,0.0,0.0,0.0,0.0,0.0,0.0,0.0007749340729787946,-0.00894453190267086,0.05476368963718414,0.0,0.0,0.0,0.0,0.0,0.0,0.0,0.0,0.0
1606986772852070081,661096,1606983171822287455,imu_link,0.005743484944105148,0.015926850959658623,0.5217036604881287,0.8529587984085083,0.0,0.0,0.0,0.0,0.0,0.0,0.0,0.0,0.0,62.91927719116211,1.2134491205215454,1.5140467882156372,0.0,0.0,0.0,0.0,0.0,0.0,0.0,0.0,0.0,0.0007749340729787946,-0.00894453190267086,0.05476368963718414,0.0,0.0,0.0,0.0,0.0,0.0,0.0,0.0,0.0
1606986772852075916,661097,1606983171822332336,imu_link,0.005742322653532028,0.015928030014038086,0.5217029452323914,0.8529592156410217,0.0,0.0,0.0,0.0,0.0,0.0,0.0,0.0,0.0,62.91918182373047,1.2136350870132446,1.514002799987793,0.0,0.0,0.0,0.0,0.0,0.0,0.0,0.0,0.0,-0.002253105863928795,-0.007770534139126539,0.04065669700503349,0.0,0.0,0.0,0.0,0.0,0.0,0.0,0.0,0.0
1606986772858915779,661098,1606983171822382483,imu_link,0.005742322653532028,0.015928030014038086,0.5217029452323914,0.8529592156410217,0.0,0.0,0.0,0.0,0.0,0.0,0.0,0.0,0.0,62.91918182373047,1.2136350870132446,1.514002799987793,0.0,0.0,0.0,0.0,0.0,0.0,0.0,0.0,0.0,-0.002253105863928795,-0.007770534139126539,0.04065669700503349,0.0,0.0,0.0,0.0,0.0,0.0,0.0,0.0,0.0
1606986772858945405,661099,1606983171834733994,imu_link,0.005743545014411211,0.015929164364933968,0.5217021703720093,0.8529596924781799,0.0,0.0,0.0,0.0,0.0,0.0,0.0,0.0,0.0,62.9190788269043,1.2136744260787964,1.5141890048980713,0.0,0.0,0.0,0.0,0.0,0.0,0.0,0.0,0.0,-0.02002531848847866,-0.009096184745430946,0.010166488587856293,0.0,0.0,0.0,0.0,0.0,0.0,0.0,0.0,0.0
1606986772858969440,661100,1606983171834838122,imu_link,0.005743545014411211,0.015929164364933968,0.5217021703720093,0.8529596924781799,0.0,0.0,0.0,0.0,0.0,0.0,0.0,0.0,0.0,62.9190788269043,1.2136744260787964,1.5141890048980713,0.0,0.0,0.0,0.0,0.0,0.0,0.0,0.0,0.0,-0.02002531848847866,-0.009096184745430946,0.010166488587856293,0.0,0.0,0.0,0.0,0.0,0.0,0.0,0.0,0.0
1606986772858994694,661101,1606983171834970607,imu_link,0.005744108464568853,0.01592932641506195,0.5217018723487854,0.8529597520828247,0.0,0.0,0.0,0.0,0.0,0.0,0.0,0.0,0.0,62.919044494628906,1.2136567831039429,1.5142536163330078,0.0,0.0,0.0,0.0,0.0,0.0,0.0,0.0,0.0,-0.008129717782139778,-0.006251647602766752,0.014697521924972534,0.0,0.0,0.0,0.0,0.0,0.0,0.0,0.0,0.0
1606986772862436970,661102,1606983171835039789,imu_link,0.005744108464568853,0.01592932641506195,0.5217018723487854,0.8529597520828247,0.0,0.0,0.0,0.0,0.0,0.0,0.0,0.0,0.0,62.919044494628906,1.2136567831039429,1.5142536163330078,0.0,0.0,0.0,0.0,0.0,0.0,0.0,0.0,0.0,-0.008129717782139778,-0.006251647602766752,0.014697521924972534,0.0,0.0,0.0,0.0,0.0,0.0,0.0,0.0,0.0
1606986772862463537,661103,1606983171835100420,imu_link,0.005747252609580755,0.015926500782370567,0.5217032432556152,0.8529589772224426,0.0,0.0,0.0,0.0,0.0,0.0,0.0,0.0,0.0,62.919219970703125,1.2131901979446411,1.5143935680389404,0.0,0.0,0.0,0.0,0.0,0.0,0.0,0.0,0.0,0.010382437147200108,0.0022145211696624756,0.0414314791560173,0.0,0.0,0.0,0.0,0.0,0.0,0.0,0.0,0.0
1606986772862495107,661104,1606983171835174734,imu_link,0.005747252609580755,0.015926500782370567,0.5217032432556152,0.8529589772224426,0.0,0.0,0.0,0.0,0.0,0.0,0.0,0.0,0.0,62.919219970703125,1.2131901979446411,1.5143935680389404,0.0,0.0,0.0,0.0,0.0,0.0,0.0,0.0,0.0,0.010382437147200108,0.0022145211696624756,0.0414314791560173,0.0,0.0,0.0,0.0,0.0,0.0,0.0,0.0,0.0
1606986772862540166,661105,1606983171835235095,imu_link,0.005745890084654093,0.01592782512307167,0.5217034220695496,0.8529589176177979,0.0,0.0,0.0,0.0,0.0,0.0,0.0,0.0,0.0,62.91924285888672,1.213400959968567,1.514339804649353,0.0,0.0,0.0,0.0,0.0,0.0,0.0,0.0,0.0,0.00488901324570179,0.016190430149435997,0.049936335533857346,0.0,0.0,0.0,0.0,0.0,0.0,0.0,0.0,0.0
1606986772862556830,661106,1606983171835290150,imu_link,0.005745890084654093,0.01592782512307167,0.5217034220695496,0.8529589176177979,0.0,0.0,0.0,0.0,0.0,0.0,0.0,0.0,0.0,62.91924285888672,1.213400959968567,1.514339804649353,0.0,0.0,0.0,0.0,0.0,0.0,0.0,0.0,0.0,0.00488901324570179,0.016190430149435997,0.049936335533857346,0.0,0.0,0.0,0.0,0.0,0.0,0.0,0.0,0.0
1606986772927972395,661107,1606983171835348387,imu_link,0.005744685418903828,0.015928076580166817,0.5216962099075317,0.852963387966156,0.0,0.0,0.0,0.0,0.0,0.0,0.0,0.0,0.0,62.918270111083984,1.213510513305664,1.514227032661438,0.0,0.0,0.0,0.0,0.0,0.0,0.0,0.0,0.0,-0.006048219744116068,0.01982000842690468,0.05245320126414299,0.0,0.0,0.0,0.0,0.0,0.0,0.0,0.0,0.0
1606986772927996665,661108,1606983171835405552,imu_link,0.005744685418903828,0.015928076580166817,0.5216962099075317,0.852963387966156,0.0,0.0,0.0,0.0,0.0,0.0,0.0,0.0,0.0,62.918270111083984,1.213510513305664,1.514227032661438,0.0,0.0,0.0,0.0,0.0,0.0,0.0,0.0,0.0,-0.006048219744116068,0.01982000842690468,0.05245320126414299,0.0,0.0,0.0,0.0,0.0,0.0,0.0,0.0,0.0
1606986772928005334,661109,1606983171848119419,imu_link,0.005743663292378187,0.015927759930491447,0.5216942429542542,0.8529645800590515,0.0,0.0,0.0,0.0,0.0,0.0,0.0,0.0,0.0,62.918006896972656,1.2135441303253174,1.514105200767517,0.0,0.0,0.0,0.0,0.0,0.0,0.0,0.0,0.0,-0.004988377448171377,0.01016166526824236,0.0434015691280365,0.0,0.0,0.0,0.0,0.0,0.0,0.0,0.0,0.0
1606986772928016233,661110,1606983171848225742,imu_link,0.005743663292378187,0.015927759930491447,0.5216942429542542,0.8529645800590515,0.0,0.0,0.0,0.0,0.0,0.0,0.0,0.0,0.0,62.918006896972656,1.2135441303253174,1.514105200767517,0.0,0.0,0.0,0.0,0.0,0.0,0.0,0.0,0.0,-0.004988377448171377,0.01016166526824236,0.0434015691280365,0.0,0.0,0.0,0.0,0.0,0.0,0.0,0.0,0.0
1606986772931205596,661111,1606983171848336456,imu_link,0.005743794143199921,0.015927325934171677,0.5216867327690125,0.8529690504074097,0.0,0.0,0.0,0.0,0.0,0.0,0.0,0.0,0.0,62.91700744628906,1.2135069370269775,1.5140817165374756,0.0,0.0,0.0,0.0,0.0,0.0,0.0,0.0,0.0,0.000591752992477268,0.01792086660861969,0.033756278455257416,0.0,0.0,0.0,0.0,0.0,0.0,0.0,0.0,0.0
1606986772931225790,661112,1606983171848406159,imu_link,0.005743794143199921,0.015927325934171677,0.5216867327690125,0.8529690504074097,0.0,0.0,0.0,0.0,0.0,0.0,0.0,0.0,0.0,62.91700744628906,1.2135069370269775,1.5140817165374756,0.0,0.0,0.0,0.0,0.0,0.0,0.0,0.0,0.0,0.000591752992477268,0.01792086660861969,0.033756278455257416,0.0,0.0,0.0,0.0,0.0,0.0,0.0,0.0,0.0
1606986772931255534,661113,1606983171848463415,imu_link,0.005741507280617952,0.01592770777642727,0.5216860771179199,0.8529694676399231,0.0,0.0,0.0,0.0,0.0,0.0,0.0,0.0,0.0,62.91691970825195,1.2136821746826172,1.5138800144195557,0.0,0.0,0.0,0.0,0.0,0.0,0.0,0.0,0.0,-0.001089783851057291,0.015110503882169724,0.014690515585243702,0.0,0.0,0.0,0.0,0.0,0.0,0.0,0.0,0.0
1606986772931285357,661114,1606983171848524819,imu_link,0.005741507280617952,0.01592770777642727,0.5216860771179199,0.8529694676399231,0.0,0.0,0.0,0.0,0.0,0.0,0.0,0.0,0.0,62.91691970825195,1.2136821746826172,1.5138800144195557,0.0,0.0,0.0,0.0,0.0,0.0,0.0,0.0,0.0,-0.001089783851057291,0.015110503882169724,0.014690515585243702,0.0,0.0,0.0,0.0,0.0,0.0,0.0,0.0,0.0
1606986772931295266,661115,1606983171848599647,imu_link,0.005741410423070192,0.01592814177274704,0.521682620048523,0.8529716730117798,0.0,0.0,0.0,0.0,0.0,0.0,0.0,0.0,0.0,62.916446685791016,1.2137367725372314,1.513891339302063,0.0,0.0,0.0,0.0,0.0,0.0,0.0,0.0,0.0,-0.010467943735420704,-0.0025706856977194548,0.00863636750727892,0.0,0.0,0.0,0.0,0.0,0.0,0.0,0.0,0.0
1606986772931301878,661116,1606983171848660799,imu_link,0.005741410423070192,0.01592814177274704,0.521682620048523,0.8529716730117798,0.0,0.0,0.0,0.0,0.0,0.0,0.0,0.0,0.0,62.916446685791016,1.2137367725372314,1.513891339302063,0.0,0.0,0.0,0.0,0.0,0.0,0.0,0.0,0.0,-0.010467943735420704,-0.0025706856977194548,0.00863636750727892,0.0,0.0,0.0,0.0,0.0,0.0,0.0,0.0,0.0
1606986772931313299,661117,1606983171848722054,imu_link,0.005740698426961899,0.01592876762151718,0.5216833353042603,0.8529711365699768,0.0,0.0,0.0,0.0,0.0,0.0,0.0,0.0,0.0,62.91654968261719,1.213839054107666,1.5138603448867798,0.0,0.0,0.0,0.0,0.0,0.0,0.0,0.0,0.0,-0.01113757211714983,0.006815274246037006,0.018855268135666847,0.0,0.0,0.0,0.0,0.0,0.0,0.0,0.0,0.0
1606986772931328690,661118,1606983171848781008,imu_link,0.005740698426961899,0.01592876762151718,0.5216833353042603,0.8529711365699768,0.0,0.0,0.0,0.0,0.0,0.0,0.0,0.0,0.0,62.91654968261719,1.213839054107666,1.5138603448867798,0.0,0.0,0.0,0.0,0.0,0.0,0.0,0.0,0.0,-0.01113757211714983,0.006815274246037006,0.018855268135666847,0.0,0.0,0.0,0.0,0.0,0.0,0.0,0.0,0.0
1606986772931341923,661119,1606983171848839879,imu_link,0.005741307511925697,0.015926579013466835,0.5216813683509827,0.8529724478721619,0.0,0.0,0.0,0.0,0.0,0.0,0.0,0.0,0.0,62.91627883911133,1.213592290878296,1.5137860774993896,0.0,0.0,0.0,0.0,0.0,0.0,0.0,0.0,0.0,-0.0034465184435248375,0.015209916979074478,0.028289062902331352,0.0,0.0,0.0,0.0,0.0,0.0,0.0,0.0,0.0
1606986772931353036,661120,1606983171862026666,imu_link,0.005741307511925697,0.015926579013466835,0.5216813683509827,0.8529724478721619,0.0,0.0,0.0,0.0,0.0,0.0,0.0,0.0,0.0,62.91627883911133,1.213592290878296,1.5137860774993896,0.0,0.0,0.0,0.0,0.0,0.0,0.0,0.0,0.0,-0.0034465184435248375,0.015209916979074478,0.028289062902331352,0.0,0.0,0.0,0.0,0.0,0.0,0.0,0.0,0.0
1606986772931361526,661121,1606983171862131075,imu_link,0.005741576198488474,0.015927275642752647,0.5216794610023499,0.8529736399650574,0.0,0.0,0.0,0.0,0.0,0.0,0.0,0.0,0.0,62.916019439697266,1.213647723197937,1.5138511657714844,0.0,0.0,0.0,0.0,0.0,0.0,0.0,0.0,0.0,-0.0143013596534729,-0.006729916203767061,0.03569910675287247,0.0,0.0,0.0,0.0,0.0,0.0,0.0,0.0,0.0
1606986772931371208,661122,1606983171862275635,imu_link,0.005741576198488474,0.015927275642752647,0.5216794610023499,0.8529736399650574,0.0,0.0,0.0,0.0,0.0,0.0,0.0,0.0,0.0,62.916019439697266,1.213647723197937,1.5138511657714844,0.0,0.0,0.0,0.0,0.0,0.0,0.0,0.0,0.0,-0.0143013596534729,-0.006729916203767061,0.03569910675287247,0.0,0.0,0.0,0.0,0.0,0.0,0.0,0.0,0.0
1606986772931381342,661123,1606983171862341879,imu_link,0.005743413232266903,0.015924597159028053,0.5216799378395081,0.8529733419418335,0.0,0.0,0.0,0.0,0.0,0.0,0.0,0.0,0.0,62.916080474853516,1.2132751941680908,1.513871192932129,0.0,0.0,0.0,0.0,0.0,0.0,0.0,0.0,0.0,-0.005364860408008099,-0.013955628499388695,0.03056599758565426,0.0,0.0,0.0,0.0,0.0,0.0,0.0,0.0,0.0
1606986772931386484,661124,1606983171862429851,imu_link,0.005743413232266903,0.015924597159028053,0.5216799378395081,0.8529733419418335,0.0,0.0,0.0,0.0,0.0,0.0,0.0,0.0,0.0,62.916080474853516,1.2132751941680908,1.513871192932129,0.0,0.0,0.0,0.0,0.0,0.0,0.0,0.0,0.0,-0.005364860408008099,-0.013955628499388695,0.03056599758565426,0.0,0.0,0.0,0.0,0.0,0.0,0.0,0.0,0.0
1606986773034092117,661125,1606983171862504178,imu_link,0.005744303576648235,0.015923740342259407,0.5216814875602722,0.8529723882675171,0.0,0.0,0.0,0.0,0.0,0.0,0.0,0.0,0.0,62.916282653808594,1.2131354808807373,1.5139092206954956,0.0,0.0,0.0,0.0,0.0,0.0,0.0,0.0,0.0,0.011803294532001019,-0.005231449846178293,0.02882218360900879,0.0,0.0,0.0,0.0,0.0,0.0,0.0,0.0,0.0
1606986773034123762,661126,1606983171862578158,imu_link,0.005744303576648235,0.015923740342259407,0.5216814875602722,0.8529723882675171,0.0,0.0,0.0,0.0,0.0,0.0,0.0,0.0,0.0,62.916282653808594,1.2131354808807373,1.5139092206954956,0.0,0.0,0.0,0.0,0.0,0.0,0.0,0.0,0.0,0.011803294532001019,-0.005231449846178293,0.02882218360900879,0.0,0.0,0.0,0.0,0.0,0.0,0.0,0.0,0.0
1606986773034134016,661127,1606983171862634885,imu_link,0.005744870752096176,0.01592514105141163,0.5216814875602722,0.8529723882675171,0.0,0.0,0.0,0.0,0.0,0.0,0.0,0.0,0.0,62.916290283203125,1.2132385969161987,1.5140483379364014,0.0,0.0,0.0,0.0,0.0,0.0,0.0,0.0,0.0,0.007352911867201328,0.011564868502318859,0.026362188160419464,0.0,0.0,0.0,0.0,0.0,0.0,0.0,0.0,0.0
1606986773034142648,661128,1606983171862697361,imu_link,0.005744870752096176,0.01592514105141163,0.5216814875602722,0.8529723882675171,0.0,0.0,0.0,0.0,0.0,0.0,0.0,0.0,0.0,62.916290283203125,1.2132385969161987,1.5140483379364014,0.0,0.0,0.0,0.0,0.0,0.0,0.0,0.0,0.0,0.007352911867201328,0.011564868502318859,0.026362188160419464,0.0,0.0,0.0,0.0,0.0,0.0,0.0,0.0,0.0
1606986773039434111,661129,1606983171862755645,imu_link,0.00574509147554636,0.015925612300634384,0.5216802358627319,0.8529730439186096,0.0,0.0,0.0,0.0,0.0,0.0,0.0,0.0,0.0,62.9161262512207,1.213273525238037,1.5140966176986694,0.0,0.0,0.0,0.0,0.0,0.0,0.0,0.0,0.0,-0.0121656134724617,0.023139847442507744,0.00914612878113985,0.0,0.0,0.0,0.0,0.0,0.0,0.0,0.0,0.0
1606986773039471898,661130,1606983171862816225,imu_link,0.00574509147554636,0.015925612300634384,0.5216802358627319,0.8529730439186096,0.0,0.0,0.0,0.0,0.0,0.0,0.0,0.0,0.0,62.9161262512207,1.213273525238037,1.5140966176986694,0.0,0.0,0.0,0.0,0.0,0.0,0.0,0.0,0.0,-0.0121656134724617,0.023139847442507744,0.00914612878113985,0.0,0.0,0.0,0.0,0.0,0.0,0.0,0.0,0.0
1606986773039491846,661131,1606983171875398140,imu_link,0.005741854198276997,0.01592358388006687,0.5216763615608215,0.8529755473136902,0.0,0.0,0.0,0.0,0.0,0.0,0.0,0.0,0.0,62.91559982299805,1.2132759094238281,1.5136529207229614,0.0,0.0,0.0,0.0,0.0,0.0,0.0,0.0,0.0,-0.0253897737711668,0.0007998613873496652,0.007832372561097145,0.0,0.0,0.0,0.0,0.0,0.0,0.0,0.0,0.0
1606986773039510577,661132,1606983171875503311,imu_link,0.005741854198276997,0.01592358388006687,0.5216763615608215,0.8529755473136902,0.0,0.0,0.0,0.0,0.0,0.0,0.0,0.0,0.0,62.91559982299805,1.2132759094238281,1.5136529207229614,0.0,0.0,0.0,0.0,0.0,0.0,0.0,0.0,0.0,-0.0253897737711668,0.0007998613873496652,0.007832372561097145,0.0,0.0,0.0,0.0,0.0,0.0,0.0,0.0,0.0
1606986773039549520,661133,1606983171875624114,imu_link,0.005741044878959656,0.01592257432639599,0.5216742157936096,0.85297691822052,0.0,0.0,0.0,0.0,0.0,0.0,0.0,0.0,0.0,62.91530227661133,1.2132294178009033,1.5135102272033691,0.0,0.0,0.0,0.0,0.0,0.0,0.0,0.0,0.0,-0.008953016251325607,-0.0029990370385348797,0.03330925479531288,0.0,0.0,0.0,0.0,0.0,0.0,0.0,0.0,0.0
1606986773045184485,661134,1606983171875690154,imu_link,0.005741044878959656,0.01592257432639599,0.5216742157936096,0.85297691822052,0.0,0.0,0.0,0.0,0.0,0.0,0.0,0.0,0.0,62.91530227661133,1.2132294178009033,1.5135102272033691,0.0,0.0,0.0,0.0,0.0,0.0,0.0,0.0,0.0,-0.008953016251325607,-0.0029990370385348797,0.03330925479531288,0.0,0.0,0.0,0.0,0.0,0.0,0.0,0.0,0.0
1606986773045216038,661135,1606983171875809868,imu_link,0.005741884000599384,0.015920769423246384,0.5216688513755798,0.8529801964759827,0.0,0.0,0.0,0.0,0.0,0.0,0.0,0.0,0.0,62.91457748413086,1.2130122184753418,1.5134767293930054,0.0,0.0,0.0,0.0,0.0,0.0,0.0,0.0,0.0,-0.0035949195735156536,-0.0022832283284515142,0.05608951300382614,0.0,0.0,0.0,0.0,0.0,0.0,0.0,0.0,0.0
1606986773045238046,661136,1606983171875887414,imu_link,0.005741884000599384,0.015920769423246384,0.5216688513755798,0.8529801964759827,0.0,0.0,0.0,0.0,0.0,0.0,0.0,0.0,0.0,62.91457748413086,1.2130122184753418,1.5134767293930054,0.0,0.0,0.0,0.0,0.0,0.0,0.0,0.0,0.0,-0.0035949195735156536,-0.0022832283284515142,0.05608951300382614,0.0,0.0,0.0,0.0,0.0,0.0,0.0,0.0,0.0
1606986773045256566,661137,1606983171875948006,imu_link,0.0057400367222726345,0.015919892117381096,0.5216695666313171,0.8529797792434692,0.0,0.0,0.0,0.0,0.0,0.0,0.0,0.0,0.0,62.9146728515625,1.2130358219146729,1.51324462890625,0.0,0.0,0.0,0.0,0.0,0.0,0.0,0.0,0.0,-0.014243575744330883,-0.009429287165403366,0.03891204670071602,0.0,0.0,0.0,0.0,0.0,0.0,0.0,0.0,0.0
1606986773052726018,661138,1606983171876005116,imu_link,0.0057400367222726345,0.015919892117381096,0.5216695666313171,0.8529797792434692,0.0,0.0,0.0,0.0,0.0,0.0,0.0,0.0,0.0,62.9146728515625,1.2130358219146729,1.51324462890625,0.0,0.0,0.0,0.0,0.0,0.0,0.0,0.0,0.0,-0.014243575744330883,-0.009429287165403366,0.03891204670071602,0.0,0.0,0.0,0.0,0.0,0.0,0.0,0.0,0.0
1606986773052753715,661139,1606983171876062813,imu_link,0.005742624867707491,0.015920162200927734,0.5216761231422424,0.8529757261276245,0.0,0.0,0.0,0.0,0.0,0.0,0.0,0.0,0.0,62.91555404663086,1.2128957509994507,1.5135232210159302,0.0,0.0,0.0,0.0,0.0,0.0,0.0,0.0,0.0,-0.015207890421152115,-0.00995298195630312,0.02348056063055992,0.0,0.0,0.0,0.0,0.0,0.0,0.0,0.0,0.0
1606986773052799398,661140,1606983171876119377,imu_link,0.005742624867707491,0.015920162200927734,0.5216761231422424,0.8529757261276245,0.0,0.0,0.0,0.0,0.0,0.0,0.0,0.0,0.0,62.91555404663086,1.2128957509994507,1.5135232210159302,0.0,0.0,0.0,0.0,0.0,0.0,0.0,0.0,0.0,-0.015207890421152115,-0.00995298195630312,0.02348056063055992,0.0,0.0,0.0,0.0,0.0,0.0,0.0,0.0,0.0
1606986773052816810,661141,1606983171876176655,imu_link,0.005742484703660011,0.015919087454676628,0.521676242351532,0.8529756665229797,0.0,0.0,0.0,0.0,0.0,0.0,0.0,0.0,0.0,62.915565490722656,1.2127989530563354,1.513445496559143,0.0,0.0,0.0,0.0,0.0,0.0,0.0,0.0,0.0,-0.00855146162211895,0.0005811488954350352,0.03616412729024887,0.0,0.0,0.0,0.0,0.0,0.0,0.0,0.0,0.0
1606986773111572212,661142,1606983171888418450,imu_link,0.005742484703660011,0.015919087454676628,0.521676242351532,0.8529756665229797,0.0,0.0,0.0,0.0,0.0,0.0,0.0,0.0,0.0,62.915565490722656,1.2127989530563354,1.513445496559143,0.0,0.0,0.0,0.0,0.0,0.0,0.0,0.0,0.0,-0.00855146162211895,0.0005811488954350352,0.03616412729024887,0.0,0.0,0.0,0.0,0.0,0.0,0.0,0.0,0.0
1606986773111589515,661143,1606983171888545308,imu_link,0.005741605535149574,0.015919800847768784,0.52168208360672,0.852972149848938,0.0,0.0,0.0,0.0,0.0,0.0,0.0,0.0,0.0,62.916351318359375,1.2129108905792236,1.5134104490280151,0.0,0.0,0.0,0.0,0.0,0.0,0.0,0.0,0.0,-0.009744015522301197,0.003104916773736477,0.014129869639873505,0.0,0.0,0.0,0.0,0.0,0.0,0.0,0.0,0.0
1606986773111601194,661144,1606983171888674439,imu_link,0.005741605535149574,0.015919800847768784,0.52168208360672,0.852972149848938,0.0,0.0,0.0,0.0,0.0,0.0,0.0,0.0,0.0,62.916351318359375,1.2129108905792236,1.5134104490280151,0.0,0.0,0.0,0.0,0.0,0.0,0.0,0.0,0.0,-0.009744015522301197,0.003104916773736477,0.014129869639873505,0.0,0.0,0.0,0.0,0.0,0.0,0.0,0.0,0.0
1606986773111615594,661145,1606983171888764994,imu_link,0.00574110634624958,0.015918999910354614,0.5216803550720215,0.8529731631278992,0.0,0.0,0.0,0.0,0.0,0.0,0.0,0.0,0.0,62.91611862182617,1.2128654718399048,1.5133113861083984,0.0,0.0,0.0,0.0,0.0,0.0,0.0,0.0,0.0,-0.006946184206753969,0.018393151462078094,-0.006846917327493429,0.0,0.0,0.0,0.0,0.0,0.0,0.0,0.0,0.0
1606986773111630361,661146,1606983171888842850,imu_link,0.00574110634624958,0.015918999910354614,0.5216803550720215,0.8529731631278992,0.0,0.0,0.0,0.0,0.0,0.0,0.0,0.0,0.0,62.91611862182617,1.2128654718399048,1.5133113861083984,0.0,0.0,0.0,0.0,0.0,0.0,0.0,0.0,0.0,-0.006946184206753969,0.018393151462078094,-0.006846917327493429,0.0,0.0,0.0,0.0,0.0,0.0,0.0,0.0,0.0
1606986773115789346,661147,1606983171888932622,imu_link,0.005736941006034613,0.01591581292450428,0.5216851234436035,0.8529703617095947,0.0,0.0,0.0,0.0,0.0,0.0,0.0,0.0,0.0,62.916748046875,1.2127946615219116,1.5127201080322266,0.0,0.0,0.0,0.0,0.0,0.0,0.0,0.0,0.0,-0.005954751279205084,0.02541814185678959,0.005702797323465347,0.0,0.0,0.0,0.0,0.0,0.0,0.0,0.0,0.0
1606986773115815577,661148,1606983171889006523,imu_link,0.005736941006034613,0.01591581292450428,0.5216851234436035,0.8529703617095947,0.0,0.0,0.0,0.0,0.0,0.0,0.0,0.0,0.0,62.916748046875,1.2127946615219116,1.5127201080322266,0.0,0.0,0.0,0.0,0.0,0.0,0.0,0.0,0.0,-0.005954751279205084,0.02541814185678959,0.005702797323465347,0.0,0.0,0.0,0.0,0.0,0.0,0.0,0.0,0.0
1606986773115831768,661149,1606983171889079220,imu_link,0.005735466256737709,0.0159134641289711,0.5216851830482483,0.8529704213142395,0.0,0.0,0.0,0.0,0.0,0.0,0.0,0.0,0.0,62.91674041748047,1.2126532793045044,1.5124353170394897,0.0,0.0,0.0,0.0,0.0,0.0,0.0,0.0,0.0,-0.0026242586318403482,0.0037262500263750553,-0.0028868415392935276,0.0,0.0,0.0,0.0,0.0,0.0,0.0,0.0,0.0
1606986773115842828,661150,1606983171889151258,imu_link,0.005735466256737709,0.0159134641289711,0.5216851830482483,0.8529704213142395,0.0,0.0,0.0,0.0,0.0,0.0,0.0,0.0,0.0,62.91674041748047,1.2126532793045044,1.5124353170394897,0.0,0.0,0.0,0.0,0.0,0.0,0.0,0.0,0.0,-0.0026242586318403482,0.0037262500263750553,-0.0028868415392935276,0.0,0.0,0.0,0.0,0.0,0.0,0.0,0.0,0.0
1606986773120952230,661151,1606983171889223634,imu_link,0.005734580103307962,0.01591447927057743,0.5216879844665527,0.852968692779541,0.0,0.0,0.0,0.0,0.0,0.0,0.0,0.0,0.0,62.9171257019043,1.2128005027770996,1.512413501739502,0.0,0.0,0.0,0.0,0.0,0.0,0.0,0.0,0.0,0.0001015707675833255,0.005061562638729811,0.0017807699041441083,0.0,0.0,0.0,0.0,0.0,0.0,0.0,0.0,0.0
1606986773121000291,661152,1606983171902126060,imu_link,0.005734580103307962,0.01591447927057743,0.5216879844665527,0.852968692779541,0.0,0.0,0.0,0.0,0.0,0.0,0.0,0.0,0.0,62.9171257019043,1.2128005027770996,1.512413501739502,0.0,0.0,0.0,0.0,0.0,0.0,0.0,0.0,0.0,0.0001015707675833255,0.005061562638729811,0.0017807699041441083,0.0,0.0,0.0,0.0,0.0,0.0,0.0,0.0,0.0
1606986773121017892,661153,1606983171902206780,imu_link,0.005736082326620817,0.015915054827928543,0.5216869115829468,0.852969229221344,0.0,0.0,0.0,0.0,0.0,0.0,0.0,0.0,0.0,62.916988372802734,1.2127686738967896,1.5125932693481445,0.0,0.0,0.0,0.0,0.0,0.0,0.0,0.0,0.0,0.00933260191231966,0.00908788200467825,0.018267247825860977,0.0,0.0,0.0,0.0,0.0,0.0,0.0,0.0,0.0
1606986773121028196,661154,1606983171902322345,imu_link,0.005736082326620817,0.015915054827928543,0.5216869115829468,0.852969229221344,0.0,0.0,0.0,0.0,0.0,0.0,0.0,0.0,0.0,62.916988372802734,1.2127686738967896,1.5125932693481445,0.0,0.0,0.0,0.0,0.0,0.0,0.0,0.0,0.0,0.00933260191231966,0.00908788200467825,0.018267247825860977,0.0,0.0,0.0,0.0,0.0,0.0,0.0,0.0,0.0
1606986773121059073,661155,1606983171902368494,imu_link,0.005734078586101532,0.015914520248770714,0.5216866731643677,0.8529695272445679,0.0,0.0,0.0,0.0,0.0,0.0,0.0,0.0,0.0,62.91694641113281,1.2128369808197021,1.5123651027679443,0.0,0.0,0.0,0.0,0.0,0.0,0.0,0.0,0.0,0.00930720753967762,-0.0025508026592433453,0.0026509645394980907,0.0,0.0,0.0,0.0,0.0,0.0,0.0,0.0,0.0
1606986773127647464,661156,1606983171902415072,imu_link,0.005734078586101532,0.015914520248770714,0.5216866731643677,0.8529695272445679,0.0,0.0,0.0,0.0,0.0,0.0,0.0,0.0,0.0,62.91694641113281,1.2128369808197021,1.5123651027679443,0.0,0.0,0.0,0.0,0.0,0.0,0.0,0.0,0.0,0.00930720753967762,-0.0025508026592433453,0.0026509645394980907,0.0,0.0,0.0,0.0,0.0,0.0,0.0,0.0,0.0
1606986773127684557,661157,1606983171902458347,imu_link,0.005733949597924948,0.015914808958768845,0.5216856002807617,0.8529700636863708,0.0,0.0,0.0,0.0,0.0,0.0,0.0,0.0,0.0,62.91680145263672,1.2128745317459106,1.5123682022094727,0.0,0.0,0.0,0.0,0.0,0.0,0.0,0.0,0.0,-0.0060905409045517445,-0.011748405173420906,-0.0018617981113493443,0.0,0.0,0.0,0.0,0.0,0.0,0.0,0.0,0.0
1606986773127711623,661158,1606983171902515128,imu_link,0.005733949597924948,0.015914808958768845,0.5216856002807617,0.8529700636863708,0.0,0.0,0.0,0.0,0.0,0.0,0.0,0.0,0.0,62.91680145263672,1.2128745317459106,1.5123682022094727,0.0,0.0,0.0,0.0,0.0,0.0,0.0,0.0,0.0,-0.0060905409045517445,-0.011748405173420906,-0.0018617981113493443,0.0,0.0,0.0,0.0,0.0,0.0,0.0,0.0,0.0
1606986773127725805,661159,1606983171902560022,imu_link,0.00573728745803237,0.015914691612124443,0.5216854214668274,0.8529702425003052,0.0,0.0,0.0,0.0,0.0,0.0,0.0,0.0,0.0,62.91677474975586,1.2126638889312744,1.512687087059021,0.0,0.0,0.0,0.0,0.0,0.0,0.0,0.0,0.0,-0.0032658553682267666,-0.0027693710289895535,0.022088458761572838,0.0,0.0,0.0,0.0,0.0,0.0,0.0,0.0,0.0
1606986773176343791,661160,1606983171902606588,imu_link,0.00573728745803237,0.015914691612124443,0.5216854214668274,0.8529702425003052,0.0,0.0,0.0,0.0,0.0,0.0,0.0,0.0,0.0,62.91677474975586,1.2126638889312744,1.512687087059021,0.0,0.0,0.0,0.0,0.0,0.0,0.0,0.0,0.0,-0.0032658553682267666,-0.0027693710289895535,0.022088458761572838,0.0,0.0,0.0,0.0,0.0,0.0,0.0,0.0,0.0
1606986773176372942,661161,1606983171902645157,imu_link,0.005736205726861954,0.015914978459477425,0.5216855406761169,0.8529701828956604,0.0,0.0,0.0,0.0,0.0,0.0,0.0,0.0,0.0,62.91679763793945,1.2127565145492554,1.5125987529754639,0.0,0.0,0.0,0.0,0.0,0.0,0.0,0.0,0.0,-0.0015706286067143083,0.008798924274742603,0.049331918358802795,0.0,0.0,0.0,0.0,0.0,0.0,0.0,0.0,0.0
1606986773176388204,661162,1606983171902688525,imu_link,0.005736205726861954,0.015914978459477425,0.5216855406761169,0.8529701828956604,0.0,0.0,0.0,0.0,0.0,0.0,0.0,0.0,0.0,62.91679763793945,1.2127565145492554,1.5125987529754639,0.0,0.0,0.0,0.0,0.0,0.0,0.0,0.0,0.0,-0.0015706286067143083,0.008798924274742603,0.049331918358802795,0.0,0.0,0.0,0.0,0.0,0.0,0.0,0.0,0.0
1606986773176400534,661163,1606983171915544690,imu_link,0.005736342165619135,0.015913020819425583,0.5216770172119141,0.8529754281044006,0.0,0.0,0.0,0.0,0.0,0.0,0.0,0.0,0.0,62.9156494140625,1.2125719785690308,1.5124826431274414,0.0,0.0,0.0,0.0,0.0,0.0,0.0,0.0,0.0,-0.010028507560491562,0.015329903922975063,0.05362936481833458,0.0,0.0,0.0,0.0,0.0,0.0,0.0,0.0,0.0
1606986773176413881,661164,1606983171915624803,imu_link,0.005736342165619135,0.015913020819425583,0.5216770172119141,0.8529754281044006,0.0,0.0,0.0,0.0,0.0,0.0,0.0,0.0,0.0,62.9156494140625,1.2125719785690308,1.5124826431274414,0.0,0.0,0.0,0.0,0.0,0.0,0.0,0.0,0.0,-0.010028507560491562,0.015329903922975063,0.05362936481833458,0.0,0.0,0.0,0.0,0.0,0.0,0.0,0.0,0.0
1606986773180110680,661165,1606983171915735662,imu_link,0.0057353489100933075,0.015914810821413994,0.5216755867004395,0.8529762625694275,0.0,0.0,0.0,0.0,0.0,0.0,0.0,0.0,0.0,62.91545867919922,1.2128089666366577,1.5124906301498413,0.0,0.0,0.0,0.0,0.0,0.0,0.0,0.0,0.0,-0.00020609068451449275,0.011052144691348076,0.04090801626443863,0.0,0.0,0.0,0.0,0.0,0.0,0.0,0.0,0.0
1606986773180177968,661166,1606983171915783718,imu_link,0.0057353489100933075,0.015914810821413994,0.5216755867004395,0.8529762625694275,0.0,0.0,0.0,0.0,0.0,0.0,0.0,0.0,0.0,62.91545867919922,1.2128089666366577,1.5124906301498413,0.0,0.0,0.0,0.0,0.0,0.0,0.0,0.0,0.0,-0.00020609068451449275,0.011052144691348076,0.04090801626443863,0.0,0.0,0.0,0.0,0.0,0.0,0.0,0.0,0.0
1606986773180194649,661167,1606983171915824565,imu_link,0.005735957529395819,0.015915008261799812,0.5216708183288574,0.8529791235923767,0.0,0.0,0.0,0.0,0.0,0.0,0.0,0.0,0.0,62.91482162475586,1.2128002643585205,1.5125553607940674,0.0,0.0,0.0,0.0,0.0,0.0,0.0,0.0,0.0,0.017547957599163055,-0.0029358472675085068,0.0358879491686821,0.0,0.0,0.0,0.0,0.0,0.0,0.0,0.0,0.0
1606986773180207684,661168,1606983171915865335,imu_link,0.005735957529395819,0.015915008261799812,0.5216708183288574,0.8529791235923767,0.0,0.0,0.0,0.0,0.0,0.0,0.0,0.0,0.0,62.91482162475586,1.2128002643585205,1.5125553607940674,0.0,0.0,0.0,0.0,0.0,0.0,0.0,0.0,0.0,0.017547957599163055,-0.0029358472675085068,0.0358879491686821,0.0,0.0,0.0,0.0,0.0,0.0,0.0,0.0,0.0
1606986773214668361,661169,1606983171915921249,imu_link,0.005734697449952364,0.01591343618929386,0.5216720104217529,0.8529784679412842,0.0,0.0,0.0,0.0,0.0,0.0,0.0,0.0,0.0,62.914974212646484,1.2127199172973633,1.5123398303985596,0.0,0.0,0.0,0.0,0.0,0.0,0.0,0.0,0.0,0.0072940802201628685,0.010272503830492496,0.024789361283183098,0.0,0.0,0.0,0.0,0.0,0.0,0.0,0.0,0.0
1606986773214709606,661170,1606983171915967005,imu_link,0.005734697449952364,0.01591343618929386,0.5216720104217529,0.8529784679412842,0.0,0.0,0.0,0.0,0.0,0.0,0.0,0.0,0.0,62.914974212646484,1.2127199172973633,1.5123398303985596,0.0,0.0,0.0,0.0,0.0,0.0,0.0,0.0,0.0,0.0072940802201628685,0.010272503830492496,0.024789361283183098,0.0,0.0,0.0,0.0,0.0,0.0,0.0,0.0,0.0
1606986773214728389,661171,1606983171916010551,imu_link,0.005732621997594833,0.015916185453534126,0.5216739177703857,0.8529772758483887,0.0,0.0,0.0,0.0,0.0,0.0,0.0,0.0,0.0,62.91523742675781,1.2131091356277466,1.5123041868209839,0.0,0.0,0.0,0.0,0.0,0.0,0.0,0.0,0.0,0.0018431920325383544,0.013197189196944237,0.004707919899374247,0.0,0.0,0.0,0.0,0.0,0.0,0.0,0.0,0.0
1606986773214750113,661172,1606983171916053924,imu_link,0.005732621997594833,0.015916185453534126,0.5216739177703857,0.8529772758483887,0.0,0.0,0.0,0.0,0.0,0.0,0.0,0.0,0.0,62.91523742675781,1.2131091356277466,1.5123041868209839,0.0,0.0,0.0,0.0,0.0,0.0,0.0,0.0,0.0,0.0018431920325383544,0.013197189196944237,0.004707919899374247,0.0,0.0,0.0,0.0,0.0,0.0,0.0,0.0,0.0
1606986773214775755,661173,1606983171916098309,imu_link,0.005733142606914043,0.015915872529149055,0.5216729640960693,0.8529778718948364,0.0,0.0,0.0,0.0,0.0,0.0,0.0,0.0,0.0,62.91510772705078,1.213049292564392,1.512334942817688,0.0,0.0,0.0,0.0,0.0,0.0,0.0,0.0,0.0,-0.004430569242686033,-0.00029106036527082324,0.015284419991075993,0.0,0.0,0.0,0.0,0.0,0.0,0.0,0.0,0.0
1606986773218253874,661174,1606983171929259700,imu_link,0.005733142606914043,0.015915872529149055,0.5216729640960693,0.8529778718948364,0.0,0.0,0.0,0.0,0.0,0.0,0.0,0.0,0.0,62.91510772705078,1.213049292564392,1.512334942817688,0.0,0.0,0.0,0.0,0.0,0.0,0.0,0.0,0.0,-0.004430569242686033,-0.00029106036527082324,0.015284419991075993,0.0,0.0,0.0,0.0,0.0,0.0,0.0,0.0,0.0
1606986773218274622,661175,1606983171929341653,imu_link,0.005732209887355566,0.01591641828417778,0.5216744542121887,0.85297691822052,0.0,0.0,0.0,0.0,0.0,0.0,0.0,0.0,0.0,62.915306091308594,1.2131556272506714,1.5122785568237305,0.0,0.0,0.0,0.0,0.0,0.0,0.0,0.0,0.0,-0.012675922363996506,-0.00032376396120525897,0.0171965304762125,0.0,0.0,0.0,0.0,0.0,0.0,0.0,0.0,0.0
1606986773218313418,661176,1606983171929436936,imu_link,0.005732209887355566,0.01591641828417778,0.5216744542121887,0.85297691822052,0.0,0.0,0.0,0.0,0.0,0.0,0.0,0.0,0.0,62.915306091308594,1.2131556272506714,1.5122785568237305,0.0,0.0,0.0,0.0,0.0,0.0,0.0,0.0,0.0,-0.012675922363996506,-0.00032376396120525897,0.0171965304762125,0.0,0.0,0.0,0.0,0.0,0.0,0.0,0.0,0.0
1606986773218332295,661177,1606983171929500931,imu_link,0.005731227342039347,0.015917884185910225,0.5216725468635559,0.8529781103134155,0.0,0.0,0.0,0.0,0.0,0.0,0.0,0.0,0.0,62.91505432128906,1.213361144065857,1.5122674703598022,0.0,0.0,0.0,0.0,0.0,0.0,0.0,0.0,0.0,0.0025223998818546534,-0.004029648378491402,0.012450190261006355,0.0,0.0,0.0,0.0,0.0,0.0,0.0,0.0,0.0
1606986773307724869,661178,1606983171929556518,imu_link,0.005731227342039347,0.015917884185910225,0.5216725468635559,0.8529781103134155,0.0,0.0,0.0,0.0,0.0,0.0,0.0,0.0,0.0,62.91505432128906,1.213361144065857,1.5122674703598022,0.0,0.0,0.0,0.0,0.0,0.0,0.0,0.0,0.0,0.0025223998818546534,-0.004029648378491402,0.012450190261006355,0.0,0.0,0.0,0.0,0.0,0.0,0.0,0.0,0.0
1606986773307747408,661179,1606983171929614576,imu_link,0.005731634330004454,0.01591869257390499,0.5216737389564514,0.8529772758483887,0.0,0.0,0.0,0.0,0.0,0.0,0.0,0.0,0.0,62.915225982666016,1.2134135961532593,1.5123575925827026,0.0,0.0,0.0,0.0,0.0,0.0,0.0,0.0,0.0,0.0038516607601195574,-0.004853720776736736,0.03251584991812706,0.0,0.0,0.0,0.0,0.0,0.0,0.0,0.0,0.0
1606986773307754065,661180,1606983171929692749,imu_link,0.005731634330004454,0.01591869257390499,0.5216737389564514,0.8529772758483887,0.0,0.0,0.0,0.0,0.0,0.0,0.0,0.0,0.0,62.915225982666016,1.2134135961532593,1.5123575925827026,0.0,0.0,0.0,0.0,0.0,0.0,0.0,0.0,0.0,0.0038516607601195574,-0.004853720776736736,0.03251584991812706,0.0,0.0,0.0,0.0,0.0,0.0,0.0,0.0,0.0
1606986773307761967,661181,1606983171929752142,imu_link,0.005734183359891176,0.01592096872627735,0.5216724872589111,0.8529780507087708,0.0,0.0,0.0,0.0,0.0,0.0,0.0,0.0,0.0,62.915061950683594,1.2134859561920166,1.5127410888671875,0.0,0.0,0.0,0.0,0.0,0.0,0.0,0.0,0.0,-0.02012028358876705,0.011898891068994999,0.04272609204053879,0.0,0.0,0.0,0.0,0.0,0.0,0.0,0.0,0.0
1606986773307800807,661182,1606983171929857192,imu_link,0.005734183359891176,0.01592096872627735,0.5216724872589111,0.8529780507087708,0.0,0.0,0.0,0.0,0.0,0.0,0.0,0.0,0.0,62.915061950683594,1.2134859561920166,1.5127410888671875,0.0,0.0,0.0,0.0,0.0,0.0,0.0,0.0,0.0,-0.02012028358876705,0.011898891068994999,0.04272609204053879,0.0,0.0,0.0,0.0,0.0,0.0,0.0,0.0,0.0
1606986773313836631,661183,1606983171929920448,imu_link,0.0057339146733284,0.01591866835951805,0.521674394607544,0.85297691822052,0.0,0.0,0.0,0.0,0.0,0.0,0.0,0.0,0.0,62.915306091308594,1.2132737636566162,1.5125796794891357,0.0,0.0,0.0,0.0,0.0,0.0,0.0,0.0,0.0,-0.033784374594688416,0.02843991294503212,0.034422460943460464,0.0,0.0,0.0,0.0,0.0,0.0,0.0,0.0,0.0
1606986773313856389,661184,1606983171929986232,imu_link,0.0057339146733284,0.01591866835951805,0.521674394607544,0.85297691822052,0.0,0.0,0.0,0.0,0.0,0.0,0.0,0.0,0.0,62.915306091308594,1.2132737636566162,1.5125796794891357,0.0,0.0,0.0,0.0,0.0,0.0,0.0,0.0,0.0,-0.033784374594688416,0.02843991294503212,0.034422460943460464,0.0,0.0,0.0,0.0,0.0,0.0,0.0,0.0,0.0
1606986773313871105,661185,1606983171942847843,imu_link,0.005734819453209639,0.015918953344225883,0.5216748118400574,0.8529766201972961,0.0,0.0,0.0,0.0,0.0,0.0,0.0,0.0,0.0,62.915367126464844,1.2132467031478882,1.5126858949661255,0.0,0.0,0.0,0.0,0.0,0.0,0.0,0.0,0.0,-0.018270177766680717,0.012100327759981155,0.010095172561705112,0.0,0.0,0.0,0.0,0.0,0.0,0.0,0.0,0.0
1606986773313881928,661186,1606983171942987442,imu_link,0.005734819453209639,0.015918953344225883,0.5216748118400574,0.8529766201972961,0.0,0.0,0.0,0.0,0.0,0.0,0.0,0.0,0.0,62.915367126464844,1.2132467031478882,1.5126858949661255,0.0,0.0,0.0,0.0,0.0,0.0,0.0,0.0,0.0,-0.018270177766680717,0.012100327759981155,0.010095172561705112,0.0,0.0,0.0,0.0,0.0,0.0,0.0,0.0,0.0
1606986773319219934,661187,1606983171943060386,imu_link,0.005733291152864695,0.01591486856341362,0.5216751098632812,0.8529765009880066,0.0,0.0,0.0,0.0,0.0,0.0,0.0,0.0,0.0,62.91539764404297,1.2129383087158203,1.512292504310608,0.0,0.0,0.0,0.0,0.0,0.0,0.0,0.0,0.0,-0.0024670069105923176,-0.0017169661587104201,0.02490013837814331,0.0,0.0,0.0,0.0,0.0,0.0,0.0,0.0,0.0
1606986773319285410,661188,1606983171943117110,imu_link,0.005733291152864695,0.01591486856341362,0.5216751098632812,0.8529765009880066,0.0,0.0,0.0,0.0,0.0,0.0,0.0,0.0,0.0,62.91539764404297,1.2129383087158203,1.512292504310608,0.0,0.0,0.0,0.0,0.0,0.0,0.0,0.0,0.0,-0.0024670069105923176,-0.0017169661587104201,0.02490013837814331,0.0,0.0,0.0,0.0,0.0,0.0,0.0,0.0,0.0
1606986773319311808,661189,1606983171943178112,imu_link,0.0057321409694850445,0.015913618728518486,0.5216730833053589,0.8529777526855469,0.0,0.0,0.0,0.0,0.0,0.0,0.0,0.0,0.0,62.915122985839844,1.2128885984420776,1.5121023654937744,0.0,0.0,0.0,0.0,0.0,0.0,0.0,0.0,0.0,0.012327315285801888,-0.00481074396520853,0.032779086381196976,0.0,0.0,0.0,0.0,0.0,0.0,0.0,0.0,0.0
1606986773319333153,661190,1606983171943249015,imu_link,0.0057321409694850445,0.015913618728518486,0.5216730833053589,0.8529777526855469,0.0,0.0,0.0,0.0,0.0,0.0,0.0,0.0,0.0,62.915122985839844,1.2128885984420776,1.5121023654937744,0.0,0.0,0.0,0.0,0.0,0.0,0.0,0.0,0.0,0.012327315285801888,-0.00481074396520853,0.032779086381196976,0.0,0.0,0.0,0.0,0.0,0.0,0.0,0.0,0.0
1606986773319356663,661191,1606983171943308312,imu_link,0.005733101163059473,0.015914589166641235,0.5216741561889648,0.8529770374298096,0.0,0.0,0.0,0.0,0.0,0.0,0.0,0.0,0.0,62.9152717590332,1.2129240036010742,1.5122560262680054,0.0,0.0,0.0,0.0,0.0,0.0,0.0,0.0,0.0,0.014619074761867523,-0.006834706291556358,0.020214756950736046,0.0,0.0,0.0,0.0,0.0,0.0,0.0,0.0,0.0
1606986773322861751,661192,1606983171943373419,imu_link,0.005733101163059473,0.015914589166641235,0.5216741561889648,0.8529770374298096,0.0,0.0,0.0,0.0,0.0,0.0,0.0,0.0,0.0,62.9152717590332,1.2129240036010742,1.5122560262680054,0.0,0.0,0.0,0.0,0.0,0.0,0.0,0.0,0.0,0.014619074761867523,-0.006834706291556358,0.020214756950736046,0.0,0.0,0.0,0.0,0.0,0.0,0.0,0.0,0.0
1606986773322883356,661193,1606983171943426316,imu_link,0.0057328371331095695,0.015913838520646095,0.5216723084449768,0.8529782891273499,0.0,0.0,0.0,0.0,0.0,0.0,0.0,0.0,0.0,62.91501235961914,1.2128698825836182,1.512182354927063,0.0,0.0,0.0,0.0,0.0,0.0,0.0,0.0,0.0,0.010256700217723846,-0.009369337931275368,0.018510783091187477,0.0,0.0,0.0,0.0,0.0,0.0,0.0,0.0,0.0
1606986773322892250,661194,1606983171943487195,imu_link,0.0057328371331095695,0.015913838520646095,0.5216723084449768,0.8529782891273499,0.0,0.0,0.0,0.0,0.0,0.0,0.0,0.0,0.0,62.91501235961914,1.2128698825836182,1.512182354927063,0.0,0.0,0.0,0.0,0.0,0.0,0.0,0.0,0.0,0.010256700217723846,-0.009369337931275368,0.018510783091187477,0.0,0.0,0.0,0.0,0.0,0.0,0.0,0.0,0.0
1606986773322900415,661195,1606983171943546824,imu_link,0.005734034813940525,0.015917031094431877,0.5216740965843201,0.8529770970344543,0.0,0.0,0.0,0.0,0.0,0.0,0.0,0.0,0.0,62.91526794433594,1.2131071090698242,1.5124932527542114,0.0,0.0,0.0,0.0,0.0,0.0,0.0,0.0,0.0,-0.006635804660618305,-0.008448642678558826,0.03408234193921089,0.0,0.0,0.0,0.0,0.0,0.0,0.0,0.0,0.0
1606986773362136438,661196,1606983171955782609,imu_link,0.005734034813940525,0.015917031094431877,0.5216740965843201,0.8529770970344543,0.0,0.0,0.0,0.0,0.0,0.0,0.0,0.0,0.0,62.91526794433594,1.2131071090698242,1.5124932527542114,0.0,0.0,0.0,0.0,0.0,0.0,0.0,0.0,0.0,-0.006635804660618305,-0.008448642678558826,0.03408234193921089,0.0,0.0,0.0,0.0,0.0,0.0,0.0,0.0,0.0
1606986773362154992,661197,1606983171955887685,imu_link,0.0057359966449439526,0.015918036922812462,0.5216743350028992,0.85297691822052,0.0,0.0,0.0,0.0,0.0,0.0,0.0,0.0,0.0,62.91530227661133,1.213087558746338,1.5127456188201904,0.0,0.0,0.0,0.0,0.0,0.0,0.0,0.0,0.0,-0.011452978476881981,-0.008647727780044079,0.044536422938108444,0.0,0.0,0.0,0.0,0.0,0.0,0.0,0.0,0.0
1606986773362168512,661198,1606983171956002420,imu_link,0.0057359966449439526,0.015918036922812462,0.5216743350028992,0.85297691822052,0.0,0.0,0.0,0.0,0.0,0.0,0.0,0.0,0.0,62.91530227661133,1.213087558746338,1.5127456188201904,0.0,0.0,0.0,0.0,0.0,0.0,0.0,0.0,0.0,-0.011452978476881981,-0.008647727780044079,0.044536422938108444,0.0,0.0,0.0,0.0,0.0,0.0,0.0,0.0,0.0
1606986773362174690,661199,1606983171956071835,imu_link,0.0057385885156691074,0.015917429700493813,0.5216767191886902,0.8529754281044006,0.0,0.0,0.0,0.0,0.0,0.0,0.0,0.0,0.0,62.915626525878906,1.2128689289093018,1.5129659175872803,0.0,0.0,0.0,0.0,0.0,0.0,0.0,0.0,0.0,0.0006587929674424231,0.0009818387916311622,0.026651808992028236,0.0,0.0,0.0,0.0,0.0,0.0,0.0,0.0,0.0
1606986773362227756,661200,1606983171956141291,imu_link,0.0057385885156691074,0.015917429700493813,0.5216767191886902,0.8529754281044006,0.0,0.0,0.0,0.0,0.0,0.0,0.0,0.0,0.0,62.915626525878906,1.2128689289093018,1.5129659175872803,0.0,0.0,0.0,0.0,0.0,0.0,0.0,0.0,0.0,0.0006587929674424231,0.0009818387916311622,0.026651808992028236,0.0,0.0,0.0,0.0,0.0,0.0,0.0,0.0,0.0
1606986773394929814,661201,1606983171956218021,imu_link,0.005738906562328339,0.01591668091714382,0.5216760039329529,0.8529759049415588,0.0,0.0,0.0,0.0,0.0,0.0,0.0,0.0,0.0,62.91552734375,1.212778091430664,1.512951135635376,0.0,0.0,0.0,0.0,0.0,0.0,0.0,0.0,0.0,-0.0014332234859466553,0.01821894198656082,0.032115161418914795,0.0,0.0,0.0,0.0,0.0,0.0,0.0,0.0,0.0
1606986773394954837,661202,1606983171956280715,imu_link,0.005738906562328339,0.01591668091714382,0.5216760039329529,0.8529759049415588,0.0,0.0,0.0,0.0,0.0,0.0,0.0,0.0,0.0,62.91552734375,1.212778091430664,1.512951135635376,0.0,0.0,0.0,0.0,0.0,0.0,0.0,0.0,0.0,-0.0014332234859466553,0.01821894198656082,0.032115161418914795,0.0,0.0,0.0,0.0,0.0,0.0,0.0,0.0,0.0
1606986773394963063,661203,1606983171956339641,imu_link,0.00573830446228385,0.01591475121676922,0.5216763615608215,0.8529757261276245,0.0,0.0,0.0,0.0,0.0,0.0,0.0,0.0,0.0,62.915565490722656,1.2126247882843018,1.512777328491211,0.0,0.0,0.0,0.0,0.0,0.0,0.0,0.0,0.0,-0.002283098641782999,0.02923162467777729,0.04671894386410713,0.0,0.0,0.0,0.0,0.0,0.0,0.0,0.0,0.0
1606986773394986138,661204,1606983171956398442,imu_link,0.00573830446228385,0.01591475121676922,0.5216763615608215,0.8529757261276245,0.0,0.0,0.0,0.0,0.0,0.0,0.0,0.0,0.0,62.915565490722656,1.2126247882843018,1.512777328491211,0.0,0.0,0.0,0.0,0.0,0.0,0.0,0.0,0.0,-0.002283098641782999,0.02923162467777729,0.04671894386410713,0.0,0.0,0.0,0.0,0.0,0.0,0.0,0.0,0.0
1606986773402824484,661205,1606983171956458690,imu_link,0.005736377090215683,0.0159162487834692,0.5216751098632812,0.8529765009880066,0.0,0.0,0.0,0.0,0.0,0.0,0.0,0.0,0.0,62.915401458740234,1.2128888368606567,1.51267671585083,0.0,0.0,0.0,0.0,0.0,0.0,0.0,0.0,0.0,0.0008205786580219865,0.021323513239622116,0.06259315460920334,0.0,0.0,0.0,0.0,0.0,0.0,0.0,0.0,0.0
1606986773402853464,661206,1606983171969583320,imu_link,0.005736377090215683,0.0159162487834692,0.5216751098632812,0.8529765009880066,0.0,0.0,0.0,0.0,0.0,0.0,0.0,0.0,0.0,62.915401458740234,1.2128888368606567,1.51267671585083,0.0,0.0,0.0,0.0,0.0,0.0,0.0,0.0,0.0,0.0008205786580219865,0.021323513239622116,0.06259315460920334,0.0,0.0,0.0,0.0,0.0,0.0,0.0,0.0,0.0
1606986773402871874,661207,1606983171969692099,imu_link,0.005735266488045454,0.015913786366581917,0.5216744542121887,0.8529769778251648,0.0,0.0,0.0,0.0,0.0,0.0,0.0,0.0,0.0,62.915306091308594,1.212715744972229,1.5124199390411377,0.0,0.0,0.0,0.0,0.0,0.0,0.0,0.0,0.0,0.0022239130921661854,0.0020530300680547953,0.049061767756938934,0.0,0.0,0.0,0.0,0.0,0.0,0.0,0.0,0.0
1606986773402886826,661208,1606983171969771356,imu_link,0.005735266488045454,0.015913786366581917,0.5216744542121887,0.8529769778251648,0.0,0.0,0.0,0.0,0.0,0.0,0.0,0.0,0.0,62.915306091308594,1.212715744972229,1.5124199390411377,0.0,0.0,0.0,0.0,0.0,0.0,0.0,0.0,0.0,0.0022239130921661854,0.0020530300680547953,0.049061767756938934,0.0,0.0,0.0,0.0,0.0,0.0,0.0,0.0,0.0
1606986773406585582,661209,1606983171969846347,imu_link,0.005736665800213814,0.015915729105472565,0.5216754674911499,0.8529763221740723,0.0,0.0,0.0,0.0,0.0,0.0,0.0,0.0,0.0,62.915443420410156,1.2128201723098755,1.5126742124557495,0.0,0.0,0.0,0.0,0.0,0.0,0.0,0.0,0.0,-9.211467113345861e-05,-0.008914874866604805,0.03052615560591221,0.0,0.0,0.0,0.0,0.0,0.0,0.0,0.0,0.0
1606986773406611590,661210,1606983171969921769,imu_link,0.005736665800213814,0.015915729105472565,0.5216754674911499,0.8529763221740723,0.0,0.0,0.0,0.0,0.0,0.0,0.0,0.0,0.0,62.915443420410156,1.2128201723098755,1.5126742124557495,0.0,0.0,0.0,0.0,0.0,0.0,0.0,0.0,0.0,-9.211467113345861e-05,-0.008914874866604805,0.03052615560591221,0.0,0.0,0.0,0.0,0.0,0.0,0.0,0.0,0.0
1606986773406629672,661211,1606983171969980749,imu_link,0.005736857652664185,0.01591574214398861,0.5216781497001648,0.8529746532440186,0.0,0.0,0.0,0.0,0.0,0.0,0.0,0.0,0.0,62.91580581665039,1.212805151939392,1.512697696685791,0.0,0.0,0.0,0.0,0.0,0.0,0.0,0.0,0.0,0.0007151617901399732,-0.017066694796085358,0.04200306162238121,0.0,0.0,0.0,0.0,0.0,0.0,0.0,0.0,0.0
1606986773406647505,661212,1606983171970086164,imu_link,0.005736857652664185,0.01591574214398861,0.5216781497001648,0.8529746532440186,0.0,0.0,0.0,0.0,0.0,0.0,0.0,0.0,0.0,62.91580581665039,1.212805151939392,1.512697696685791,0.0,0.0,0.0,0.0,0.0,0.0,0.0,0.0,0.0,0.0007151617901399732,-0.017066694796085358,0.04200306162238121,0.0,0.0,0.0,0.0,0.0,0.0,0.0,0.0,0.0
1606986773406664277,661213,1606983171970146762,imu_link,0.0057348813861608505,0.015916839241981506,0.5216774344444275,0.852975070476532,0.0,0.0,0.0,0.0,0.0,0.0,0.0,0.0,0.0,62.91571807861328,1.2130317687988281,1.5125690698623657,0.0,0.0,0.0,0.0,0.0,0.0,0.0,0.0,0.0,0.002192864427343011,-0.012402167543768883,0.04403620958328247,0.0,0.0,0.0,0.0,0.0,0.0,0.0,0.0,0.0
1606986773476970784,661214,1606983171970256208,imu_link,0.0057348813861608505,0.015916839241981506,0.5216774344444275,0.852975070476532,0.0,0.0,0.0,0.0,0.0,0.0,0.0,0.0,0.0,62.91571807861328,1.2130317687988281,1.5125690698623657,0.0,0.0,0.0,0.0,0.0,0.0,0.0,0.0,0.0,0.002192864427343011,-0.012402167543768883,0.04403620958328247,0.0,0.0,0.0,0.0,0.0,0.0,0.0,0.0,0.0
1606986773476989388,661215,1606983171970317200,imu_link,0.005736231338232756,0.015918156132102013,0.5216801762580872,0.8529733419418335,0.0,0.0,0.0,0.0,0.0,0.0,0.0,0.0,0.0,62.91609191894531,1.213074803352356,1.5127838850021362,0.0,0.0,0.0,0.0,0.0,0.0,0.0,0.0,0.0,0.018106067553162575,-0.0033256239257752895,0.006514442153275013,0.0,0.0,0.0,0.0,0.0,0.0,0.0,0.0,0.0
1606986773476997245,661216,1606983171970376979,imu_link,0.005736231338232756,0.015918156132102013,0.5216801762580872,0.8529733419418335,0.0,0.0,0.0,0.0,0.0,0.0,0.0,0.0,0.0,62.91609191894531,1.213074803352356,1.5127838850021362,0.0,0.0,0.0,0.0,0.0,0.0,0.0,0.0,0.0,0.018106067553162575,-0.0033256239257752895,0.006514442153275013,0.0,0.0,0.0,0.0,0.0,0.0,0.0,0.0,0.0
1606986773477007496,661217,1606983171982897440,imu_link,0.005735218990594149,0.015917576849460602,0.5216792225837708,0.8529739379882812,0.0,0.0,0.0,0.0,0.0,0.0,0.0,0.0,0.0,62.91595458984375,1.2130804061889648,1.5126490592956543,0.0,0.0,0.0,0.0,0.0,0.0,0.0,0.0,0.0,0.021670009940862656,-0.006520391907542944,0.004375576041638851,0.0,0.0,0.0,0.0,0.0,0.0,0.0,0.0,0.0
1606986773480858394,661218,1606983171983050876,imu_link,0.005735218990594149,0.015917576849460602,0.5216792225837708,0.8529739379882812,0.0,0.0,0.0,0.0,0.0,0.0,0.0,0.0,0.0,62.91595458984375,1.2130804061889648,1.5126490592956543,0.0,0.0,0.0,0.0,0.0,0.0,0.0,0.0,0.0,0.021670009940862656,-0.006520391907542944,0.004375576041638851,0.0,0.0,0.0,0.0,0.0,0.0,0.0,0.0,0.0
1606986773480877105,661219,1606983171983133707,imu_link,0.005735952407121658,0.015921015292406082,0.5216716527938843,0.852978527545929,0.0,0.0,0.0,0.0,0.0,0.0,0.0,0.0,0.0,62.91495132446289,1.2133861780166626,1.5129153728485107,0.0,0.0,0.0,0.0,0.0,0.0,0.0,0.0,0.0,0.010173989459872246,0.009025245904922485,0.026909127831459045,0.0,0.0,0.0,0.0,0.0,0.0,0.0,0.0,0.0
1606986773480883607,661220,1606983171983214068,imu_link,0.005735952407121658,0.015921015292406082,0.5216716527938843,0.852978527545929,0.0,0.0,0.0,0.0,0.0,0.0,0.0,0.0,0.0,62.91495132446289,1.2133861780166626,1.5129153728485107,0.0,0.0,0.0,0.0,0.0,0.0,0.0,0.0,0.0,0.010173989459872246,0.009025245904922485,0.026909127831459045,0.0,0.0,0.0,0.0,0.0,0.0,0.0,0.0,0.0
1606986773480894548,661221,1606983171983284291,imu_link,0.0057357060723006725,0.01592215523123741,0.521670937538147,0.8529789447784424,0.0,0.0,0.0,0.0,0.0,0.0,0.0,0.0,0.0,62.91485595703125,1.2135134935379028,1.5129586458206177,0.0,0.0,0.0,0.0,0.0,0.0,0.0,0.0,0.0,0.013681452721357346,0.01211502868682146,0.0152250612154603,0.0,0.0,0.0,0.0,0.0,0.0,0.0,0.0,0.0
1606986773480909469,661222,1606983171983408102,imu_link,0.0057357060723006725,0.01592215523123741,0.521670937538147,0.8529789447784424,0.0,0.0,0.0,0.0,0.0,0.0,0.0,0.0,0.0,62.91485595703125,1.2135134935379028,1.5129586458206177,0.0,0.0,0.0,0.0,0.0,0.0,0.0,0.0,0.0,0.013681452721357346,0.01211502868682146,0.0152250612154603,0.0,0.0,0.0,0.0,0.0,0.0,0.0,0.0,0.0
1606986773486659777,661223,1606983171983507110,imu_link,0.005732533521950245,0.015922462567687035,0.5216612815856934,0.8529848456382751,0.0,0.0,0.0,0.0,0.0,0.0,0.0,0.0,0.0,62.91355895996094,1.2137504816055298,1.5126533508300781,0.0,0.0,0.0,0.0,0.0,0.0,0.0,0.0,0.0,0.017238885164260864,-0.0006319897365756333,0.0006167967221699655,0.0,0.0,0.0,0.0,0.0,0.0,0.0,0.0,0.0
1606986773486675491,661224,1606983171983586217,imu_link,0.005732533521950245,0.015922462567687035,0.5216612815856934,0.8529848456382751,0.0,0.0,0.0,0.0,0.0,0.0,0.0,0.0,0.0,62.91355895996094,1.2137504816055298,1.5126533508300781,0.0,0.0,0.0,0.0,0.0,0.0,0.0,0.0,0.0,0.017238885164260864,-0.0006319897365756333,0.0006167967221699655,0.0,0.0,0.0,0.0,0.0,0.0,0.0,0.0,0.0
1606986773486680711,661225,1606983171983656509,imu_link,0.005733190570026636,0.015922866761684418,0.5216622948646545,0.8529842495918274,0.0,0.0,0.0,0.0,0.0,0.0,0.0,0.0,0.0,62.9136962890625,1.2137489318847656,1.5127429962158203,0.0,0.0,0.0,0.0,0.0,0.0,0.0,0.0,0.0,0.00585548859089613,0.019643496721982956,-0.013718439266085625,0.0,0.0,0.0,0.0,0.0,0.0,0.0,0.0,0.0
1606986773486686238,661226,1606983171983765169,imu_link,0.005733190570026636,0.015922866761684418,0.5216622948646545,0.8529842495918274,0.0,0.0,0.0,0.0,0.0,0.0,0.0,0.0,0.0,62.9136962890625,1.2137489318847656,1.5127429962158203,0.0,0.0,0.0,0.0,0.0,0.0,0.0,0.0,0.0,0.00585548859089613,0.019643496721982956,-0.013718439266085625,0.0,0.0,0.0,0.0,0.0,0.0,0.0,0.0,0.0
1606986773492096813,661227,1606983171983838918,imu_link,0.00573036028072238,0.015919741243124008,0.521662175655365,0.8529843688011169,0.0,0.0,0.0,0.0,0.0,0.0,0.0,0.0,0.0,62.91366958618164,1.213612675666809,1.5122792720794678,0.0,0.0,0.0,0.0,0.0,0.0,0.0,0.0,0.0,-0.003958751447498798,0.027688611298799515,5.15481224283576e-05,0.0,0.0,0.0,0.0,0.0,0.0,0.0,0.0,0.0
1606986773492130326,661228,1606983171996929012,imu_link,0.00573036028072238,0.015919741243124008,0.521662175655365,0.8529843688011169,0.0,0.0,0.0,0.0,0.0,0.0,0.0,0.0,0.0,62.91366958618164,1.213612675666809,1.5122792720794678,0.0,0.0,0.0,0.0,0.0,0.0,0.0,0.0,0.0,-0.003958751447498798,0.027688611298799515,5.15481224283576e-05,0.0,0.0,0.0,0.0,0.0,0.0,0.0,0.0,0.0
1606986773492135797,661229,1606983171997054980,imu_link,0.005731432698667049,0.015919378027319908,0.5216594934463501,0.8529860377311707,0.0,0.0,0.0,0.0,0.0,0.0,0.0,0.0,0.0,62.913307189941406,1.2135179042816162,1.51235830783844,0.0,0.0,0.0,0.0,0.0,0.0,0.0,0.0,0.0,-0.008580565452575684,0.023709291592240334,0.017587674781680107,0.0,0.0,0.0,0.0,0.0,0.0,0.0,0.0,0.0
1606986773492140445,661230,1606983171997179196,imu_link,0.005731432698667049,0.015919378027319908,0.5216594934463501,0.8529860377311707,0.0,0.0,0.0,0.0,0.0,0.0,0.0,0.0,0.0,62.913307189941406,1.2135179042816162,1.51235830783844,0.0,0.0,0.0,0.0,0.0,0.0,0.0,0.0,0.0,-0.008580565452575684,0.023709291592240334,0.017587674781680107,0.0,0.0,0.0,0.0,0.0,0.0,0.0,0.0,0.0
1606986773492181493,661231,1606983171997266478,imu_link,0.00572765339165926,0.015920082107186317,0.521658182144165,0.8529868125915527,0.0,0.0,0.0,0.0,0.0,0.0,0.0,0.0,0.0,62.91313552856445,1.2138150930404663,1.5120291709899902,0.0,0.0,0.0,0.0,0.0,0.0,0.0,0.0,0.0,-0.004427153151482344,0.007167082745581865,0.015518874861299992,0.0,0.0,0.0,0.0,0.0,0.0,0.0,0.0,0.0
1606986773511961483,661232,1606983171997342770,imu_link,0.00572765339165926,0.015920082107186317,0.521658182144165,0.8529868125915527,0.0,0.0,0.0,0.0,0.0,0.0,0.0,0.0,0.0,62.91313552856445,1.2138150930404663,1.5120291709899902,0.0,0.0,0.0,0.0,0.0,0.0,0.0,0.0,0.0,-0.004427153151482344,0.007167082745581865,0.015518874861299992,0.0,0.0,0.0,0.0,0.0,0.0,0.0,0.0,0.0
1606986773511982768,661233,1606983171997407782,imu_link,0.005728693213313818,0.015919078141450882,0.5216554999351501,0.8529884815216064,0.0,0.0,0.0,0.0,0.0,0.0,0.0,0.0,0.0,62.91277313232422,1.213659405708313,1.5120669603347778,0.0,0.0,0.0,0.0,0.0,0.0,0.0,0.0,0.0,-0.00615475419908762,-0.011104498989880085,0.027007773518562317,0.0,0.0,0.0,0.0,0.0,0.0,0.0,0.0,0.0
1606986773511996945,661234,1606983171997498539,imu_link,0.005728693213313818,0.015919078141450882,0.5216554999351501,0.8529884815216064,0.0,0.0,0.0,0.0,0.0,0.0,0.0,0.0,0.0,62.91277313232422,1.213659405708313,1.5120669603347778,0.0,0.0,0.0,0.0,0.0,0.0,0.0,0.0,0.0,-0.00615475419908762,-0.011104498989880085,0.027007773518562317,0.0,0.0,0.0,0.0,0.0,0.0,0.0,0.0,0.0
1606986773512009189,661235,1606983171997573063,imu_link,0.0057314541190862656,0.01591852493584156,0.5216599702835083,0.8529857397079468,0.0,0.0,0.0,0.0,0.0,0.0,0.0,0.0,0.0,62.913368225097656,1.2134324312210083,1.5123101472854614,0.0,0.0,0.0,0.0,0.0,0.0,0.0,0.0,0.0,-0.014839015901088715,0.01284739002585411,0.010573754087090492,0.0,0.0,0.0,0.0,0.0,0.0,0.0,0.0,0.0
1606986773518548653,661236,1606983171997639759,imu_link,0.0057314541190862656,0.01591852493584156,0.5216599702835083,0.8529857397079468,0.0,0.0,0.0,0.0,0.0,0.0,0.0,0.0,0.0,62.913368225097656,1.2134324312210083,1.5123101472854614,0.0,0.0,0.0,0.0,0.0,0.0,0.0,0.0,0.0,-0.014839015901088715,0.01284739002585411,0.010573754087090492,0.0,0.0,0.0,0.0,0.0,0.0,0.0,0.0,0.0
1606986773518578026,661237,1606983171997709178,imu_link,0.005731196142733097,0.015917062759399414,0.521660327911377,0.8529855608940125,0.0,0.0,0.0,0.0,0.0,0.0,0.0,0.0,0.0,62.913414001464844,1.2133044004440308,1.5121979713439941,0.0,0.0,0.0,0.0,0.0,0.0,0.0,0.0,0.0,-0.004888646304607391,0.0205120537430048,0.0005267116357572377,0.0,0.0,0.0,0.0,0.0,0.0,0.0,0.0,0.0
1606986773518592254,661238,1606983171997777131,imu_link,0.005731196142733097,0.015917062759399414,0.521660327911377,0.8529855608940125,0.0,0.0,0.0,0.0,0.0,0.0,0.0,0.0,0.0,62.913414001464844,1.2133044004440308,1.5121979713439941,0.0,0.0,0.0,0.0,0.0,0.0,0.0,0.0,0.0,-0.004888646304607391,0.0205120537430048,0.0005267116357572377,0.0,0.0,0.0,0.0,0.0,0.0,0.0,0.0,0.0
1606986773518603894,661239,1606983172010409691,imu_link,0.005730666685849428,0.015915023162961006,0.5216624736785889,0.8529842495918274,0.0,0.0,0.0,0.0,0.0,0.0,0.0,0.0,0.0,62.9136962890625,1.2131327390670776,1.5120271444320679,0.0,0.0,0.0,0.0,0.0,0.0,0.0,0.0,0.0,-0.003235309850424528,0.004627839662134647,0.027577122673392296,0.0,0.0,0.0,0.0,0.0,0.0,0.0,0.0,0.0
1606986773518613423,661240,1606983172010547699,imu_link,0.005730666685849428,0.015915023162961006,0.5216624736785889,0.8529842495918274,0.0,0.0,0.0,0.0,0.0,0.0,0.0,0.0,0.0,62.9136962890625,1.2131327390670776,1.5120271444320679,0.0,0.0,0.0,0.0,0.0,0.0,0.0,0.0,0.0,-0.003235309850424528,0.004627839662134647,0.027577122673392296,0.0,0.0,0.0,0.0,0.0,0.0,0.0,0.0,0.0
1606986773527649352,661241,1606983172010666694,imu_link,0.005729008466005325,0.015915628522634506,0.5216619968414307,0.8529845476150513,0.0,0.0,0.0,0.0,0.0,0.0,0.0,0.0,0.0,62.91363525390625,1.2132920026779175,1.5119006633758545,0.0,0.0,0.0,0.0,0.0,0.0,0.0,0.0,0.0,-0.0008941341075114906,0.007385674398392439,0.006874069571495056,0.0,0.0,0.0,0.0,0.0,0.0,0.0,0.0,0.0
1606986773527669545,661242,1606983172010747023,imu_link,0.005729008466005325,0.015915628522634506,0.5216619968414307,0.8529845476150513,0.0,0.0,0.0,0.0,0.0,0.0,0.0,0.0,0.0,62.91363525390625,1.2132920026779175,1.5119006633758545,0.0,0.0,0.0,0.0,0.0,0.0,0.0,0.0,0.0,-0.0008941341075114906,0.007385674398392439,0.006874069571495056,0.0,0.0,0.0,0.0,0.0,0.0,0.0,0.0,0.0
1606986773527680146,661243,1606983172010821279,imu_link,0.005727557931095362,0.015916459262371063,0.5216692686080933,0.8529801368713379,0.0,0.0,0.0,0.0,0.0,0.0,0.0,0.0,0.0,62.91461181640625,1.213447093963623,1.5118188858032227,0.0,0.0,0.0,0.0,0.0,0.0,0.0,0.0,0.0,0.01841442659497261,-0.012513456866145134,0.007537397090345621,0.0,0.0,0.0,0.0,0.0,0.0,0.0,0.0,0.0
1606986773527706010,661244,1606983172010914886,imu_link,0.005727557931095362,0.015916459262371063,0.5216692686080933,0.8529801368713379,0.0,0.0,0.0,0.0,0.0,0.0,0.0,0.0,0.0,62.91461181640625,1.213447093963623,1.5118188858032227,0.0,0.0,0.0,0.0,0.0,0.0,0.0,0.0,0.0,0.01841442659497261,-0.012513456866145134,0.007537397090345621,0.0,0.0,0.0,0.0,0.0,0.0,0.0,0.0,0.0
1606986773533939675,661245,1606983172011040711,imu_link,0.005727044772356749,0.01591453328728676,0.5216689705848694,0.8529803156852722,0.0,0.0,0.0,0.0,0.0,0.0,0.0,0.0,0.0,62.9145622253418,1.2132900953292847,1.511653184890747,0.0,0.0,0.0,0.0,0.0,0.0,0.0,0.0,0.0,0.021438919007778168,-0.016061652451753616,0.029430251568555832,0.0,0.0,0.0,0.0,0.0,0.0,0.0,0.0,0.0
1606986773533961135,661246,1606983172011124237,imu_link,0.005727044772356749,0.01591453328728676,0.5216689705848694,0.8529803156852722,0.0,0.0,0.0,0.0,0.0,0.0,0.0,0.0,0.0,62.9145622253418,1.2132900953292847,1.511653184890747,0.0,0.0,0.0,0.0,0.0,0.0,0.0,0.0,0.0,0.021438919007778168,-0.016061652451753616,0.029430251568555832,0.0,0.0,0.0,0.0,0.0,0.0,0.0,0.0,0.0
1606986773533970843,661247,1606983172011197839,imu_link,0.005727342329919338,0.01591913402080536,0.5216749906539917,0.8529765605926514,0.0,0.0,0.0,0.0,0.0,0.0,0.0,0.0,0.0,62.91539001464844,1.2137112617492676,1.5119661092758179,0.0,0.0,0.0,0.0,0.0,0.0,0.0,0.0,0.0,0.01371453795582056,0.005751479417085648,0.01814117841422558,0.0,0.0,0.0,0.0,0.0,0.0,0.0,0.0,0.0
1606986773533986165,661248,1606983172011266090,imu_link,0.005727342329919338,0.01591913402080536,0.5216749906539917,0.8529765605926514,0.0,0.0,0.0,0.0,0.0,0.0,0.0,0.0,0.0,62.91539001464844,1.2137112617492676,1.5119661092758179,0.0,0.0,0.0,0.0,0.0,0.0,0.0,0.0,0.0,0.01371453795582056,0.005751479417085648,0.01814117841422558,0.0,0.0,0.0,0.0,0.0,0.0,0.0,0.0,0.0
1606986773534028985,661249,1606983172011335718,imu_link,0.005726003088057041,0.0159193966537714,0.5216737985610962,0.8529772758483887,0.0,0.0,0.0,0.0,0.0,0.0,0.0,0.0,0.0,62.915225982666016,1.2138190269470215,1.511849045753479,0.0,0.0,0.0,0.0,0.0,0.0,0.0,0.0,0.0,0.010964482091367245,0.005236233584582806,0.02819313108921051,0.0,0.0,0.0,0.0,0.0,0.0,0.0,0.0,0.0
1606986773589534678,661250,1606983172023218337,imu_link,0.005726003088057041,0.0159193966537714,0.5216737985610962,0.8529772758483887,0.0,0.0,0.0,0.0,0.0,0.0,0.0,0.0,0.0,62.915225982666016,1.2138190269470215,1.511849045753479,0.0,0.0,0.0,0.0,0.0,0.0,0.0,0.0,0.0,0.010964482091367245,0.005236233584582806,0.02819313108921051,0.0,0.0,0.0,0.0,0.0,0.0,0.0,0.0,0.0
1606986773589549308,661251,1606983172023333403,imu_link,0.0057279448956251144,0.015920141711831093,0.5216759443283081,0.8529759645462036,0.0,0.0,0.0,0.0,0.0,0.0,0.0,0.0,0.0,62.91551971435547,1.2137720584869385,1.5120866298675537,0.0,0.0,0.0,0.0,0.0,0.0,0.0,0.0,0.0,0.011096636764705181,0.0009484767215326428,0.046679746359586716,0.0,0.0,0.0,0.0,0.0,0.0,0.0,0.0,0.0
1606986773589561466,661252,1606983172023410493,imu_link,0.0057279448956251144,0.015920141711831093,0.5216759443283081,0.8529759645462036,0.0,0.0,0.0,0.0,0.0,0.0,0.0,0.0,0.0,62.91551971435547,1.2137720584869385,1.5120866298675537,0.0,0.0,0.0,0.0,0.0,0.0,0.0,0.0,0.0,0.011096636764705181,0.0009484767215326428,0.046679746359586716,0.0,0.0,0.0,0.0,0.0,0.0,0.0,0.0,0.0
1606986773589573859,661253,1606983172023482379,imu_link,0.005727343261241913,0.015918562188744545,0.5216745138168335,0.85297691822052,0.0,0.0,0.0,0.0,0.0,0.0,0.0,0.0,0.0,62.915321350097656,1.2136563062667847,1.5119311809539795,0.0,0.0,0.0,0.0,0.0,0.0,0.0,0.0,0.0,0.007326133083552122,0.004481189884245396,0.05263076350092888,0.0,0.0,0.0,0.0,0.0,0.0,0.0,0.0,0.0
1606986773595489961,661254,1606983172023591031,imu_link,0.005727343261241913,0.015918562188744545,0.5216745138168335,0.85297691822052,0.0,0.0,0.0,0.0,0.0,0.0,0.0,0.0,0.0,62.915321350097656,1.2136563062667847,1.5119311809539795,0.0,0.0,0.0,0.0,0.0,0.0,0.0,0.0,0.0,0.007326133083552122,0.004481189884245396,0.05263076350092888,0.0,0.0,0.0,0.0,0.0,0.0,0.0,0.0,0.0
1606986773595543789,661255,1606983172023680553,imu_link,0.005727685522288084,0.015919586643576622,0.521675169467926,0.8529764413833618,0.0,0.0,0.0,0.0,0.0,0.0,0.0,0.0,0.0,62.9154167175293,1.213734745979309,1.5120269060134888,0.0,0.0,0.0,0.0,0.0,0.0,0.0,0.0,0.0,0.003347294172272086,0.00698503665626049,0.0227926317602396,0.0,0.0,0.0,0.0,0.0,0.0,0.0,0.0,0.0
1606986773595554915,661256,1606983172023756154,imu_link,0.005727685522288084,0.015919586643576622,0.521675169467926,0.8529764413833618,0.0,0.0,0.0,0.0,0.0,0.0,0.0,0.0,0.0,62.9154167175293,1.213734745979309,1.5120269060134888,0.0,0.0,0.0,0.0,0.0,0.0,0.0,0.0,0.0,0.003347294172272086,0.00698503665626049,0.0227926317602396,0.0,0.0,0.0,0.0,0.0,0.0,0.0,0.0,0.0
1606986773595570780,661257,1606983172023856206,imu_link,0.005727054551243782,0.015920458361506462,0.5216755270957947,0.8529762625694275,0.0,0.0,0.0,0.0,0.0,0.0,0.0,0.0,0.0,62.91545867919922,1.2138569355010986,1.5120177268981934,0.0,0.0,0.0,0.0,0.0,0.0,0.0,0.0,0.0,-0.0009284826228395104,-0.000742034986615181,-0.0013035594020038843,0.0,0.0,0.0,0.0,0.0,0.0,0.0,0.0,0.0
1606986773595583739,661258,1606983172023949752,imu_link,0.005727054551243782,0.015920458361506462,0.5216755270957947,0.8529762625694275,0.0,0.0,0.0,0.0,0.0,0.0,0.0,0.0,0.0,62.91545867919922,1.2138569355010986,1.5120177268981934,0.0,0.0,0.0,0.0,0.0,0.0,0.0,0.0,0.0,-0.0009284826228395104,-0.000742034986615181,-0.0013035594020038843,0.0,0.0,0.0,0.0,0.0,0.0,0.0,0.0,0.0
1606986773602515436,661259,1606983172024028509,imu_link,0.0057256524451076984,0.015920579433441162,0.5216779112815857,0.8529747128486633,0.0,0.0,0.0,0.0,0.0,0.0,0.0,0.0,0.0,62.91578674316406,1.213948369026184,1.5118916034698486,0.0,0.0,0.0,0.0,0.0,0.0,0.0,0.0,0.0,-0.004095510579645634,-0.01371475774794817,0.014499731361865997,0.0,0.0,0.0,0.0,0.0,0.0,0.0,0.0,0.0
1606986773602534894,661260,1606983172036946429,imu_link,0.0057256524451076984,0.015920579433441162,0.5216779112815857,0.8529747128486633,0.0,0.0,0.0,0.0,0.0,0.0,0.0,0.0,0.0,62.91578674316406,1.213948369026184,1.5118916034698486,0.0,0.0,0.0,0.0,0.0,0.0,0.0,0.0,0.0,-0.004095510579645634,-0.01371475774794817,0.014499731361865997,0.0,0.0,0.0,0.0,0.0,0.0,0.0,0.0,0.0
1606986773602544503,661261,1606983172037008973,imu_link,0.005727238953113556,0.015923412516713142,0.5216779708862305,0.8529746532440186,0.0,0.0,0.0,0.0,0.0,0.0,0.0,0.0,0.0,62.91579818725586,1.214130163192749,1.5122164487838745,0.0,0.0,0.0,0.0,0.0,0.0,0.0,0.0,0.0,0.008588294498622417,-0.006323307752609253,0.0359242744743824,0.0,0.0,0.0,0.0,0.0,0.0,0.0,0.0,0.0
1606986773602550214,661262,1606983172037053486,imu_link,0.005727238953113556,0.015923412516713142,0.5216779708862305,0.8529746532440186,0.0,0.0,0.0,0.0,0.0,0.0,0.0,0.0,0.0,62.91579818725586,1.214130163192749,1.5122164487838745,0.0,0.0,0.0,0.0,0.0,0.0,0.0,0.0,0.0,0.008588294498622417,-0.006323307752609253,0.0359242744743824,0.0,0.0,0.0,0.0,0.0,0.0,0.0,0.0,0.0
1606986773635845326,661263,1606983172037087349,imu_link,0.005725609138607979,0.01592680625617504,0.5216816067695618,0.8529723882675171,0.0,0.0,0.0,0.0,0.0,0.0,0.0,0.0,0.0,62.916297912597656,1.214552879333496,1.5122653245925903,0.0,0.0,0.0,0.0,0.0,0.0,0.0,0.0,0.0,0.01619313471019268,0.0026622924488037825,0.0325344055891037,0.0,0.0,0.0,0.0,0.0,0.0,0.0,0.0,0.0
1606986773635876476,661264,1606983172037120476,imu_link,0.005725609138607979,0.01592680625617504,0.5216816067695618,0.8529723882675171,0.0,0.0,0.0,0.0,0.0,0.0,0.0,0.0,0.0,62.916297912597656,1.214552879333496,1.5122653245925903,0.0,0.0,0.0,0.0,0.0,0.0,0.0,0.0,0.0,0.01619313471019268,0.0026622924488037825,0.0325344055891037,0.0,0.0,0.0,0.0,0.0,0.0,0.0,0.0,0.0
1606986773635934239,661265,1606983172037151111,imu_link,0.005725855473428965,0.015927040949463844,0.52168208360672,0.8529720902442932,0.0,0.0,0.0,0.0,0.0,0.0,0.0,0.0,0.0,62.91636657714844,1.2145602703094482,1.5123040676116943,0.0,0.0,0.0,0.0,0.0,0.0,0.0,0.0,0.0,0.01099710538983345,0.013722197152674198,0.029462303966283798,0.0,0.0,0.0,0.0,0.0,0.0,0.0,0.0,0.0
1606986773635948592,661266,1606983172037192899,imu_link,0.005725855473428965,0.015927040949463844,0.52168208360672,0.8529720902442932,0.0,0.0,0.0,0.0,0.0,0.0,0.0,0.0,0.0,62.91636657714844,1.2145602703094482,1.5123040676116943,0.0,0.0,0.0,0.0,0.0,0.0,0.0,0.0,0.0,0.01099710538983345,0.013722197152674198,0.029462303966283798,0.0,0.0,0.0,0.0,0.0,0.0,0.0,0.0,0.0
1606986773635963947,661267,1606983172037232038,imu_link,0.005724014714360237,0.015929613262414932,0.521689772605896,0.8529672622680664,0.0,0.0,0.0,0.0,0.0,0.0,0.0,0.0,0.0,62.91741180419922,1.2149080038070679,1.5122891664505005,0.0,0.0,0.0,0.0,0.0,0.0,0.0,0.0,0.0,-0.0007331137312576175,0.011937770992517471,0.05013803392648697,0.0,0.0,0.0,0.0,0.0,0.0,0.0,0.0,0.0
1606986773704384907,661268,1606983172037263935,imu_link,0.005724014714360237,0.015929613262414932,0.521689772605896,0.8529672622680664,0.0,0.0,0.0,0.0,0.0,0.0,0.0,0.0,0.0,62.91741180419922,1.2149080038070679,1.5122891664505005,0.0,0.0,0.0,0.0,0.0,0.0,0.0,0.0,0.0,-0.0007331137312576175,0.011937770992517471,0.05013803392648697,0.0,0.0,0.0,0.0,0.0,0.0,0.0,0.0,0.0
1606986773704400968,661269,1606983172037295384,imu_link,0.005726065021008253,0.015929089859128,0.5216888189315796,0.8529679775238037,0.0,0.0,0.0,0.0,0.0,0.0,0.0,0.0,0.0,62.917274475097656,1.2147362232208252,1.5124566555023193,0.0,0.0,0.0,0.0,0.0,0.0,0.0,0.0,0.0,-0.01304266881197691,0.0014854653272777796,0.049306489527225494,0.0,0.0,0.0,0.0,0.0,0.0,0.0,0.0,0.0
1606986773704406766,661270,1606983172037326779,imu_link,0.005726065021008253,0.015929089859128,0.5216888189315796,0.8529679775238037,0.0,0.0,0.0,0.0,0.0,0.0,0.0,0.0,0.0,62.917274475097656,1.2147362232208252,1.5124566555023193,0.0,0.0,0.0,0.0,0.0,0.0,0.0,0.0,0.0,-0.01304266881197691,0.0014854653272777796,0.049306489527225494,0.0,0.0,0.0,0.0,0.0,0.0,0.0,0.0,0.0
1606986773704414539,661271,1606983172050343850,imu_link,0.005726885981857777,0.015927577391266823,0.5216955542564392,0.8529638648033142,0.0,0.0,0.0,0.0,0.0,0.0,0.0,0.0,0.0,62.918174743652344,1.2145272493362427,1.5124560594558716,0.0,0.0,0.0,0.0,0.0,0.0,0.0,0.0,0.0,-0.02560371719300747,0.00696740485727787,0.059684768319129944,0.0,0.0,0.0,0.0,0.0,0.0,0.0,0.0,0.0
1606986773710785784,661272,1606983172050413746,imu_link,0.005726885981857777,0.015927577391266823,0.5216955542564392,0.8529638648033142,0.0,0.0,0.0,0.0,0.0,0.0,0.0,0.0,0.0,62.918174743652344,1.2145272493362427,1.5124560594558716,0.0,0.0,0.0,0.0,0.0,0.0,0.0,0.0,0.0,-0.02560371719300747,0.00696740485727787,0.059684768319129944,0.0,0.0,0.0,0.0,0.0,0.0,0.0,0.0,0.0
1606986773710827515,661273,1606983172050471927,imu_link,0.005728765856474638,0.01592753641307354,0.5216958522796631,0.8529636263847351,0.0,0.0,0.0,0.0,0.0,0.0,0.0,0.0,0.0,62.918216705322266,1.2144103050231934,1.512637972831726,0.0,0.0,0.0,0.0,0.0,0.0,0.0,0.0,0.0,-0.012327119708061218,0.01145260501652956,0.05373993515968323,0.0,0.0,0.0,0.0,0.0,0.0,0.0,0.0,0.0
1606986773710838773,661274,1606983172050522796,imu_link,0.005728765856474638,0.01592753641307354,0.5216958522796631,0.8529636263847351,0.0,0.0,0.0,0.0,0.0,0.0,0.0,0.0,0.0,62.918216705322266,1.2144103050231934,1.512637972831726,0.0,0.0,0.0,0.0,0.0,0.0,0.0,0.0,0.0,-0.012327119708061218,0.01145260501652956,0.05373993515968323,0.0,0.0,0.0,0.0,0.0,0.0,0.0,0.0,0.0
1606986773710856811,661275,1606983172050576220,imu_link,0.005725960247218609,0.015925120562314987,0.5216951966285706,0.8529641032218933,0.0,0.0,0.0,0.0,0.0,0.0,0.0,0.0,0.0,62.918121337890625,1.2143430709838867,1.5122179985046387,0.0,0.0,0.0,0.0,0.0,0.0,0.0,0.0,0.0,0.004380452912300825,0.011663508601486683,0.050855834037065506,0.0,0.0,0.0,0.0,0.0,0.0,0.0,0.0,0.0
1606986773710870622,661276,1606983172050624995,imu_link,0.005725960247218609,0.015925120562314987,0.5216951966285706,0.8529641032218933,0.0,0.0,0.0,0.0,0.0,0.0,0.0,0.0,0.0,62.918121337890625,1.2143430709838867,1.5122179985046387,0.0,0.0,0.0,0.0,0.0,0.0,0.0,0.0,0.0,0.004380452912300825,0.011663508601486683,0.050855834037065506,0.0,0.0,0.0,0.0,0.0,0.0,0.0,0.0,0.0
1606986773717924545,661277,1606983172050681661,imu_link,0.00572564173489809,0.015927307307720184,0.5216953754425049,0.8529639840126038,0.0,0.0,0.0,0.0,0.0,0.0,0.0,0.0,0.0,62.918148040771484,1.2145755290985107,1.5123178958892822,0.0,0.0,0.0,0.0,0.0,0.0,0.0,0.0,0.0,0.008130496367812157,0.02477530762553215,0.06382903456687927,0.0,0.0,0.0,0.0,0.0,0.0,0.0,0.0,0.0
1606986773717943008,661278,1606983172050732490,imu_link,0.00572564173489809,0.015927307307720184,0.5216953754425049,0.8529639840126038,0.0,0.0,0.0,0.0,0.0,0.0,0.0,0.0,0.0,62.918148040771484,1.2145755290985107,1.5123178958892822,0.0,0.0,0.0,0.0,0.0,0.0,0.0,0.0,0.0,0.008130496367812157,0.02477530762553215,0.06382903456687927,0.0,0.0,0.0,0.0,0.0,0.0,0.0,0.0,0.0
1606986773717957676,661279,1606983172050785630,imu_link,0.005723514594137669,0.01592748798429966,0.5216926336288452,0.8529656529426575,0.0,0.0,0.0,0.0,0.0,0.0,0.0,0.0,0.0,62.91777801513672,1.214725375175476,1.5121170282363892,0.0,0.0,0.0,0.0,0.0,0.0,0.0,0.0,0.0,0.008732127957046032,0.01413908414542675,0.04080532118678093,0.0,0.0,0.0,0.0,0.0,0.0,0.0,0.0,0.0
1606986773717975390,661280,1606983172050834371,imu_link,0.005723514594137669,0.01592748798429966,0.5216926336288452,0.8529656529426575,0.0,0.0,0.0,0.0,0.0,0.0,0.0,0.0,0.0,62.91777801513672,1.214725375175476,1.5121170282363892,0.0,0.0,0.0,0.0,0.0,0.0,0.0,0.0,0.0,0.008732127957046032,0.01413908414542675,0.04080532118678093,0.0,0.0,0.0,0.0,0.0,0.0,0.0,0.0,0.0
1606986773724411461,661281,1606983172050880744,imu_link,0.00572236767038703,0.015929149463772774,0.5216912627220154,0.8529664874076843,0.0,0.0,0.0,0.0,0.0,0.0,0.0,0.0,0.0,62.9176025390625,1.2149587869644165,1.5121023654937744,0.0,0.0,0.0,0.0,0.0,0.0,0.0,0.0,0.0,-0.004987009800970554,-0.019294576719403267,0.028425179421901703,0.0,0.0,0.0,0.0,0.0,0.0,0.0,0.0,0.0
1606986773724439041,661282,1606983172064343110,imu_link,0.00572236767038703,0.015929149463772774,0.5216912627220154,0.8529664874076843,0.0,0.0,0.0,0.0,0.0,0.0,0.0,0.0,0.0,62.9176025390625,1.2149587869644165,1.5121023654937744,0.0,0.0,0.0,0.0,0.0,0.0,0.0,0.0,0.0,-0.004987009800970554,-0.019294576719403267,0.028425179421901703,0.0,0.0,0.0,0.0,0.0,0.0,0.0,0.0,0.0
1606986773724447499,661283,1606983172064447592,imu_link,0.005724139977246523,0.015932396054267883,0.5216928124427795,0.8529654741287231,0.0,0.0,0.0,0.0,0.0,0.0,0.0,0.0,0.0,62.91781997680664,1.2151672840118408,1.512472152709961,0.0,0.0,0.0,0.0,0.0,0.0,0.0,0.0,0.0,-0.003263804130256176,-0.024214185774326324,0.028083154931664467,0.0,0.0,0.0,0.0,0.0,0.0,0.0,0.0,0.0
1606986773724454846,661284,1606983172064562564,imu_link,0.005724139977246523,0.015932396054267883,0.5216928124427795,0.8529654741287231,0.0,0.0,0.0,0.0,0.0,0.0,0.0,0.0,0.0,62.91781997680664,1.2151672840118408,1.512472152709961,0.0,0.0,0.0,0.0,0.0,0.0,0.0,0.0,0.0,-0.003263804130256176,-0.024214185774326324,0.028083154931664467,0.0,0.0,0.0,0.0,0.0,0.0,0.0,0.0,0.0
1606986773782381694,661285,1606983172064633877,imu_link,0.005723439622670412,0.01593230478465557,0.5216912627220154,0.8529663681983948,0.0,0.0,0.0,0.0,0.0,0.0,0.0,0.0,0.0,62.91761779785156,1.2152029275894165,1.512395977973938,0.0,0.0,0.0,0.0,0.0,0.0,0.0,0.0,0.0,-0.007551088463515043,-0.02076036110520363,0.025726284831762314,0.0,0.0,0.0,0.0,0.0,0.0,0.0,0.0,0.0
1606986773782402562,661286,1606983172064703978,imu_link,0.005723439622670412,0.01593230478465557,0.5216912627220154,0.8529663681983948,0.0,0.0,0.0,0.0,0.0,0.0,0.0,0.0,0.0,62.91761779785156,1.2152029275894165,1.512395977973938,0.0,0.0,0.0,0.0,0.0,0.0,0.0,0.0,0.0,-0.007551088463515043,-0.02076036110520363,0.025726284831762314,0.0,0.0,0.0,0.0,0.0,0.0,0.0,0.0,0.0
1606986773782427803,661287,1606983172064775948,imu_link,0.005726350471377373,0.01593305915594101,0.5216935276985168,0.8529649376869202,0.0,0.0,0.0,0.0,0.0,0.0,0.0,0.0,0.0,62.91792297363281,1.21509850025177,1.5127290487289429,0.0,0.0,0.0,0.0,0.0,0.0,0.0,0.0,0.0,-0.006318623200058937,-0.01811441406607628,0.028880290687084198,0.0,0.0,0.0,0.0,0.0,0.0,0.0,0.0,0.0
1606986773782436377,661288,1606983172064837134,imu_link,0.005726350471377373,0.01593305915594101,0.5216935276985168,0.8529649376869202,0.0,0.0,0.0,0.0,0.0,0.0,0.0,0.0,0.0,62.91792297363281,1.21509850025177,1.5127290487289429,0.0,0.0,0.0,0.0,0.0,0.0,0.0,0.0,0.0,-0.006318623200058937,-0.01811441406607628,0.028880290687084198,0.0,0.0,0.0,0.0,0.0,0.0,0.0,0.0,0.0
1606986773782460000,661289,1606983172064894904,imu_link,0.005726655013859272,0.015931563451886177,0.5216925740242004,0.8529655337333679,0.0,0.0,0.0,0.0,0.0,0.0,0.0,0.0,0.0,62.91778564453125,1.2149358987808228,1.5126678943634033,0.0,0.0,0.0,0.0,0.0,0.0,0.0,0.0,0.0,0.00614724587649107,-0.014735696837306023,0.017284255474805832,0.0,0.0,0.0,0.0,0.0,0.0,0.0,0.0,0.0
1606986773785699527,661290,1606983172064984048,imu_link,0.005726655013859272,0.015931563451886177,0.5216925740242004,0.8529655337333679,0.0,0.0,0.0,0.0,0.0,0.0,0.0,0.0,0.0,62.91778564453125,1.2149358987808228,1.5126678943634033,0.0,0.0,0.0,0.0,0.0,0.0,0.0,0.0,0.0,0.00614724587649107,-0.014735696837306023,0.017284255474805832,0.0,0.0,0.0,0.0,0.0,0.0,0.0,0.0,0.0
1606986773785722112,661291,1606983172065043236,imu_link,0.005725632421672344,0.015934638679027557,0.5216964483261108,0.8529632091522217,0.0,0.0,0.0,0.0,0.0,0.0,0.0,0.0,0.0,62.918312072753906,1.2152907848358154,1.512757420539856,0.0,0.0,0.0,0.0,0.0,0.0,0.0,0.0,0.0,0.007534019649028778,-0.008278402499854565,0.031676970422267914,0.0,0.0,0.0,0.0,0.0,0.0,0.0,0.0,0.0
1606986773785737109,661292,1606983172065135457,imu_link,0.005725632421672344,0.015934638679027557,0.5216964483261108,0.8529632091522217,0.0,0.0,0.0,0.0,0.0,0.0,0.0,0.0,0.0,62.918312072753906,1.2152907848358154,1.512757420539856,0.0,0.0,0.0,0.0,0.0,0.0,0.0,0.0,0.0,0.007534019649028778,-0.008278402499854565,0.031676970422267914,0.0,0.0,0.0,0.0,0.0,0.0,0.0,0.0,0.0
1606986773785749943,661293,1606983172077296314,imu_link,0.005725277122110128,0.01593349128961563,0.5216962099075317,0.852963387966156,0.0,0.0,0.0,0.0,0.0,0.0,0.0,0.0,0.0,62.918277740478516,1.2152005434036255,1.5126538276672363,0.0,0.0,0.0,0.0,0.0,0.0,0.0,0.0,0.0,-0.0005362790543586016,0.005546267144382,0.04075726866722107,0.0,0.0,0.0,0.0,0.0,0.0,0.0,0.0,0.0
1606986773799200392,661294,1606983172077395404,imu_link,0.005725277122110128,0.01593349128961563,0.5216962099075317,0.852963387966156,0.0,0.0,0.0,0.0,0.0,0.0,0.0,0.0,0.0,62.918277740478516,1.2152005434036255,1.5126538276672363,0.0,0.0,0.0,0.0,0.0,0.0,0.0,0.0,0.0,-0.0005362790543586016,0.005546267144382,0.04075726866722107,0.0,0.0,0.0,0.0,0.0,0.0,0.0,0.0,0.0
1606986773799258040,661295,1606983172077465061,imu_link,0.005723630078136921,0.01593206264078617,0.5217000246047974,0.8529610633850098,0.0,0.0,0.0,0.0,0.0,0.0,0.0,0.0,0.0,62.918785095214844,1.2151525020599365,1.5124127864837646,0.0,0.0,0.0,0.0,0.0,0.0,0.0,0.0,0.0,-0.005627937614917755,0.011797770857810974,0.01784624345600605,0.0,0.0,0.0,0.0,0.0,0.0,0.0,0.0,0.0
1606986773799296216,661296,1606983172077530801,imu_link,0.005723630078136921,0.01593206264078617,0.5217000246047974,0.8529610633850098,0.0,0.0,0.0,0.0,0.0,0.0,0.0,0.0,0.0,62.918785095214844,1.2151525020599365,1.5124127864837646,0.0,0.0,0.0,0.0,0.0,0.0,0.0,0.0,0.0,-0.005627937614917755,0.011797770857810974,0.01784624345600605,0.0,0.0,0.0,0.0,0.0,0.0,0.0,0.0,0.0
1606986773799310091,661297,1606983172077600271,imu_link,0.00572284497320652,0.015932731330394745,0.521699070930481,0.852961540222168,0.0,0.0,0.0,0.0,0.0,0.0,0.0,0.0,0.0,62.91866683959961,1.215266227722168,1.512374758720398,0.0,0.0,0.0,0.0,0.0,0.0,0.0,0.0,0.0,-0.012145320884883404,0.007176036946475506,0.04725145921111107,0.0,0.0,0.0,0.0,0.0,0.0,0.0,0.0,0.0
1606986773799326854,661298,1606983172077674202,imu_link,0.00572284497320652,0.015932731330394745,0.521699070930481,0.852961540222168,0.0,0.0,0.0,0.0,0.0,0.0,0.0,0.0,0.0,62.91866683959961,1.215266227722168,1.512374758720398,0.0,0.0,0.0,0.0,0.0,0.0,0.0,0.0,0.0,-0.012145320884883404,0.007176036946475506,0.04725145921111107,0.0,0.0,0.0,0.0,0.0,0.0,0.0,0.0,0.0
1606986773814264772,661299,1606983172077736430,imu_link,0.005721959751099348,0.015930797904729843,0.5216892957687378,0.8529676795005798,0.0,0.0,0.0,0.0,0.0,0.0,0.0,0.0,0.0,62.91734313964844,1.2151477336883545,1.5121582746505737,0.0,0.0,0.0,0.0,0.0,0.0,0.0,0.0,0.0,-0.0050047580152750015,-0.0018003385048359632,0.06135024130344391,0.0,0.0,0.0,0.0,0.0,0.0,0.0,0.0,0.0
1606986773814325904,661300,1606983172077794222,imu_link,0.005721959751099348,0.015930797904729843,0.5216892957687378,0.8529676795005798,0.0,0.0,0.0,0.0,0.0,0.0,0.0,0.0,0.0,62.91734313964844,1.2151477336883545,1.5121582746505737,0.0,0.0,0.0,0.0,0.0,0.0,0.0,0.0,0.0,-0.0050047580152750015,-0.0018003385048359632,0.06135024130344391,0.0,0.0,0.0,0.0,0.0,0.0,0.0,0.0,0.0
1606986773814384094,661301,1606983172077887876,imu_link,0.005722424015402794,0.01593007519841194,0.5216885805130005,0.8529680967330933,0.0,0.0,0.0,0.0,0.0,0.0,0.0,0.0,0.0,62.9172477722168,1.2150505781173706,1.5121595859527588,0.0,0.0,0.0,0.0,0.0,0.0,0.0,0.0,0.0,0.002109837019816041,-0.01019604317843914,0.03390536829829216,0.0,0.0,0.0,0.0,0.0,0.0,0.0,0.0,0.0
1606986773814408209,661302,1606983172077946702,imu_link,0.005722424015402794,0.01593007519841194,0.5216885805130005,0.8529680967330933,0.0,0.0,0.0,0.0,0.0,0.0,0.0,0.0,0.0,62.9172477722168,1.2150505781173706,1.5121595859527588,0.0,0.0,0.0,0.0,0.0,0.0,0.0,0.0,0.0,0.002109837019816041,-0.01019604317843914,0.03390536829829216,0.0,0.0,0.0,0.0,0.0,0.0,0.0,0.0,0.0
1606986773888323796,661303,1606983172090546761,imu_link,0.005723062437027693,0.01592990569770336,0.5216767191886902,0.8529753088951111,0.0,0.0,0.0,0.0,0.0,0.0,0.0,0.0,0.0,62.91565704345703,1.2150168418884277,1.5121949911117554,0.0,0.0,0.0,0.0,0.0,0.0,0.0,0.0,0.0,-0.02202465571463108,-0.007528339046984911,0.031866755336523056,0.0,0.0,0.0,0.0,0.0,0.0,0.0,0.0,0.0
1606986773888341356,661304,1606983172090629355,imu_link,0.005723062437027693,0.01592990569770336,0.5216767191886902,0.8529753088951111,0.0,0.0,0.0,0.0,0.0,0.0,0.0,0.0,0.0,62.91565704345703,1.2150168418884277,1.5121949911117554,0.0,0.0,0.0,0.0,0.0,0.0,0.0,0.0,0.0,-0.02202465571463108,-0.007528339046984911,0.031866755336523056,0.0,0.0,0.0,0.0,0.0,0.0,0.0,0.0,0.0
1606986773888361385,661305,1606983172090696591,imu_link,0.005722115281969309,0.015931326895952225,0.5216739177703857,0.8529770374298096,0.0,0.0,0.0,0.0,0.0,0.0,0.0,0.0,0.0,62.915279388427734,1.2152173519134521,1.512183427810669,0.0,0.0,0.0,0.0,0.0,0.0,0.0,0.0,0.0,-0.03412202000617981,0.003722936613485217,0.024175379425287247,0.0,0.0,0.0,0.0,0.0,0.0,0.0,0.0,0.0
1606986773888369808,661306,1606983172090758290,imu_link,0.005722115281969309,0.015931326895952225,0.5216739177703857,0.8529770374298096,0.0,0.0,0.0,0.0,0.0,0.0,0.0,0.0,0.0,62.915279388427734,1.2152173519134521,1.512183427810669,0.0,0.0,0.0,0.0,0.0,0.0,0.0,0.0,0.0,-0.03412202000617981,0.003722936613485217,0.024175379425287247,0.0,0.0,0.0,0.0,0.0,0.0,0.0,0.0,0.0
1606986773888377946,661307,1606983172090847388,imu_link,0.005723867565393448,0.015929440036416054,0.5216754078865051,0.8529761433601379,0.0,0.0,0.0,0.0,0.0,0.0,0.0,0.0,0.0,62.915470123291016,1.2149255275726318,1.5122437477111816,0.0,0.0,0.0,0.0,0.0,0.0,0.0,0.0,0.0,-0.008663342334330082,0.007679213769733906,0.017028968781232834,0.0,0.0,0.0,0.0,0.0,0.0,0.0,0.0,0.0
1606986773891988557,661308,1606983172090906633,imu_link,0.005723867565393448,0.015929440036416054,0.5216754078865051,0.8529761433601379,0.0,0.0,0.0,0.0,0.0,0.0,0.0,0.0,0.0,62.915470123291016,1.2149255275726318,1.5122437477111816,0.0,0.0,0.0,0.0,0.0,0.0,0.0,0.0,0.0,-0.008663342334330082,0.007679213769733906,0.017028968781232834,0.0,0.0,0.0,0.0,0.0,0.0,0.0,0.0,0.0
1606986773892004759,661309,1606983172091037285,imu_link,0.0057266587391495705,0.015930531546473503,0.5216755867004395,0.8529760241508484,0.0,0.0,0.0,0.0,0.0,0.0,0.0,0.0,0.0,62.915496826171875,1.21486496925354,1.5125821828842163,0.0,0.0,0.0,0.0,0.0,0.0,0.0,0.0,0.0,0.015606922097504139,0.002554044360294938,0.0036644884385168552,0.0,0.0,0.0,0.0,0.0,0.0,0.0,0.0,0.0
1606986773892010037,661310,1606983172091100187,imu_link,0.0057266587391495705,0.015930531546473503,0.5216755867004395,0.8529760241508484,0.0,0.0,0.0,0.0,0.0,0.0,0.0,0.0,0.0,62.915496826171875,1.21486496925354,1.5125821828842163,0.0,0.0,0.0,0.0,0.0,0.0,0.0,0.0,0.0,0.015606922097504139,0.002554044360294938,0.0036644884385168552,0.0,0.0,0.0,0.0,0.0,0.0,0.0,0.0,0.0
1606986773892046564,661311,1606983172091166019,imu_link,0.005722406320273876,0.015932349488139153,0.5216768383979797,0.8529752492904663,0.0,0.0,0.0,0.0,0.0,0.0,0.0,0.0,0.0,62.91566848754883,1.2152948379516602,1.5122770071029663,0.0,0.0,0.0,0.0,0.0,0.0,0.0,0.0,0.0,0.007104959804564714,-0.009636703878641129,0.010674520395696163,0.0,0.0,0.0,0.0,0.0,0.0,0.0,0.0,0.0
1606986773901577722,661312,1606983172091224635,imu_link,0.005722406320273876,0.015932349488139153,0.5216768383979797,0.8529752492904663,0.0,0.0,0.0,0.0,0.0,0.0,0.0,0.0,0.0,62.91566848754883,1.2152948379516602,1.5122770071029663,0.0,0.0,0.0,0.0,0.0,0.0,0.0,0.0,0.0,0.007104959804564714,-0.009636703878641129,0.010674520395696163,0.0,0.0,0.0,0.0,0.0,0.0,0.0,0.0,0.0
1606986773901617175,661313,1606983172091290344,imu_link,0.005722335539758205,0.015931569039821625,0.521677553653717,0.8529748320579529,0.0,0.0,0.0,0.0,0.0,0.0,0.0,0.0,0.0,62.91576385498047,1.2152215242385864,1.512224555015564,0.0,0.0,0.0,0.0,0.0,0.0,0.0,0.0,0.0,-0.007728483062237501,-0.01989108696579933,0.04607785493135452,0.0,0.0,0.0,0.0,0.0,0.0,0.0,0.0,0.0
1606986773901643199,661314,1606983172104365316,imu_link,0.005722335539758205,0.015931569039821625,0.521677553653717,0.8529748320579529,0.0,0.0,0.0,0.0,0.0,0.0,0.0,0.0,0.0,62.91576385498047,1.2152215242385864,1.512224555015564,0.0,0.0,0.0,0.0,0.0,0.0,0.0,0.0,0.0,-0.007728483062237501,-0.01989108696579933,0.04607785493135452,0.0,0.0,0.0,0.0,0.0,0.0,0.0,0.0,0.0
1606986773901657388,661315,1606983172104447400,imu_link,0.005726914387196302,0.01593247428536415,0.5216755867004395,0.8529759645462036,0.0,0.0,0.0,0.0,0.0,0.0,0.0,0.0,0.0,62.91551208496094,1.2150394916534424,1.5127238035202026,0.0,0.0,0.0,0.0,0.0,0.0,0.0,0.0,0.0,-0.016047758981585503,-0.01218519825488329,0.041409775614738464,0.0,0.0,0.0,0.0,0.0,0.0,0.0,0.0,0.0
1606986773901664417,661316,1606983172104516531,imu_link,0.005726914387196302,0.01593247428536415,0.5216755867004395,0.8529759645462036,0.0,0.0,0.0,0.0,0.0,0.0,0.0,0.0,0.0,62.91551208496094,1.2150394916534424,1.5127238035202026,0.0,0.0,0.0,0.0,0.0,0.0,0.0,0.0,0.0,-0.016047758981585503,-0.01218519825488329,0.041409775614738464,0.0,0.0,0.0,0.0,0.0,0.0,0.0,0.0,0.0
1606986773921967726,661317,1606983172104575019,imu_link,0.0057271914556622505,0.015931840986013412,0.521675705909729,0.8529759049415588,0.0,0.0,0.0,0.0,0.0,0.0,0.0,0.0,0.0,62.91551971435547,1.2149608135223389,1.512712836265564,0.0,0.0,0.0,0.0,0.0,0.0,0.0,0.0,0.0,-0.001255878247320652,-0.002302219159901142,0.007999992929399014,0.0,0.0,0.0,0.0,0.0,0.0,0.0,0.0,0.0
