%time,field.header.seq,field.header.stamp,field.header.frame_id,field.orientation.x,field.orientation.y,field.orientation.z,field.orientation.w,field.orientation_covariance0,field.orientation_covariance1,field.orientation_covariance2,field.orientation_covariance3,field.orientation_covariance4,field.orientation_covariance5,field.orientation_covariance6,field.orientation_covariance7,field.orientation_covariance8,field.angular_velocity.x,field.angular_velocity.y,field.angular_velocity.z,field.angular_velocity_covariance0,field.angular_velocity_covariance1,field.angular_velocity_covariance2,field.angular_velocity_covariance3,field.angular_velocity_covariance4,field.angular_velocity_covariance5,field.angular_velocity_covariance6,field.angular_velocity_covariance7,field.angular_velocity_covariance8,field.linear_acceleration.x,field.linear_acceleration.y,field.linear_acceleration.z,field.linear_acceleration_covariance0,field.linear_acceleration_covariance1,field.linear_acceleration_covariance2,field.linear_acceleration_covariance3,field.linear_acceleration_covariance4,field.linear_acceleration_covariance5,field.linear_acceleration_covariance6,field.linear_acceleration_covariance7,field.linear_acceleration_covariance8
1606987948484090594,1601828,1606984347761399050,imu_link,-0.0008992401999421418,-0.0012324908748269081,0.25147590041160583,-0.9678623676300049,0.0,0.0,0.0,0.0,0.0,0.0,0.0,0.0,0.0,-29.12967300415039,0.16260777413845062,0.06421726197004318,0.0,0.0,0.0,0.0,0.0,0.0,0.0,0.0,0.0,-0.029891807585954666,-0.0035233444068580866,0.03277144208550453,0.0,0.0,0.0,0.0,0.0,0.0,0.0,0.0,0.0
1606987948484121171,1601829,1606984347761513792,imu_link,-0.0009002092992886901,-0.0012325996067374945,0.25147566199302673,-0.9678624272346497,0.0,0.0,0.0,0.0,0.0,0.0,0.0,0.0,0.0,-29.1296443939209,0.16264775395393372,0.06432165205478668,0.0,0.0,0.0,0.0,0.0,0.0,0.0,0.0,0.0,-0.0273421760648489,-0.0019988196436315775,0.02025705762207508,0.0,0.0,0.0,0.0,0.0,0.0,0.0,0.0,0.0
1606987948484135879,1601830,1606984347761657083,imu_link,-0.0009002092992886901,-0.0012325996067374945,0.25147566199302673,-0.9678624272346497,0.0,0.0,0.0,0.0,0.0,0.0,0.0,0.0,0.0,-29.1296443939209,0.16264775395393372,0.06432165205478668,0.0,0.0,0.0,0.0,0.0,0.0,0.0,0.0,0.0,-0.0273421760648489,-0.0019988196436315775,0.02025705762207508,0.0,0.0,0.0,0.0,0.0,0.0,0.0,0.0,0.0
1606987948484181225,1601831,1606984347761725562,imu_link,-0.0009009393397718668,-0.0012259545037522912,0.25147610902786255,-0.9678623080253601,0.0,0.0,0.0,0.0,0.0,0.0,0.0,0.0,0.0,-29.129695892333984,0.1619318127632141,0.06459403783082962,0.0,0.0,0.0,0.0,0.0,0.0,0.0,0.0,0.0,-0.007053932640701532,-0.0012967233778908849,0.048234809190034866,0.0,0.0,0.0,0.0,0.0,0.0,0.0,0.0,0.0
1606987948488654661,1601832,1606984347761826592,imu_link,-0.0009009393397718668,-0.0012259545037522912,0.25147610902786255,-0.9678623080253601,0.0,0.0,0.0,0.0,0.0,0.0,0.0,0.0,0.0,-29.129695892333984,0.1619318127632141,0.06459403783082962,0.0,0.0,0.0,0.0,0.0,0.0,0.0,0.0,0.0,-0.007053932640701532,-0.0012967233778908849,0.048234809190034866,0.0,0.0,0.0,0.0,0.0,0.0,0.0,0.0,0.0
1606987948488695035,1601833,1606984347761893543,imu_link,-0.0008989182533696294,-0.0012267848942428827,0.25147637724876404,-0.9678622484207153,0.0,0.0,0.0,0.0,0.0,0.0,0.0,0.0,0.0,-29.129730224609375,0.16196568310260773,0.06434590369462967,0.0,0.0,0.0,0.0,0.0,0.0,0.0,0.0,0.0,0.0020400024950504303,0.0006418118136934936,0.0646883100271225,0.0,0.0,0.0,0.0,0.0,0.0,0.0,0.0,0.0
1606987948488712913,1601834,1606984347761972545,imu_link,-0.0008989182533696294,-0.0012267848942428827,0.25147637724876404,-0.9678622484207153,0.0,0.0,0.0,0.0,0.0,0.0,0.0,0.0,0.0,-29.129730224609375,0.16196568310260773,0.06434590369462967,0.0,0.0,0.0,0.0,0.0,0.0,0.0,0.0,0.0,0.0020400024950504303,0.0006418118136934936,0.0646883100271225,0.0,0.0,0.0,0.0,0.0,0.0,0.0,0.0,0.0
1606987948488753737,1601835,1606984347762039689,imu_link,-0.0009010689100250602,-0.0012269876897335052,0.25147467851638794,-0.9678627252578735,0.0,0.0,0.0,0.0,0.0,0.0,0.0,0.0,0.0,-29.129526138305664,0.1620500385761261,0.06457887589931488,0.0,0.0,0.0,0.0,0.0,0.0,0.0,0.0,0.0,0.01791362278163433,0.0022096780594438314,0.05248811095952988,0.0,0.0,0.0,0.0,0.0,0.0,0.0,0.0,0.0
1606987948495519071,1601836,1606984347762133999,imu_link,-0.0009010689100250602,-0.0012269876897335052,0.25147467851638794,-0.9678627252578735,0.0,0.0,0.0,0.0,0.0,0.0,0.0,0.0,0.0,-29.129526138305664,0.1620500385761261,0.06457887589931488,0.0,0.0,0.0,0.0,0.0,0.0,0.0,0.0,0.0,0.01791362278163433,0.0022096780594438314,0.05248811095952988,0.0,0.0,0.0,0.0,0.0,0.0,0.0,0.0,0.0
1606987948495551457,1601837,1606984347762201094,imu_link,-0.0009002742590382695,-0.001225248328410089,0.2514764964580536,-0.9678622484207153,0.0,0.0,0.0,0.0,0.0,0.0,0.0,0.0,0.0,-29.129743576049805,0.16183434426784515,0.0645405575633049,0.0,0.0,0.0,0.0,0.0,0.0,0.0,0.0,0.0,0.04153260216116905,0.0006181232165545225,0.02728215605020523,0.0,0.0,0.0,0.0,0.0,0.0,0.0,0.0,0.0
1606987948495562794,1601838,1606984347762266822,imu_link,-0.0009002742590382695,-0.001225248328410089,0.2514764964580536,-0.9678622484207153,0.0,0.0,0.0,0.0,0.0,0.0,0.0,0.0,0.0,-29.129743576049805,0.16183434426784515,0.0645405575633049,0.0,0.0,0.0,0.0,0.0,0.0,0.0,0.0,0.0,0.04153260216116905,0.0006181232165545225,0.02728215605020523,0.0,0.0,0.0,0.0,0.0,0.0,0.0,0.0,0.0
1606987948495578479,1601839,1606984347775053921,imu_link,-0.0009014101233333349,-0.0012295289197936654,0.2514766454696655,-0.9678622484207153,0.0,0.0,0.0,0.0,0.0,0.0,0.0,0.0,0.0,-29.1297607421875,0.1623418629169464,0.06454315036535263,0.0,0.0,0.0,0.0,0.0,0.0,0.0,0.0,0.0,0.028287872672080994,8.006932330317795e-05,0.03736318275332451,0.0,0.0,0.0,0.0,0.0,0.0,0.0,0.0,0.0
1606987948495616735,1601840,1606984347775167184,imu_link,-0.0009014101233333349,-0.0012295289197936654,0.2514766454696655,-0.9678622484207153,0.0,0.0,0.0,0.0,0.0,0.0,0.0,0.0,0.0,-29.1297607421875,0.1623418629169464,0.06454315036535263,0.0,0.0,0.0,0.0,0.0,0.0,0.0,0.0,0.0,0.028287872672080994,8.006932330317795e-05,0.03736318275332451,0.0,0.0,0.0,0.0,0.0,0.0,0.0,0.0,0.0
1606987948499897135,1601841,1606984347775328116,imu_link,-0.000901397957932204,-0.0012279704678803682,0.2514772117137909,-0.967862069606781,0.0,0.0,0.0,0.0,0.0,0.0,0.0,0.0,0.0,-29.129825592041016,0.1621686965227127,0.06458661705255508,0.0,0.0,0.0,0.0,0.0,0.0,0.0,0.0,0.0,0.009490158408880234,0.0049179475754499435,0.07737515866756439,0.0,0.0,0.0,0.0,0.0,0.0,0.0,0.0,0.0
1606987948499939250,1601842,1606984347775403599,imu_link,-0.000901397957932204,-0.0012279704678803682,0.2514772117137909,-0.967862069606781,0.0,0.0,0.0,0.0,0.0,0.0,0.0,0.0,0.0,-29.129825592041016,0.1621686965227127,0.06458661705255508,0.0,0.0,0.0,0.0,0.0,0.0,0.0,0.0,0.0,0.009490158408880234,0.0049179475754499435,0.07737515866756439,0.0,0.0,0.0,0.0,0.0,0.0,0.0,0.0,0.0
1606987948499949430,1601843,1606984347775481379,imu_link,-0.0008996370015665889,-0.0012304317206144333,0.2514714300632477,-0.9678635597229004,0.0,0.0,0.0,0.0,0.0,0.0,0.0,0.0,0.0,-29.12914276123047,0.1623905450105667,0.0643213614821434,0.0,0.0,0.0,0.0,0.0,0.0,0.0,0.0,0.0,0.00030740690999664366,-0.0046787685714662075,0.055928897112607956,0.0,0.0,0.0,0.0,0.0,0.0,0.0,0.0,0.0
1606987948499965765,1601844,1606984347775569399,imu_link,-0.0008996370015665889,-0.0012304317206144333,0.2514714300632477,-0.9678635597229004,0.0,0.0,0.0,0.0,0.0,0.0,0.0,0.0,0.0,-29.12914276123047,0.1623905450105667,0.0643213614821434,0.0,0.0,0.0,0.0,0.0,0.0,0.0,0.0,0.0,0.00030740690999664366,-0.0046787685714662075,0.055928897112607956,0.0,0.0,0.0,0.0,0.0,0.0,0.0,0.0,0.0
1606987948551338280,1601845,1606984347775635676,imu_link,-0.0009006383479572833,-0.0012302538380026817,0.2514720857143402,-0.9678633809089661,0.0,0.0,0.0,0.0,0.0,0.0,0.0,0.0,0.0,-29.129220962524414,0.16239972412586212,0.06443742662668228,0.0,0.0,0.0,0.0,0.0,0.0,0.0,0.0,0.0,-0.012160898186266422,-0.010938714258372784,0.03888697549700737,0.0,0.0,0.0,0.0,0.0,0.0,0.0,0.0,0.0
1606987948551367265,1601846,1606984347775700875,imu_link,-0.0009006383479572833,-0.0012302538380026817,0.2514720857143402,-0.9678633809089661,0.0,0.0,0.0,0.0,0.0,0.0,0.0,0.0,0.0,-29.129220962524414,0.16239972412586212,0.06443742662668228,0.0,0.0,0.0,0.0,0.0,0.0,0.0,0.0,0.0,-0.012160898186266422,-0.010938714258372784,0.03888697549700737,0.0,0.0,0.0,0.0,0.0,0.0,0.0,0.0,0.0
1606987948551381006,1601847,1606984347775762445,imu_link,-0.000902182306163013,-0.0012293937616050243,0.2514660060405731,-0.9678649306297302,0.0,0.0,0.0,0.0,0.0,0.0,0.0,0.0,0.0,-29.128501892089844,0.1623484045267105,0.06463448703289032,0.0,0.0,0.0,0.0,0.0,0.0,0.0,0.0,0.0,-0.0027076327241957188,-0.007528106682002544,0.0412941537797451,0.0,0.0,0.0,0.0,0.0,0.0,0.0,0.0,0.0
1606987948551391791,1601848,1606984347775825756,imu_link,-0.000902182306163013,-0.0012293937616050243,0.2514660060405731,-0.9678649306297302,0.0,0.0,0.0,0.0,0.0,0.0,0.0,0.0,0.0,-29.128501892089844,0.1623484045267105,0.06463448703289032,0.0,0.0,0.0,0.0,0.0,0.0,0.0,0.0,0.0,-0.0027076327241957188,-0.007528106682002544,0.0412941537797451,0.0,0.0,0.0,0.0,0.0,0.0,0.0,0.0,0.0
1606987948551457002,1601849,1606984347775890798,imu_link,-0.0009011320071294904,-0.0012290262384340167,0.2514636218547821,-0.9678655862808228,0.0,0.0,0.0,0.0,0.0,0.0,0.0,0.0,0.0,-29.12822151184082,0.1622772216796875,0.06452897936105728,0.0,0.0,0.0,0.0,0.0,0.0,0.0,0.0,0.0,0.017517535015940666,0.010167816653847694,0.009209692478179932,0.0,0.0,0.0,0.0,0.0,0.0,0.0,0.0,0.0
1606987948581225593,1601850,1606984347787815578,imu_link,-0.0009011320071294904,-0.0012290262384340167,0.2514636218547821,-0.9678655862808228,0.0,0.0,0.0,0.0,0.0,0.0,0.0,0.0,0.0,-29.12822151184082,0.1622772216796875,0.06452897936105728,0.0,0.0,0.0,0.0,0.0,0.0,0.0,0.0,0.0,0.017517535015940666,0.010167816653847694,0.009209692478179932,0.0,0.0,0.0,0.0,0.0,0.0,0.0,0.0,0.0
1606987948581248690,1601851,1606984347787938009,imu_link,-0.0009007175103761256,-0.0012310289312154055,0.25146377086639404,-0.967865526676178,0.0,0.0,0.0,0.0,0.0,0.0,0.0,0.0,0.0,-29.12823486328125,0.16248738765716553,0.0644252672791481,0.0,0.0,0.0,0.0,0.0,0.0,0.0,0.0,0.0,0.01000833511352539,0.028317542746663094,0.023909084498882294,0.0,0.0,0.0,0.0,0.0,0.0,0.0,0.0,0.0
1606987948581272979,1601852,1606984347788049287,imu_link,-0.0009007175103761256,-0.0012310289312154055,0.25146377086639404,-0.967865526676178,0.0,0.0,0.0,0.0,0.0,0.0,0.0,0.0,0.0,-29.12823486328125,0.16248738765716553,0.0644252672791481,0.0,0.0,0.0,0.0,0.0,0.0,0.0,0.0,0.0,0.01000833511352539,0.028317542746663094,0.023909084498882294,0.0,0.0,0.0,0.0,0.0,0.0,0.0,0.0,0.0
1606987948581282390,1601853,1606984347788120780,imu_link,-0.0009007498156279325,-0.00123141601216048,0.2514645457267761,-0.9678653478622437,0.0,0.0,0.0,0.0,0.0,0.0,0.0,0.0,0.0,-29.128326416015625,0.162531316280365,0.06441757082939148,0.0,0.0,0.0,0.0,0.0,0.0,0.0,0.0,0.0,-0.0013875681906938553,0.003076442051678896,0.03994316607713699,0.0,0.0,0.0,0.0,0.0,0.0,0.0,0.0,0.0
1606987948591591962,1601854,1606984347788182812,imu_link,-0.0009007498156279325,-0.00123141601216048,0.2514645457267761,-0.9678653478622437,0.0,0.0,0.0,0.0,0.0,0.0,0.0,0.0,0.0,-29.128326416015625,0.162531316280365,0.06441757082939148,0.0,0.0,0.0,0.0,0.0,0.0,0.0,0.0,0.0,-0.0013875681906938553,0.003076442051678896,0.03994316607713699,0.0,0.0,0.0,0.0,0.0,0.0,0.0,0.0,0.0
1606987948591618124,1601855,1606984347788262380,imu_link,-0.0009000387508422136,-0.0012311061145737767,0.2514645755290985,-0.9678653478622437,0.0,0.0,0.0,0.0,0.0,0.0,0.0,0.0,0.0,-29.12833023071289,0.16247645020484924,0.06434763222932816,0.0,0.0,0.0,0.0,0.0,0.0,0.0,0.0,0.0,-0.005649487022310495,0.0016255282098427415,0.023993881419301033,0.0,0.0,0.0,0.0,0.0,0.0,0.0,0.0,0.0
1606987948591641066,1601856,1606984347788330894,imu_link,-0.0009000387508422136,-0.0012311061145737767,0.2514645755290985,-0.9678653478622437,0.0,0.0,0.0,0.0,0.0,0.0,0.0,0.0,0.0,-29.12833023071289,0.16247645020484924,0.06434763222932816,0.0,0.0,0.0,0.0,0.0,0.0,0.0,0.0,0.0,-0.005649487022310495,0.0016255282098427415,0.023993881419301033,0.0,0.0,0.0,0.0,0.0,0.0,0.0,0.0,0.0
1606987948591701395,1601857,1606984347788395821,imu_link,-0.0009002693113870919,-0.001231340691447258,0.2514635920524597,-0.9678655862808228,0.0,0.0,0.0,0.0,0.0,0.0,0.0,0.0,0.0,-29.128217697143555,0.16250905394554138,0.06436661630868912,0.0,0.0,0.0,0.0,0.0,0.0,0.0,0.0,0.0,-0.00135990499984473,0.00328628346323967,0.018854308873414993,0.0,0.0,0.0,0.0,0.0,0.0,0.0,0.0,0.0
1606987948591721486,1601858,1606984347788457243,imu_link,-0.0009002693113870919,-0.001231340691447258,0.2514635920524597,-0.9678655862808228,0.0,0.0,0.0,0.0,0.0,0.0,0.0,0.0,0.0,-29.128217697143555,0.16250905394554138,0.06436661630868912,0.0,0.0,0.0,0.0,0.0,0.0,0.0,0.0,0.0,-0.00135990499984473,0.00328628346323967,0.018854308873414993,0.0,0.0,0.0,0.0,0.0,0.0,0.0,0.0,0.0
1606987948595524161,1601859,1606984347788520357,imu_link,-0.0009010671637952328,-0.001232639653608203,0.25146394968032837,-0.9678654670715332,0.0,0.0,0.0,0.0,0.0,0.0,0.0,0.0,0.0,-29.128259658813477,0.1626761257648468,0.06441760808229446,0.0,0.0,0.0,0.0,0.0,0.0,0.0,0.0,0.0,0.0018733650213107467,-0.0029786790255457163,0.029461128637194633,0.0,0.0,0.0,0.0,0.0,0.0,0.0,0.0,0.0
1606987948595554706,1601860,1606984347801605335,imu_link,-0.0009010671637952328,-0.001232639653608203,0.25146394968032837,-0.9678654670715332,0.0,0.0,0.0,0.0,0.0,0.0,0.0,0.0,0.0,-29.128259658813477,0.1626761257648468,0.06441760808229446,0.0,0.0,0.0,0.0,0.0,0.0,0.0,0.0,0.0,0.0018733650213107467,-0.0029786790255457163,0.029461128637194633,0.0,0.0,0.0,0.0,0.0,0.0,0.0,0.0,0.0
1606987948595567968,1601861,1606984347801720285,imu_link,-0.0008980819256976247,-0.0012299844529479742,0.251463919878006,-0.967865526676178,0.0,0.0,0.0,0.0,0.0,0.0,0.0,0.0,0.0,-29.128252029418945,0.1622956395149231,0.06416303664445877,0.0,0.0,0.0,0.0,0.0,0.0,0.0,0.0,0.0,-0.013163983821868896,-0.007113670464605093,0.03592150658369064,0.0,0.0,0.0,0.0,0.0,0.0,0.0,0.0,0.0
1606987948595576239,1601862,1606984347801881595,imu_link,-0.0008980819256976247,-0.0012299844529479742,0.251463919878006,-0.967865526676178,0.0,0.0,0.0,0.0,0.0,0.0,0.0,0.0,0.0,-29.128252029418945,0.1622956395149231,0.06416303664445877,0.0,0.0,0.0,0.0,0.0,0.0,0.0,0.0,0.0,-0.013163983821868896,-0.007113670464605093,0.03592150658369064,0.0,0.0,0.0,0.0,0.0,0.0,0.0,0.0,0.0
1606987948664791822,1601863,1606984347801953409,imu_link,-0.0008991523645818233,-0.0012282440438866615,0.251463383436203,-0.9678656458854675,0.0,0.0,0.0,0.0,0.0,0.0,0.0,0.0,0.0,-29.128190994262695,0.16213341057300568,0.06433199346065521,0.0,0.0,0.0,0.0,0.0,0.0,0.0,0.0,0.0,-0.001046628225594759,-0.022986821830272675,0.04288021847605705,0.0,0.0,0.0,0.0,0.0,0.0,0.0,0.0,0.0
1606987948664817857,1601864,1606984347802082331,imu_link,-0.0008991523645818233,-0.0012282440438866615,0.251463383436203,-0.9678656458854675,0.0,0.0,0.0,0.0,0.0,0.0,0.0,0.0,0.0,-29.128190994262695,0.16213341057300568,0.06433199346065521,0.0,0.0,0.0,0.0,0.0,0.0,0.0,0.0,0.0,-0.001046628225594759,-0.022986821830272675,0.04288021847605705,0.0,0.0,0.0,0.0,0.0,0.0,0.0,0.0,0.0
1606987948664824919,1601865,1606984347802150878,imu_link,-0.0008991922368295491,-0.0012267229612916708,0.2514614462852478,-0.9678661823272705,0.0,0.0,0.0,0.0,0.0,0.0,0.0,0.0,0.0,-29.127958297729492,0.1619657278060913,0.06438057124614716,0.0,0.0,0.0,0.0,0.0,0.0,0.0,0.0,0.0,0.017104756087064743,-0.013529406860470772,0.04255853220820427,0.0,0.0,0.0,0.0,0.0,0.0,0.0,0.0,0.0
1606987948664833832,1601866,1606984347802234720,imu_link,-0.0008991922368295491,-0.0012267229612916708,0.2514614462852478,-0.9678661823272705,0.0,0.0,0.0,0.0,0.0,0.0,0.0,0.0,0.0,-29.127958297729492,0.1619657278060913,0.06438057124614716,0.0,0.0,0.0,0.0,0.0,0.0,0.0,0.0,0.0,0.017104756087064743,-0.013529406860470772,0.04255853220820427,0.0,0.0,0.0,0.0,0.0,0.0,0.0,0.0,0.0
1606987948664846540,1601867,1606984347802300845,imu_link,-0.0009036769042722881,-0.0012287625577300787,0.2514593303203583,-0.9678667187690735,0.0,0.0,0.0,0.0,0.0,0.0,0.0,0.0,0.0,-29.127708435058594,0.1623210310935974,0.06481954455375671,0.0,0.0,0.0,0.0,0.0,0.0,0.0,0.0,0.0,-0.0019037446472793818,-0.010407757945358753,0.04636566713452339,0.0,0.0,0.0,0.0,0.0,0.0,0.0,0.0,0.0
1606987948668207449,1601868,1606984347802366810,imu_link,-0.0009036769042722881,-0.0012287625577300787,0.2514593303203583,-0.9678667187690735,0.0,0.0,0.0,0.0,0.0,0.0,0.0,0.0,0.0,-29.127708435058594,0.1623210310935974,0.06481954455375671,0.0,0.0,0.0,0.0,0.0,0.0,0.0,0.0,0.0,-0.0019037446472793818,-0.010407757945358753,0.04636566713452339,0.0,0.0,0.0,0.0,0.0,0.0,0.0,0.0,0.0
1606987948668224021,1601869,1606984347802431287,imu_link,-0.0009025348117575049,-0.0012260049115866423,0.25146299600601196,-0.9678657650947571,0.0,0.0,0.0,0.0,0.0,0.0,0.0,0.0,0.0,-29.128143310546875,0.16198252141475677,0.06477173417806625,0.0,0.0,0.0,0.0,0.0,0.0,0.0,0.0,0.0,-0.01611894927918911,-0.005033405963331461,0.05369133874773979,0.0,0.0,0.0,0.0,0.0,0.0,0.0,0.0,0.0
1606987948668231492,1601870,1606984347802497372,imu_link,-0.0009025348117575049,-0.0012260049115866423,0.25146299600601196,-0.9678657650947571,0.0,0.0,0.0,0.0,0.0,0.0,0.0,0.0,0.0,-29.128143310546875,0.16198252141475677,0.06477173417806625,0.0,0.0,0.0,0.0,0.0,0.0,0.0,0.0,0.0,-0.01611894927918911,-0.005033405963331461,0.05369133874773979,0.0,0.0,0.0,0.0,0.0,0.0,0.0,0.0,0.0
1606987948668248675,1601871,1606984347815097695,imu_link,-0.0009014278766699135,-0.0012236321344971657,0.2514612078666687,-0.9678662419319153,0.0,0.0,0.0,0.0,0.0,0.0,0.0,0.0,0.0,-29.127931594848633,0.16168734431266785,0.0647176206111908,0.0,0.0,0.0,0.0,0.0,0.0,0.0,0.0,0.0,-0.01398977916687727,0.009523291140794754,0.033377163112163544,0.0,0.0,0.0,0.0,0.0,0.0,0.0,0.0,0.0
1606987948683241067,1601872,1606984347815211743,imu_link,-0.0009014278766699135,-0.0012236321344971657,0.2514612078666687,-0.9678662419319153,0.0,0.0,0.0,0.0,0.0,0.0,0.0,0.0,0.0,-29.127931594848633,0.16168734431266785,0.0647176206111908,0.0,0.0,0.0,0.0,0.0,0.0,0.0,0.0,0.0,-0.01398977916687727,0.009523291140794754,0.033377163112163544,0.0,0.0,0.0,0.0,0.0,0.0,0.0,0.0,0.0
1606987948683273131,1601873,1606984347815336877,imu_link,-0.0009008252527564764,-0.0012227259576320648,0.25145986676216125,-0.9678665995597839,0.0,0.0,0.0,0.0,0.0,0.0,0.0,0.0,0.0,-29.12777328491211,0.16156938672065735,0.06467714160680771,0.0,0.0,0.0,0.0,0.0,0.0,0.0,0.0,0.0,-0.004420386161655188,0.0070581636391580105,0.046445656567811966,0.0,0.0,0.0,0.0,0.0,0.0,0.0,0.0,0.0
1606987948683291280,1601874,1606984347815410768,imu_link,-0.0009008252527564764,-0.0012227259576320648,0.25145986676216125,-0.9678665995597839,0.0,0.0,0.0,0.0,0.0,0.0,0.0,0.0,0.0,-29.12777328491211,0.16156938672065735,0.06467714160680771,0.0,0.0,0.0,0.0,0.0,0.0,0.0,0.0,0.0,-0.004420386161655188,0.0070581636391580105,0.046445656567811966,0.0,0.0,0.0,0.0,0.0,0.0,0.0,0.0,0.0
1606987948683305725,1601875,1606984347815475004,imu_link,-0.0008990769274532795,-0.0012246333062648773,0.25145193934440613,-0.9678686261177063,0.0,0.0,0.0,0.0,0.0,0.0,0.0,0.0,0.0,-29.126834869384766,0.16173000633716583,0.06442958116531372,0.0,0.0,0.0,0.0,0.0,0.0,0.0,0.0,0.0,0.006669871974736452,-0.006143334787338972,0.06942398101091385,0.0,0.0,0.0,0.0,0.0,0.0,0.0,0.0,0.0
1606987948683352058,1601876,1606984347815538619,imu_link,-0.0008990769274532795,-0.0012246333062648773,0.25145193934440613,-0.9678686261177063,0.0,0.0,0.0,0.0,0.0,0.0,0.0,0.0,0.0,-29.126834869384766,0.16173000633716583,0.06442958116531372,0.0,0.0,0.0,0.0,0.0,0.0,0.0,0.0,0.0,0.006669871974736452,-0.006143334787338972,0.06942398101091385,0.0,0.0,0.0,0.0,0.0,0.0,0.0,0.0,0.0
1606987948690469645,1601877,1606984347815620397,imu_link,-0.0008978142868727446,-0.001223145634867251,0.2514537274837494,-0.9678682088851929,0.0,0.0,0.0,0.0,0.0,0.0,0.0,0.0,0.0,-29.127046585083008,0.16152876615524292,0.06433211266994476,0.0,0.0,0.0,0.0,0.0,0.0,0.0,0.0,0.0,0.0027879104018211365,-0.00661759078502655,0.05897076427936554,0.0,0.0,0.0,0.0,0.0,0.0,0.0,0.0,0.0
1606987948690489784,1601878,1606984347815685499,imu_link,-0.0008978142868727446,-0.001223145634867251,0.2514537274837494,-0.9678682088851929,0.0,0.0,0.0,0.0,0.0,0.0,0.0,0.0,0.0,-29.127046585083008,0.16152876615524292,0.06433211266994476,0.0,0.0,0.0,0.0,0.0,0.0,0.0,0.0,0.0,0.0027879104018211365,-0.00661759078502655,0.05897076427936554,0.0,0.0,0.0,0.0,0.0,0.0,0.0,0.0,0.0
1606987948690499988,1601879,1606984347815758609,imu_link,-0.000897895370144397,-0.0012232775334268808,0.2514481246471405,-0.9678696393966675,0.0,0.0,0.0,0.0,0.0,0.0,0.0,0.0,0.0,-29.126384735107422,0.16154535114765167,0.06433824449777603,0.0,0.0,0.0,0.0,0.0,0.0,0.0,0.0,0.0,-0.0021305286791175604,0.0005235519492998719,0.05742871016263962,0.0,0.0,0.0,0.0,0.0,0.0,0.0,0.0,0.0
1606987948690514854,1601880,1606984347815828306,imu_link,-0.000897895370144397,-0.0012232775334268808,0.2514481246471405,-0.9678696393966675,0.0,0.0,0.0,0.0,0.0,0.0,0.0,0.0,0.0,-29.126384735107422,0.16154535114765167,0.06433824449777603,0.0,0.0,0.0,0.0,0.0,0.0,0.0,0.0,0.0,-0.0021305286791175604,0.0005235519492998719,0.05742871016263962,0.0,0.0,0.0,0.0,0.0,0.0,0.0,0.0,0.0
1606987948731241082,1601881,1606984347815893132,imu_link,-0.0008968415786512196,-0.0012231662403792143,0.25144827365875244,-0.9678696393966675,0.0,0.0,0.0,0.0,0.0,0.0,0.0,0.0,0.0,-29.126401901245117,0.1615026593208313,0.06422454863786697,0.0,0.0,0.0,0.0,0.0,0.0,0.0,0.0,0.0,-0.00925050675868988,0.00037088323733769357,0.06633525341749191,0.0,0.0,0.0,0.0,0.0,0.0,0.0,0.0,0.0
1606987948731257354,1601882,1606984347829026168,imu_link,-0.0008968415786512196,-0.0012231662403792143,0.25144827365875244,-0.9678696393966675,0.0,0.0,0.0,0.0,0.0,0.0,0.0,0.0,0.0,-29.126401901245117,0.1615026593208313,0.06422454863786697,0.0,0.0,0.0,0.0,0.0,0.0,0.0,0.0,0.0,-0.00925050675868988,0.00037088323733769357,0.06633525341749191,0.0,0.0,0.0,0.0,0.0,0.0,0.0,0.0,0.0
1606987948731265772,1601883,1606984347829141879,imu_link,-0.0008963809232227504,-0.0012219706550240517,0.2514510154724121,-0.9678688049316406,0.0,0.0,0.0,0.0,0.0,0.0,0.0,0.0,0.0,-29.126726150512695,0.16135694086551666,0.06420744955539703,0.0,0.0,0.0,0.0,0.0,0.0,0.0,0.0,0.0,-0.027324561029672623,0.008243990130722523,0.05879202485084534,0.0,0.0,0.0,0.0,0.0,0.0,0.0,0.0,0.0
1606987948731275443,1601884,1606984347829300138,imu_link,-0.0008963809232227504,-0.0012219706550240517,0.2514510154724121,-0.9678688049316406,0.0,0.0,0.0,0.0,0.0,0.0,0.0,0.0,0.0,-29.126726150512695,0.16135694086551666,0.06420744955539703,0.0,0.0,0.0,0.0,0.0,0.0,0.0,0.0,0.0,-0.027324561029672623,0.008243990130722523,0.05879202485084534,0.0,0.0,0.0,0.0,0.0,0.0,0.0,0.0,0.0
1606987948731287631,1601885,1606984347829368997,imu_link,-0.0008963809232227504,-0.0012219706550240517,0.2514510154724121,-0.9678688049316406,0.0,0.0,0.0,0.0,0.0,0.0,0.0,0.0,0.0,-29.126726150512695,0.16135694086551666,0.06420744955539703,0.0,0.0,0.0,0.0,0.0,0.0,0.0,0.0,0.0,-0.010232776403427124,0.0004202641430310905,0.0700746700167656,0.0,0.0,0.0,0.0,0.0,0.0,0.0,0.0,0.0
1606987948752837558,1601886,1606984347829433695,imu_link,-0.0008963809232227504,-0.0012219706550240517,0.2514510154724121,-0.9678688049316406,0.0,0.0,0.0,0.0,0.0,0.0,0.0,0.0,0.0,-29.126726150512695,0.16135694086551666,0.06420744955539703,0.0,0.0,0.0,0.0,0.0,0.0,0.0,0.0,0.0,-0.010232776403427124,0.0004202641430310905,0.0700746700167656,0.0,0.0,0.0,0.0,0.0,0.0,0.0,0.0,0.0
1606987948752861927,1601887,1606984347829516703,imu_link,-0.0008959555416367948,-0.0012202764628455043,0.25145435333251953,-0.9678679704666138,0.0,0.0,0.0,0.0,0.0,0.0,0.0,0.0,0.0,-29.127124786376953,0.1611570119857788,0.06420852988958359,0.0,0.0,0.0,0.0,0.0,0.0,0.0,0.0,0.0,0.015568780712783337,-0.015224137343466282,0.04694560170173645,0.0,0.0,0.0,0.0,0.0,0.0,0.0,0.0,0.0
1606987948752893073,1601888,1606984347829583638,imu_link,-0.0008959555416367948,-0.0012202764628455043,0.25145435333251953,-0.9678679704666138,0.0,0.0,0.0,0.0,0.0,0.0,0.0,0.0,0.0,-29.127124786376953,0.1611570119857788,0.06420852988958359,0.0,0.0,0.0,0.0,0.0,0.0,0.0,0.0,0.0,0.015568780712783337,-0.015224137343466282,0.04694560170173645,0.0,0.0,0.0,0.0,0.0,0.0,0.0,0.0,0.0
1606987948752927126,1601889,1606984347829649526,imu_link,-0.0008980066631920636,-0.001220392296090722,0.25145524740219116,-0.9678677320480347,0.0,0.0,0.0,0.0,0.0,0.0,0.0,0.0,0.0,-29.127227783203125,0.16122901439666748,0.0644325390458107,0.0,0.0,0.0,0.0,0.0,0.0,0.0,0.0,0.0,0.009525102563202381,-0.008781900629401207,0.017443222925066948,0.0,0.0,0.0,0.0,0.0,0.0,0.0,0.0,0.0
1606987948766609264,1601890,1606984347829714064,imu_link,-0.0008980066631920636,-0.001220392296090722,0.25145524740219116,-0.9678677320480347,0.0,0.0,0.0,0.0,0.0,0.0,0.0,0.0,0.0,-29.127227783203125,0.16122901439666748,0.0644325390458107,0.0,0.0,0.0,0.0,0.0,0.0,0.0,0.0,0.0,0.009525102563202381,-0.008781900629401207,0.017443222925066948,0.0,0.0,0.0,0.0,0.0,0.0,0.0,0.0,0.0
1606987948766628700,1601891,1606984347829780971,imu_link,-0.0008973003714345396,-0.0012199919437989593,0.25145015120506287,-0.9678690433502197,0.0,0.0,0.0,0.0,0.0,0.0,0.0,0.0,0.0,-29.126623153686523,0.16116392612457275,0.06436658650636673,0.0,0.0,0.0,0.0,0.0,0.0,0.0,0.0,0.0,-0.009000483900308609,-0.002910128328949213,0.043762288987636566,0.0,0.0,0.0,0.0,0.0,0.0,0.0,0.0,0.0
1606987948766635003,1601892,1606984347829845965,imu_link,-0.0008973003714345396,-0.0012199919437989593,0.25145015120506287,-0.9678690433502197,0.0,0.0,0.0,0.0,0.0,0.0,0.0,0.0,0.0,-29.126623153686523,0.16116392612457275,0.06436658650636673,0.0,0.0,0.0,0.0,0.0,0.0,0.0,0.0,0.0,-0.009000483900308609,-0.002910128328949213,0.043762288987636566,0.0,0.0,0.0,0.0,0.0,0.0,0.0,0.0,0.0
1606987948766653974,1601893,1606984347841694009,imu_link,-0.0008987030014395714,-0.0012211910216137767,0.25145038962364197,-0.9678690433502197,0.0,0.0,0.0,0.0,0.0,0.0,0.0,0.0,0.0,-29.126649856567383,0.16133736073970795,0.06448756158351898,0.0,0.0,0.0,0.0,0.0,0.0,0.0,0.0,0.0,-0.002676160540431738,-0.01421936135739088,0.05465426295995712,0.0,0.0,0.0,0.0,0.0,0.0,0.0,0.0,0.0
1606987948766665405,1601894,1606984347841787313,imu_link,-0.0008987030014395714,-0.0012211910216137767,0.25145038962364197,-0.9678690433502197,0.0,0.0,0.0,0.0,0.0,0.0,0.0,0.0,0.0,-29.126649856567383,0.16133736073970795,0.06448756158351898,0.0,0.0,0.0,0.0,0.0,0.0,0.0,0.0,0.0,-0.002676160540431738,-0.01421936135739088,0.05465426295995712,0.0,0.0,0.0,0.0,0.0,0.0,0.0,0.0,0.0
1606987948770275478,1601895,1606984347841857002,imu_link,-0.0009001085418276489,-0.0012191474670544267,0.2514464855194092,-0.9678700566291809,0.0,0.0,0.0,0.0,0.0,0.0,0.0,0.0,0.0,-29.12618637084961,0.16115093231201172,0.06470298022031784,0.0,0.0,0.0,0.0,0.0,0.0,0.0,0.0,0.0,0.0017372930888086557,-0.02185896225273609,0.049781087785959244,0.0,0.0,0.0,0.0,0.0,0.0,0.0,0.0,0.0
1606987948770291870,1601896,1606984347841921960,imu_link,-0.0009001085418276489,-0.0012191474670544267,0.2514464855194092,-0.9678700566291809,0.0,0.0,0.0,0.0,0.0,0.0,0.0,0.0,0.0,-29.12618637084961,0.16115093231201172,0.06470298022031784,0.0,0.0,0.0,0.0,0.0,0.0,0.0,0.0,0.0,0.0017372930888086557,-0.02185896225273609,0.049781087785959244,0.0,0.0,0.0,0.0,0.0,0.0,0.0,0.0,0.0
1606987948770328895,1601897,1606984347841990078,imu_link,-0.0009008586057461798,-0.0012179311597719789,0.25144824385643005,-0.9678695797920227,0.0,0.0,0.0,0.0,0.0,0.0,0.0,0.0,0.0,-29.12639808654785,0.16103775799274445,0.06482092291116714,0.0,0.0,0.0,0.0,0.0,0.0,0.0,0.0,0.0,-0.020442035049200058,0.0004451181157492101,0.053575027734041214,0.0,0.0,0.0,0.0,0.0,0.0,0.0,0.0,0.0
1606987948770373094,1601898,1606984347842071118,imu_link,-0.0009008586057461798,-0.0012179311597719789,0.25144824385643005,-0.9678695797920227,0.0,0.0,0.0,0.0,0.0,0.0,0.0,0.0,0.0,-29.12639808654785,0.16103775799274445,0.06482092291116714,0.0,0.0,0.0,0.0,0.0,0.0,0.0,0.0,0.0,-0.020442035049200058,0.0004451181157492101,0.053575027734041214,0.0,0.0,0.0,0.0,0.0,0.0,0.0,0.0,0.0
1606987948859204839,1601899,1606984347842143409,imu_link,-0.0009010143112391233,-0.0012154587311670184,0.25144919753074646,-0.9678693413734436,0.0,0.0,0.0,0.0,0.0,0.0,0.0,0.0,0.0,-29.126510620117188,0.16076810657978058,0.06490927934646606,0.0,0.0,0.0,0.0,0.0,0.0,0.0,0.0,0.0,-0.00589329656213522,0.009464560076594353,0.05226961895823479,0.0,0.0,0.0,0.0,0.0,0.0,0.0,0.0,0.0
1606987948859231279,1601900,1606984347842207870,imu_link,-0.0009010143112391233,-0.0012154587311670184,0.25144919753074646,-0.9678693413734436,0.0,0.0,0.0,0.0,0.0,0.0,0.0,0.0,0.0,-29.126510620117188,0.16076810657978058,0.06490927934646606,0.0,0.0,0.0,0.0,0.0,0.0,0.0,0.0,0.0,-0.00589329656213522,0.009464560076594353,0.05226961895823479,0.0,0.0,0.0,0.0,0.0,0.0,0.0,0.0,0.0
1606987948859247034,1601901,1606984347842274893,imu_link,-0.0009007830522023141,-0.0012148612877354026,0.2514515519142151,-0.9678687453269958,0.0,0.0,0.0,0.0,0.0,0.0,0.0,0.0,0.0,-29.12679100036621,0.16069534420967102,0.06490045040845871,0.0,0.0,0.0,0.0,0.0,0.0,0.0,0.0,0.0,0.006273550912737846,0.0004460951022338122,0.03492840752005577,0.0,0.0,0.0,0.0,0.0,0.0,0.0,0.0,0.0
1606987948859260527,1601902,1606984347842340345,imu_link,-0.0009007830522023141,-0.0012148612877354026,0.2514515519142151,-0.9678687453269958,0.0,0.0,0.0,0.0,0.0,0.0,0.0,0.0,0.0,-29.12679100036621,0.16069534420967102,0.06490045040845871,0.0,0.0,0.0,0.0,0.0,0.0,0.0,0.0,0.0,0.006273550912737846,0.0004460951022338122,0.03492840752005577,0.0,0.0,0.0,0.0,0.0,0.0,0.0,0.0,0.0
1606987948864188905,1601903,1606984347855222924,imu_link,-0.0009010350331664085,-0.0012157957535237074,0.25145062804222107,-0.967868983745575,0.0,0.0,0.0,0.0,0.0,0.0,0.0,0.0,0.0,-29.126678466796875,0.16080617904663086,0.06490162014961243,0.0,0.0,0.0,0.0,0.0,0.0,0.0,0.0,0.0,0.0035054341424256563,-0.00665280083194375,0.031651854515075684,0.0,0.0,0.0,0.0,0.0,0.0,0.0,0.0,0.0
1606987948864208450,1601904,1606984347855328479,imu_link,-0.0009010350331664085,-0.0012157957535237074,0.25145062804222107,-0.967868983745575,0.0,0.0,0.0,0.0,0.0,0.0,0.0,0.0,0.0,-29.126678466796875,0.16080617904663086,0.06490162014961243,0.0,0.0,0.0,0.0,0.0,0.0,0.0,0.0,0.0,0.0035054341424256563,-0.00665280083194375,0.031651854515075684,0.0,0.0,0.0,0.0,0.0,0.0,0.0,0.0,0.0
1606987948864240279,1601905,1606984347855405030,imu_link,-0.000904013286344707,-0.001215280033648014,0.25145089626312256,-0.9678689241409302,0.0,0.0,0.0,0.0,0.0,0.0,0.0,0.0,0.0,-29.126708984375,0.16083480417728424,0.06524676829576492,0.0,0.0,0.0,0.0,0.0,0.0,0.0,0.0,0.0,0.007578973658382893,-0.01087278127670288,0.036529991775751114,0.0,0.0,0.0,0.0,0.0,0.0,0.0,0.0,0.0
1606987948864282359,1601906,1606984347855474141,imu_link,-0.000904013286344707,-0.001215280033648014,0.25145089626312256,-0.9678689241409302,0.0,0.0,0.0,0.0,0.0,0.0,0.0,0.0,0.0,-29.126708984375,0.16083480417728424,0.06524676829576492,0.0,0.0,0.0,0.0,0.0,0.0,0.0,0.0,0.0,0.007578973658382893,-0.01087278127670288,0.036529991775751114,0.0,0.0,0.0,0.0,0.0,0.0,0.0,0.0,0.0
1606987948864312519,1601907,1606984347855545417,imu_link,-0.0009041241719387472,-0.0012158749159425497,0.25144705176353455,-0.9678699374198914,0.0,0.0,0.0,0.0,0.0,0.0,0.0,0.0,0.0,-29.12625503540039,0.1609037220478058,0.06524255871772766,0.0,0.0,0.0,0.0,0.0,0.0,0.0,0.0,0.0,-0.0022904372308403254,-0.006192063447088003,0.029656214639544487,0.0,0.0,0.0,0.0,0.0,0.0,0.0,0.0,0.0
1606987948872712344,1601908,1606984347855623968,imu_link,-0.0009041241719387472,-0.0012158749159425497,0.25144705176353455,-0.9678699374198914,0.0,0.0,0.0,0.0,0.0,0.0,0.0,0.0,0.0,-29.12625503540039,0.1609037220478058,0.06524255871772766,0.0,0.0,0.0,0.0,0.0,0.0,0.0,0.0,0.0,-0.0022904372308403254,-0.006192063447088003,0.029656214639544487,0.0,0.0,0.0,0.0,0.0,0.0,0.0,0.0,0.0
1606987948872726736,1601909,1606984347855710380,imu_link,-0.0009030111250467598,-0.0012171913404017687,0.2514466643333435,-0.9678699970245361,0.0,0.0,0.0,0.0,0.0,0.0,0.0,0.0,0.0,-29.126209259033203,0.16101762652397156,0.06508123874664307,0.0,0.0,0.0,0.0,0.0,0.0,0.0,0.0,0.0,-0.005215369630604982,0.0008107384201139212,0.054677896201610565,0.0,0.0,0.0,0.0,0.0,0.0,0.0,0.0,0.0
1606987948872732217,1601910,1606984347855785586,imu_link,-0.0009030111250467598,-0.0012171913404017687,0.2514466643333435,-0.9678699970245361,0.0,0.0,0.0,0.0,0.0,0.0,0.0,0.0,0.0,-29.126209259033203,0.16101762652397156,0.06508123874664307,0.0,0.0,0.0,0.0,0.0,0.0,0.0,0.0,0.0,-0.005215369630604982,0.0008107384201139212,0.054677896201610565,0.0,0.0,0.0,0.0,0.0,0.0,0.0,0.0,0.0
1606987948872743258,1601911,1606984347855853338,imu_link,-0.000902542204130441,-0.0012181124184280634,0.2514445185661316,-0.9678705334663391,0.0,0.0,0.0,0.0,0.0,0.0,0.0,0.0,0.0,-29.125957489013672,0.16110612452030182,0.06500305980443954,0.0,0.0,0.0,0.0,0.0,0.0,0.0,0.0,0.0,0.010905858129262924,0.007116555701941252,0.07196716219186783,0.0,0.0,0.0,0.0,0.0,0.0,0.0,0.0,0.0
1606987948876233645,1601912,1606984347855932241,imu_link,-0.000902542204130441,-0.0012181124184280634,0.2514445185661316,-0.9678705334663391,0.0,0.0,0.0,0.0,0.0,0.0,0.0,0.0,0.0,-29.125957489013672,0.16110612452030182,0.06500305980443954,0.0,0.0,0.0,0.0,0.0,0.0,0.0,0.0,0.0,0.010905858129262924,0.007116555701941252,0.07196716219186783,0.0,0.0,0.0,0.0,0.0,0.0,0.0,0.0,0.0
1606987948876264724,1601913,1606984347856020258,imu_link,-0.0009035315597429872,-0.0012215179158374667,0.2514435052871704,-0.967870831489563,0.0,0.0,0.0,0.0,0.0,0.0,0.0,0.0,0.0,-29.12583351135254,0.16151227056980133,0.06501482427120209,0.0,0.0,0.0,0.0,0.0,0.0,0.0,0.0,0.0,0.016957560554146767,0.00277039990760386,0.04558282345533371,0.0,0.0,0.0,0.0,0.0,0.0,0.0,0.0,0.0
1606987948876283448,1601914,1606984347869124354,imu_link,-0.0009035315597429872,-0.0012215179158374667,0.2514435052871704,-0.967870831489563,0.0,0.0,0.0,0.0,0.0,0.0,0.0,0.0,0.0,-29.12583351135254,0.16151227056980133,0.06501482427120209,0.0,0.0,0.0,0.0,0.0,0.0,0.0,0.0,0.0,0.016957560554146767,0.00277039990760386,0.04558282345533371,0.0,0.0,0.0,0.0,0.0,0.0,0.0,0.0,0.0
1606987948876301637,1601915,1606984347869207000,imu_link,-0.0009016521507874131,-0.0012245574034750462,0.25145378708839417,-0.9678681492805481,0.0,0.0,0.0,0.0,0.0,0.0,0.0,0.0,0.0,-29.127052307128906,0.16179591417312622,0.06471707671880722,0.0,0.0,0.0,0.0,0.0,0.0,0.0,0.0,0.0,-0.0018216832540929317,-0.007814987562596798,0.05063639581203461,0.0,0.0,0.0,0.0,0.0,0.0,0.0,0.0,0.0
1606987948876316406,1601916,1606984347869315319,imu_link,-0.0009016521507874131,-0.0012245574034750462,0.25145378708839417,-0.9678681492805481,0.0,0.0,0.0,0.0,0.0,0.0,0.0,0.0,0.0,-29.127052307128906,0.16179591417312622,0.06471707671880722,0.0,0.0,0.0,0.0,0.0,0.0,0.0,0.0,0.0,-0.0018216832540929317,-0.007814987562596798,0.05063639581203461,0.0,0.0,0.0,0.0,0.0,0.0,0.0,0.0,0.0
1606987948903736016,1601917,1606984347869367030,imu_link,-0.0009022758458741009,-0.0012239685747772455,0.2514531910419464,-0.9678682684898376,0.0,0.0,0.0,0.0,0.0,0.0,0.0,0.0,0.0,-29.126981735229492,0.16174854338169098,0.06480333209037781,0.0,0.0,0.0,0.0,0.0,0.0,0.0,0.0,0.0,0.008514021523296833,-0.010822025127708912,0.03876993805170059,0.0,0.0,0.0,0.0,0.0,0.0,0.0,0.0,0.0
1606987948903759782,1601918,1606984347869411462,imu_link,-0.0009022758458741009,-0.0012239685747772455,0.2514531910419464,-0.9678682684898376,0.0,0.0,0.0,0.0,0.0,0.0,0.0,0.0,0.0,-29.126981735229492,0.16174854338169098,0.06480333209037781,0.0,0.0,0.0,0.0,0.0,0.0,0.0,0.0,0.0,0.008514021523296833,-0.010822025127708912,0.03876993805170059,0.0,0.0,0.0,0.0,0.0,0.0,0.0,0.0,0.0
1606987948903772029,1601919,1606984347869458731,imu_link,-0.0009054348338395357,-0.0012260478688403964,0.25146445631980896,-0.9678653478622437,0.0,0.0,0.0,0.0,0.0,0.0,0.0,0.0,0.0,-29.12831687927246,0.16207093000411987,0.06509188562631607,0.0,0.0,0.0,0.0,0.0,0.0,0.0,0.0,0.0,0.01790018193423748,-0.015818297863006592,0.023067522794008255,0.0,0.0,0.0,0.0,0.0,0.0,0.0,0.0,0.0
1606987948903786059,1601920,1606984347869517249,imu_link,-0.0009054348338395357,-0.0012260478688403964,0.25146445631980896,-0.9678653478622437,0.0,0.0,0.0,0.0,0.0,0.0,0.0,0.0,0.0,-29.12831687927246,0.16207093000411987,0.06509188562631607,0.0,0.0,0.0,0.0,0.0,0.0,0.0,0.0,0.0,0.01790018193423748,-0.015818297863006592,0.023067522794008255,0.0,0.0,0.0,0.0,0.0,0.0,0.0,0.0,0.0
1606987948907300170,1601921,1606984347869563322,imu_link,-0.0009053220856003463,-0.001226453692652285,0.251463383436203,-0.9678656458854675,0.0,0.0,0.0,0.0,0.0,0.0,0.0,0.0,0.0,-29.12818717956543,0.16211263835430145,0.06506786495447159,0.0,0.0,0.0,0.0,0.0,0.0,0.0,0.0,0.0,0.0011739472392946482,-0.03256525844335556,0.03758664056658745,0.0,0.0,0.0,0.0,0.0,0.0,0.0,0.0,0.0
1606987948907332822,1601922,1606984347869614291,imu_link,-0.0009053220856003463,-0.001226453692652285,0.251463383436203,-0.9678656458854675,0.0,0.0,0.0,0.0,0.0,0.0,0.0,0.0,0.0,-29.12818717956543,0.16211263835430145,0.06506786495447159,0.0,0.0,0.0,0.0,0.0,0.0,0.0,0.0,0.0,0.0011739472392946482,-0.03256525844335556,0.03758664056658745,0.0,0.0,0.0,0.0,0.0,0.0,0.0,0.0,0.0
1606987948907358955,1601923,1606984347869656096,imu_link,-0.0009119476308114827,-0.0012218502815812826,0.25146248936653137,-0.9678658843040466,0.0,0.0,0.0,0.0,0.0,0.0,0.0,0.0,0.0,-29.128080368041992,0.16179291903972626,0.06593549996614456,0.0,0.0,0.0,0.0,0.0,0.0,0.0,0.0,0.0,-0.0009085949859581888,-0.013463656418025494,0.026658713817596436,0.0,0.0,0.0,0.0,0.0,0.0,0.0,0.0,0.0
1606987948907365144,1601924,1606984347869702610,imu_link,-0.0009119476308114827,-0.0012218502815812826,0.25146248936653137,-0.9678658843040466,0.0,0.0,0.0,0.0,0.0,0.0,0.0,0.0,0.0,-29.128080368041992,0.16179291903972626,0.06593549996614456,0.0,0.0,0.0,0.0,0.0,0.0,0.0,0.0,0.0,-0.0009085949859581888,-0.013463656418025494,0.026658713817596436,0.0,0.0,0.0,0.0,0.0,0.0,0.0,0.0,0.0
1606987948907375592,1601925,1606984347882541692,imu_link,-0.0009101557079702616,-0.0012222420191392303,0.2514621317386627,-0.9678660035133362,0.0,0.0,0.0,0.0,0.0,0.0,0.0,0.0,0.0,-29.128036499023438,0.16178472340106964,0.06572554260492325,0.0,0.0,0.0,0.0,0.0,0.0,0.0,0.0,0.0,-0.004164509940892458,0.0019849566742777824,0.012487739324569702,0.0,0.0,0.0,0.0,0.0,0.0,0.0,0.0,0.0
1606987948918837692,1601926,1606984347882632107,imu_link,-0.0009101557079702616,-0.0012222420191392303,0.2514621317386627,-0.9678660035133362,0.0,0.0,0.0,0.0,0.0,0.0,0.0,0.0,0.0,-29.128036499023438,0.16178472340106964,0.06572554260492325,0.0,0.0,0.0,0.0,0.0,0.0,0.0,0.0,0.0,-0.004164509940892458,0.0019849566742777824,0.012487739324569702,0.0,0.0,0.0,0.0,0.0,0.0,0.0,0.0,0.0
1606987948918862577,1601927,1606984347882724446,imu_link,-0.0009089030208997428,-0.0012191891437396407,0.2514583170413971,-0.9678670167922974,0.0,0.0,0.0,0.0,0.0,0.0,0.0,0.0,0.0,-29.127586364746094,0.16140976548194885,0.06567521393299103,0.0,0.0,0.0,0.0,0.0,0.0,0.0,0.0,0.0,-8.609511132817715e-05,-0.0028784817550331354,0.031219827011227608,0.0,0.0,0.0,0.0,0.0,0.0,0.0,0.0,0.0
1606987948918871275,1601928,1606984347882776071,imu_link,-0.0009089030208997428,-0.0012191891437396407,0.2514583170413971,-0.9678670167922974,0.0,0.0,0.0,0.0,0.0,0.0,0.0,0.0,0.0,-29.127586364746094,0.16140976548194885,0.06567521393299103,0.0,0.0,0.0,0.0,0.0,0.0,0.0,0.0,0.0,-8.609511132817715e-05,-0.0028784817550331354,0.031219827011227608,0.0,0.0,0.0,0.0,0.0,0.0,0.0,0.0,0.0
1606987948918880644,1601929,1606984347882827763,imu_link,-0.0009106674697250128,-0.001217877259477973,0.2514587640762329,-0.9678668975830078,0.0,0.0,0.0,0.0,0.0,0.0,0.0,0.0,0.0,-29.127639770507812,0.16131514310836792,0.06590862572193146,0.0,0.0,0.0,0.0,0.0,0.0,0.0,0.0,0.0,-0.0004077693447470665,-0.0076540629379451275,0.03918574005365372,0.0,0.0,0.0,0.0,0.0,0.0,0.0,0.0,0.0
1606987948922688535,1601930,1606984347882875135,imu_link,-0.0009106674697250128,-0.001217877259477973,0.2514587640762329,-0.9678668975830078,0.0,0.0,0.0,0.0,0.0,0.0,0.0,0.0,0.0,-29.127639770507812,0.16131514310836792,0.06590862572193146,0.0,0.0,0.0,0.0,0.0,0.0,0.0,0.0,0.0,-0.0004077693447470665,-0.0076540629379451275,0.03918574005365372,0.0,0.0,0.0,0.0,0.0,0.0,0.0,0.0,0.0
1606987948922729283,1601931,1606984347882935148,imu_link,-0.0009112682892009616,-0.0012169911060482264,0.2514699101448059,-0.9678639769554138,0.0,0.0,0.0,0.0,0.0,0.0,0.0,0.0,0.0,-29.12896156311035,0.16123493015766144,0.06599894911050797,0.0,0.0,0.0,0.0,0.0,0.0,0.0,0.0,0.0,-0.006741894409060478,-0.01549301017075777,0.016292475163936615,0.0,0.0,0.0,0.0,0.0,0.0,0.0,0.0,0.0
1606987948922752875,1601932,1606984347883036549,imu_link,-0.0009112682892009616,-0.0012169911060482264,0.2514699101448059,-0.9678639769554138,0.0,0.0,0.0,0.0,0.0,0.0,0.0,0.0,0.0,-29.12896156311035,0.16123493015766144,0.06599894911050797,0.0,0.0,0.0,0.0,0.0,0.0,0.0,0.0,0.0,-0.006741894409060478,-0.01549301017075777,0.016292475163936615,0.0,0.0,0.0,0.0,0.0,0.0,0.0,0.0,0.0
1606987948922770256,1601933,1606984347883098748,imu_link,-0.0009100615279749036,-0.0012145481305196881,0.25147104263305664,-0.9678636193275452,0.0,0.0,0.0,0.0,0.0,0.0,0.0,0.0,0.0,-29.12909507751465,0.16092927753925323,0.06593530625104904,0.0,0.0,0.0,0.0,0.0,0.0,0.0,0.0,0.0,0.01273647416383028,-0.011089653708040714,0.010197584517300129,0.0,0.0,0.0,0.0,0.0,0.0,0.0,0.0,0.0
1606987948922792857,1601934,1606984347883158252,imu_link,-0.0009100615279749036,-0.0012145481305196881,0.25147104263305664,-0.9678636193275452,0.0,0.0,0.0,0.0,0.0,0.0,0.0,0.0,0.0,-29.12909507751465,0.16092927753925323,0.06593530625104904,0.0,0.0,0.0,0.0,0.0,0.0,0.0,0.0,0.0,0.01273647416383028,-0.011089653708040714,0.010197584517300129,0.0,0.0,0.0,0.0,0.0,0.0,0.0,0.0,0.0
1606987948991860525,1601935,1606984347883217203,imu_link,-0.0009123889612965286,-0.0012159389443695545,0.2514793574810028,-0.9678614735603333,0.0,0.0,0.0,0.0,0.0,0.0,0.0,0.0,0.0,-29.130083084106445,0.16115117073059082,0.06615199148654938,0.0,0.0,0.0,0.0,0.0,0.0,0.0,0.0,0.0,0.024490544572472572,-0.014877516776323318,0.017379116266965866,0.0,0.0,0.0,0.0,0.0,0.0,0.0,0.0,0.0
1606987948991898360,1601936,1606984347896464819,imu_link,-0.0009123889612965286,-0.0012159389443695545,0.2514793574810028,-0.9678614735603333,0.0,0.0,0.0,0.0,0.0,0.0,0.0,0.0,0.0,-29.130083084106445,0.16115117073059082,0.06615199148654938,0.0,0.0,0.0,0.0,0.0,0.0,0.0,0.0,0.0,0.024490544572472572,-0.014877516776323318,0.017379116266965866,0.0,0.0,0.0,0.0,0.0,0.0,0.0,0.0,0.0
1606987948991914884,1601937,1606984347896579003,imu_link,-0.0009109217789955437,-0.001216754550114274,0.2514788806438446,-0.9678615927696228,0.0,0.0,0.0,0.0,0.0,0.0,0.0,0.0,0.0,-29.130023956298828,0.16119931638240814,0.06596583127975464,0.0,0.0,0.0,0.0,0.0,0.0,0.0,0.0,0.0,0.021032702177762985,0.008506649173796177,0.029839444905519485,0.0,0.0,0.0,0.0,0.0,0.0,0.0,0.0,0.0
1606987948991923021,1601938,1606984347896681484,imu_link,-0.0009109217789955437,-0.001216754550114274,0.2514788806438446,-0.9678615927696228,0.0,0.0,0.0,0.0,0.0,0.0,0.0,0.0,0.0,-29.130023956298828,0.16119931638240814,0.06596583127975464,0.0,0.0,0.0,0.0,0.0,0.0,0.0,0.0,0.0,0.021032702177762985,0.008506649173796177,0.029839444905519485,0.0,0.0,0.0,0.0,0.0,0.0,0.0,0.0,0.0
1606987948999060450,1601939,1606984347896750633,imu_link,-0.000910215254407376,-0.0012202810030430555,0.25147655606269836,-0.9678621888160706,0.0,0.0,0.0,0.0,0.0,0.0,0.0,0.0,0.0,-29.12974739074707,0.16156990826129913,0.06578624248504639,0.0,0.0,0.0,0.0,0.0,0.0,0.0,0.0,0.0,0.010388864204287529,0.025352606549859047,0.03171953931450844,0.0,0.0,0.0,0.0,0.0,0.0,0.0,0.0,0.0
1606987948999079598,1601940,1606984347896814642,imu_link,-0.000910215254407376,-0.0012202810030430555,0.25147655606269836,-0.9678621888160706,0.0,0.0,0.0,0.0,0.0,0.0,0.0,0.0,0.0,-29.12974739074707,0.16156990826129913,0.06578624248504639,0.0,0.0,0.0,0.0,0.0,0.0,0.0,0.0,0.0,0.010388864204287529,0.025352606549859047,0.03171953931450844,0.0,0.0,0.0,0.0,0.0,0.0,0.0,0.0,0.0
1606987948999092963,1601941,1606984347896887484,imu_link,-0.0009100678726099432,-0.0012199945049360394,0.2514771819114685,-0.967862069606781,0.0,0.0,0.0,0.0,0.0,0.0,0.0,0.0,0.0,-29.129819869995117,0.16153393685817719,0.06577804684638977,0.0,0.0,0.0,0.0,0.0,0.0,0.0,0.0,0.0,-0.000774732674472034,0.009325698018074036,0.03967158868908882,0.0,0.0,0.0,0.0,0.0,0.0,0.0,0.0,0.0
1606987948999102195,1601942,1606984347896946125,imu_link,-0.0009100678726099432,-0.0012199945049360394,0.2514771819114685,-0.967862069606781,0.0,0.0,0.0,0.0,0.0,0.0,0.0,0.0,0.0,-29.129819869995117,0.16153393685817719,0.06577804684638977,0.0,0.0,0.0,0.0,0.0,0.0,0.0,0.0,0.0,-0.000774732674472034,0.009325698018074036,0.03967158868908882,0.0,0.0,0.0,0.0,0.0,0.0,0.0,0.0,0.0
1606987948999118210,1601943,1606984347897091990,imu_link,-0.0009075608686544001,-0.001223140861839056,0.2514725625514984,-0.9678632616996765,0.0,0.0,0.0,0.0,0.0,0.0,0.0,0.0,0.0,-29.129276275634766,0.16181033849716187,0.06541009992361069,0.0,0.0,0.0,0.0,0.0,0.0,0.0,0.0,0.0,-0.00013070779095869511,0.0056510684080421925,0.07623407989740372,0.0,0.0,0.0,0.0,0.0,0.0,0.0,0.0,0.0
1606987949006254818,1601944,1606984347897158941,imu_link,-0.0009075608686544001,-0.001223140861839056,0.2514725625514984,-0.9678632616996765,0.0,0.0,0.0,0.0,0.0,0.0,0.0,0.0,0.0,-29.129276275634766,0.16181033849716187,0.06541009992361069,0.0,0.0,0.0,0.0,0.0,0.0,0.0,0.0,0.0,-0.00013070779095869511,0.0056510684080421925,0.07623407989740372,0.0,0.0,0.0,0.0,0.0,0.0,0.0,0.0,0.0
1606987949006287824,1601945,1606984347897227247,imu_link,-0.000908486545085907,-0.001222334336489439,0.25147244334220886,-0.9678632616996765,0.0,0.0,0.0,0.0,0.0,0.0,0.0,0.0,0.0,-29.12925910949707,0.16174755990505219,0.06553603708744049,0.0,0.0,0.0,0.0,0.0,0.0,0.0,0.0,0.0,0.007817413657903671,0.005148388911038637,0.08017096668481827,0.0,0.0,0.0,0.0,0.0,0.0,0.0,0.0,0.0
1606987949006337095,1601946,1606984347897291865,imu_link,-0.000908486545085907,-0.001222334336489439,0.25147244334220886,-0.9678632616996765,0.0,0.0,0.0,0.0,0.0,0.0,0.0,0.0,0.0,-29.12925910949707,0.16174755990505219,0.06553603708744049,0.0,0.0,0.0,0.0,0.0,0.0,0.0,0.0,0.0,0.007817413657903671,0.005148388911038637,0.08017096668481827,0.0,0.0,0.0,0.0,0.0,0.0,0.0,0.0,0.0
1606987949006345818,1601947,1606984347909307961,imu_link,-0.0009096651338040829,-0.0012240130454301834,0.25147220492362976,-0.9678633213043213,0.0,0.0,0.0,0.0,0.0,0.0,0.0,0.0,0.0,-29.12923240661621,0.1619676798582077,0.06561841070652008,0.0,0.0,0.0,0.0,0.0,0.0,0.0,0.0,0.0,0.007219579536467791,0.002756199799478054,0.03426099568605423,0.0,0.0,0.0,0.0,0.0,0.0,0.0,0.0,0.0
1606987949010259017,1601948,1606984347909521798,imu_link,-0.0009096651338040829,-0.0012240130454301834,0.25147220492362976,-0.9678633213043213,0.0,0.0,0.0,0.0,0.0,0.0,0.0,0.0,0.0,-29.12923240661621,0.1619676798582077,0.06561841070652008,0.0,0.0,0.0,0.0,0.0,0.0,0.0,0.0,0.0,0.007219579536467791,0.002756199799478054,0.03426099568605423,0.0,0.0,0.0,0.0,0.0,0.0,0.0,0.0,0.0
1606987949010319294,1601949,1606984347909697693,imu_link,-0.0009100953466258943,-0.0012245026882737875,0.25147247314453125,-0.9678632616996765,0.0,0.0,0.0,0.0,0.0,0.0,0.0,0.0,0.0,-29.129262924194336,0.16203439235687256,0.06565197557210922,0.0,0.0,0.0,0.0,0.0,0.0,0.0,0.0,0.0,-0.007102088071405888,0.016361983492970467,0.02783147431910038,0.0,0.0,0.0,0.0,0.0,0.0,0.0,0.0,0.0
1606987949010350113,1601950,1606984347909845271,imu_link,-0.0009100953466258943,-0.0012245026882737875,0.25147247314453125,-0.9678632616996765,0.0,0.0,0.0,0.0,0.0,0.0,0.0,0.0,0.0,-29.129262924194336,0.16203439235687256,0.06565197557210922,0.0,0.0,0.0,0.0,0.0,0.0,0.0,0.0,0.0,-0.007102088071405888,0.016361983492970467,0.02783147431910038,0.0,0.0,0.0,0.0,0.0,0.0,0.0,0.0,0.0
1606987949010368320,1601951,1606984347909971924,imu_link,-0.0009087305516004562,-0.0012240895302966237,0.251472532749176,-0.9678632616996765,0.0,0.0,0.0,0.0,0.0,0.0,0.0,0.0,0.0,-29.129270553588867,0.1619492471218109,0.06551249325275421,0.0,0.0,0.0,0.0,0.0,0.0,0.0,0.0,0.0,-0.006394234951585531,0.024166060611605644,0.06367434561252594,0.0,0.0,0.0,0.0,0.0,0.0,0.0,0.0,0.0
1606987949010427000,1601952,1606984347910073684,imu_link,-0.0009087305516004562,-0.0012240895302966237,0.251472532749176,-0.9678632616996765,0.0,0.0,0.0,0.0,0.0,0.0,0.0,0.0,0.0,-29.129270553588867,0.1619492471218109,0.06551249325275421,0.0,0.0,0.0,0.0,0.0,0.0,0.0,0.0,0.0,-0.006394234951585531,0.024166060611605644,0.06367434561252594,0.0,0.0,0.0,0.0,0.0,0.0,0.0,0.0,0.0
1606987949057338278,1601953,1606984347910462094,imu_link,-0.0009075213456526399,-0.0012220791541039944,0.2514704465866089,-0.9678637981414795,0.0,0.0,0.0,0.0,0.0,0.0,0.0,0.0,0.0,-29.129026412963867,0.16169129312038422,0.06543666124343872,0.0,0.0,0.0,0.0,0.0,0.0,0.0,0.0,0.0,-0.006699933670461178,0.013590328395366669,0.06989119946956635,0.0,0.0,0.0,0.0,0.0,0.0,0.0,0.0,0.0
1606987949057359635,1601954,1606984347910615257,imu_link,-0.0009075213456526399,-0.0012220791541039944,0.2514704465866089,-0.9678637981414795,0.0,0.0,0.0,0.0,0.0,0.0,0.0,0.0,0.0,-29.129026412963867,0.16169129312038422,0.06543666124343872,0.0,0.0,0.0,0.0,0.0,0.0,0.0,0.0,0.0,-0.006699933670461178,0.013590328395366669,0.06989119946956635,0.0,0.0,0.0,0.0,0.0,0.0,0.0,0.0,0.0
1606987949057369215,1601955,1606984347910747189,imu_link,-0.0009063134784810245,-0.001221854705363512,0.2514707148075104,-0.9678637385368347,0.0,0.0,0.0,0.0,0.0,0.0,0.0,0.0,0.0,-29.129058837890625,0.16163161396980286,0.06530912220478058,0.0,0.0,0.0,0.0,0.0,0.0,0.0,0.0,0.0,-0.006944933440536261,-0.0014928656164556742,0.07459412515163422,0.0,0.0,0.0,0.0,0.0,0.0,0.0,0.0,0.0
1606987949057414764,1601956,1606984347910876809,imu_link,-0.0009063134784810245,-0.001221854705363512,0.2514707148075104,-0.9678637385368347,0.0,0.0,0.0,0.0,0.0,0.0,0.0,0.0,0.0,-29.129058837890625,0.16163161396980286,0.06530912220478058,0.0,0.0,0.0,0.0,0.0,0.0,0.0,0.0,0.0,-0.006944933440536261,-0.0014928656164556742,0.07459412515163422,0.0,0.0,0.0,0.0,0.0,0.0,0.0,0.0,0.0
1606987949062334922,1601957,1606984347922690710,imu_link,-0.000906960282009095,-0.0012227141996845603,0.25146934390068054,-0.9678640961647034,0.0,0.0,0.0,0.0,0.0,0.0,0.0,0.0,0.0,-29.128894805908203,0.16174548864364624,0.06535632163286209,0.0,0.0,0.0,0.0,0.0,0.0,0.0,0.0,0.0,0.0028918248135596514,-0.01922929659485817,0.06703652441501617,0.0,0.0,0.0,0.0,0.0,0.0,0.0,0.0,0.0
1606987949062359537,1601958,1606984347922803510,imu_link,-0.000906960282009095,-0.0012227141996845603,0.25146934390068054,-0.9678640961647034,0.0,0.0,0.0,0.0,0.0,0.0,0.0,0.0,0.0,-29.128894805908203,0.16174548864364624,0.06535632163286209,0.0,0.0,0.0,0.0,0.0,0.0,0.0,0.0,0.0,0.0028918248135596514,-0.01922929659485817,0.06703652441501617,0.0,0.0,0.0,0.0,0.0,0.0,0.0,0.0,0.0
1606987949062383846,1601959,1606984347922899375,imu_link,-0.0009110714308917522,-0.0012230281718075275,0.2514721751213074,-0.9678633809089661,0.0,0.0,0.0,0.0,0.0,0.0,0.0,0.0,0.0,-29.129228591918945,0.16189897060394287,0.06580276787281036,0.0,0.0,0.0,0.0,0.0,0.0,0.0,0.0,0.0,-0.003536430187523365,-0.003744498360902071,0.037457674741744995,0.0,0.0,0.0,0.0,0.0,0.0,0.0,0.0,0.0
1606987949062454382,1601960,1606984347923004699,imu_link,-0.0009110714308917522,-0.0012230281718075275,0.2514721751213074,-0.9678633809089661,0.0,0.0,0.0,0.0,0.0,0.0,0.0,0.0,0.0,-29.129228591918945,0.16189897060394287,0.06580276787281036,0.0,0.0,0.0,0.0,0.0,0.0,0.0,0.0,0.0,-0.003536430187523365,-0.003744498360902071,0.037457674741744995,0.0,0.0,0.0,0.0,0.0,0.0,0.0,0.0,0.0
1606987949062466268,1601961,1606984347923072456,imu_link,-0.0009095488931052387,-0.0012233160668984056,0.25147244334220886,-0.9678632616996765,0.0,0.0,0.0,0.0,0.0,0.0,0.0,0.0,0.0,-29.12925910949707,0.1618870496749878,0.06562557071447372,0.0,0.0,0.0,0.0,0.0,0.0,0.0,0.0,0.0,-0.012610807083547115,0.0171969011425972,0.03495040163397789,0.0,0.0,0.0,0.0,0.0,0.0,0.0,0.0,0.0
1606987949069389209,1601962,1606984347923184749,imu_link,-0.0009095488931052387,-0.0012233160668984056,0.25147244334220886,-0.9678632616996765,0.0,0.0,0.0,0.0,0.0,0.0,0.0,0.0,0.0,-29.12925910949707,0.1618870496749878,0.06562557071447372,0.0,0.0,0.0,0.0,0.0,0.0,0.0,0.0,0.0,-0.012610807083547115,0.0171969011425972,0.03495040163397789,0.0,0.0,0.0,0.0,0.0,0.0,0.0,0.0,0.0
1606987949069432004,1601963,1606984347923265940,imu_link,-0.0009048777865245938,-0.001220328384079039,0.251468688249588,-0.9678642749786377,0.0,0.0,0.0,0.0,0.0,0.0,0.0,0.0,0.0,-29.128814697265625,0.1614208221435547,0.06519420444965363,0.0,0.0,0.0,0.0,0.0,0.0,0.0,0.0,0.0,-0.0028338807169348,0.008020628243684769,0.050721462815999985,0.0,0.0,0.0,0.0,0.0,0.0,0.0,0.0,0.0
1606987949069506551,1601964,1606984347923328627,imu_link,-0.0009048777865245938,-0.001220328384079039,0.251468688249588,-0.9678642749786377,0.0,0.0,0.0,0.0,0.0,0.0,0.0,0.0,0.0,-29.128814697265625,0.1614208221435547,0.06519420444965363,0.0,0.0,0.0,0.0,0.0,0.0,0.0,0.0,0.0,-0.0028338807169348,0.008020628243684769,0.050721462815999985,0.0,0.0,0.0,0.0,0.0,0.0,0.0,0.0,0.0
1606987949069515615,1601965,1606984347923386604,imu_link,-0.0009059344884008169,-0.0012202960206195712,0.2514708936214447,-0.9678636789321899,0.0,0.0,0.0,0.0,0.0,0.0,0.0,0.0,0.0,-29.129077911376953,0.16144783794879913,0.0653119757771492,0.0,0.0,0.0,0.0,0.0,0.0,0.0,0.0,0.0,-0.00242586899548769,-0.005676776170730591,0.05893316492438316,0.0,0.0,0.0,0.0,0.0,0.0,0.0,0.0,0.0
1606987949077489641,1601966,1606984347923448851,imu_link,-0.0009059344884008169,-0.0012202960206195712,0.2514708936214447,-0.9678636789321899,0.0,0.0,0.0,0.0,0.0,0.0,0.0,0.0,0.0,-29.129077911376953,0.16144783794879913,0.0653119757771492,0.0,0.0,0.0,0.0,0.0,0.0,0.0,0.0,0.0,-0.00242586899548769,-0.005676776170730591,0.05893316492438316,0.0,0.0,0.0,0.0,0.0,0.0,0.0,0.0,0.0
1606987949077521572,1601967,1606984347923507554,imu_link,-0.0009057031129486859,-0.0012199245393276215,0.2514684200286865,-0.9678643345832825,0.0,0.0,0.0,0.0,0.0,0.0,0.0,0.0,0.0,-29.1287841796875,0.16139979660511017,0.0652974396944046,0.0,0.0,0.0,0.0,0.0,0.0,0.0,0.0,0.0,-0.007353057619184256,-0.012750005349516869,0.054018761962652206,0.0,0.0,0.0,0.0,0.0,0.0,0.0,0.0,0.0
1606987949077551627,1601968,1606984347936518158,imu_link,-0.0009057031129486859,-0.0012199245393276215,0.2514684200286865,-0.9678643345832825,0.0,0.0,0.0,0.0,0.0,0.0,0.0,0.0,0.0,-29.1287841796875,0.16139979660511017,0.0652974396944046,0.0,0.0,0.0,0.0,0.0,0.0,0.0,0.0,0.0,-0.007353057619184256,-0.012750005349516869,0.054018761962652206,0.0,0.0,0.0,0.0,0.0,0.0,0.0,0.0,0.0
1606987949077642922,1601969,1606984347936621296,imu_link,-0.0009061364689841866,-0.0012190421111881733,0.2514682710170746,-0.9678643941879272,0.0,0.0,0.0,0.0,0.0,0.0,0.0,0.0,0.0,-29.128767013549805,0.16131441295146942,0.06537093967199326,0.0,0.0,0.0,0.0,0.0,0.0,0.0,0.0,0.0,0.003629355924203992,-0.002589736832305789,0.05098921060562134,0.0,0.0,0.0,0.0,0.0,0.0,0.0,0.0,0.0
1606987949077665638,1601970,1606984347936697814,imu_link,-0.0009061364689841866,-0.0012190421111881733,0.2514682710170746,-0.9678643941879272,0.0,0.0,0.0,0.0,0.0,0.0,0.0,0.0,0.0,-29.128767013549805,0.16131441295146942,0.06537093967199326,0.0,0.0,0.0,0.0,0.0,0.0,0.0,0.0,0.0,0.003629355924203992,-0.002589736832305789,0.05098921060562134,0.0,0.0,0.0,0.0,0.0,0.0,0.0,0.0,0.0
1606987949175358199,1601971,1606984347936770071,imu_link,-0.0009076116839423776,-0.0012186518870294094,0.2514703571796417,-0.9678638577461243,0.0,0.0,0.0,0.0,0.0,0.0,0.0,0.0,0.0,-29.129013061523438,0.16131378710269928,0.0655454620718956,0.0,0.0,0.0,0.0,0.0,0.0,0.0,0.0,0.0,0.010672257281839848,0.0010443388018757105,0.041528187692165375,0.0,0.0,0.0,0.0,0.0,0.0,0.0,0.0,0.0
1606987949175380256,1601972,1606984347936842956,imu_link,-0.0009076116839423776,-0.0012186518870294094,0.2514703571796417,-0.9678638577461243,0.0,0.0,0.0,0.0,0.0,0.0,0.0,0.0,0.0,-29.129013061523438,0.16131378710269928,0.0655454620718956,0.0,0.0,0.0,0.0,0.0,0.0,0.0,0.0,0.0,0.010672257281839848,0.0010443388018757105,0.041528187692165375,0.0,0.0,0.0,0.0,0.0,0.0,0.0,0.0,0.0
1606987949175398502,1601973,1606984347936914266,imu_link,-0.0009075110428966582,-0.0012170122936367989,0.2514708936214447,-0.9678636789321899,0.0,0.0,0.0,0.0,0.0,0.0,0.0,0.0,0.0,-29.129077911376953,0.16112905740737915,0.06558144837617874,0.0,0.0,0.0,0.0,0.0,0.0,0.0,0.0,0.0,0.01137819979339838,0.012987414374947548,0.050695620477199554,0.0,0.0,0.0,0.0,0.0,0.0,0.0,0.0,0.0
1606987949175415311,1601974,1606984347937003517,imu_link,-0.0009075110428966582,-0.0012170122936367989,0.2514708936214447,-0.9678636789321899,0.0,0.0,0.0,0.0,0.0,0.0,0.0,0.0,0.0,-29.129077911376953,0.16112905740737915,0.06558144837617874,0.0,0.0,0.0,0.0,0.0,0.0,0.0,0.0,0.0,0.01137819979339838,0.012987414374947548,0.050695620477199554,0.0,0.0,0.0,0.0,0.0,0.0,0.0,0.0,0.0
1606987949180596100,1601975,1606984347937078130,imu_link,-0.0009074863628484309,-0.0012199250049889088,0.2514727711677551,-0.9678632020950317,0.0,0.0,0.0,0.0,0.0,0.0,0.0,0.0,0.0,-29.129301071166992,0.1614515334367752,0.06549447029829025,0.0,0.0,0.0,0.0,0.0,0.0,0.0,0.0,0.0,0.0053381468169391155,-0.004382922314107418,0.05912715196609497,0.0,0.0,0.0,0.0,0.0,0.0,0.0,0.0,0.0
1606987949180624219,1601976,1606984347937195224,imu_link,-0.0009074863628484309,-0.0012199250049889088,0.2514727711677551,-0.9678632020950317,0.0,0.0,0.0,0.0,0.0,0.0,0.0,0.0,0.0,-29.129301071166992,0.1614515334367752,0.06549447029829025,0.0,0.0,0.0,0.0,0.0,0.0,0.0,0.0,0.0,0.0053381468169391155,-0.004382922314107418,0.05912715196609497,0.0,0.0,0.0,0.0,0.0,0.0,0.0,0.0,0.0
1606987949180696320,1601977,1606984347937271092,imu_link,-0.0009064102778211236,-0.0012188346590846777,0.2514759302139282,-0.9678623676300049,0.0,0.0,0.0,0.0,0.0,0.0,0.0,0.0,0.0,-29.129676818847656,0.16129980981349945,0.06540601700544357,0.0,0.0,0.0,0.0,0.0,0.0,0.0,0.0,0.0,-0.007905682548880577,-0.02475498616695404,0.03362318128347397,0.0,0.0,0.0,0.0,0.0,0.0,0.0,0.0,0.0
1606987949180713925,1601978,1606984347937347701,imu_link,-0.0009064102778211236,-0.0012188346590846777,0.2514759302139282,-0.9678623676300049,0.0,0.0,0.0,0.0,0.0,0.0,0.0,0.0,0.0,-29.129676818847656,0.16129980981349945,0.06540601700544357,0.0,0.0,0.0,0.0,0.0,0.0,0.0,0.0,0.0,-0.007905682548880577,-0.02475498616695404,0.03362318128347397,0.0,0.0,0.0,0.0,0.0,0.0,0.0,0.0,0.0
1606987949195718788,1601979,1606984347950015338,imu_link,-0.0009084620396606624,-0.0012148519745096564,0.25147366523742676,-0.9678629636764526,0.0,0.0,0.0,0.0,0.0,0.0,0.0,0.0,0.0,-29.129405975341797,0.16091705858707428,0.06574872136116028,0.0,0.0,0.0,0.0,0.0,0.0,0.0,0.0,0.0,0.0010776679264381528,-0.002636759541928768,0.014018453657627106,0.0,0.0,0.0,0.0,0.0,0.0,0.0,0.0,0.0
1606987949195768057,1601980,1606984347950144789,imu_link,-0.0009084620396606624,-0.0012148519745096564,0.25147366523742676,-0.9678629636764526,0.0,0.0,0.0,0.0,0.0,0.0,0.0,0.0,0.0,-29.129405975341797,0.16091705858707428,0.06574872136116028,0.0,0.0,0.0,0.0,0.0,0.0,0.0,0.0,0.0,0.0010776679264381528,-0.002636759541928768,0.014018453657627106,0.0,0.0,0.0,0.0,0.0,0.0,0.0,0.0,0.0
1606987949195784176,1601981,1606984347950282307,imu_link,-0.0009086150676012039,-0.0012153118150308728,0.2514741122722626,-0.9678628444671631,0.0,0.0,0.0,0.0,0.0,0.0,0.0,0.0,0.0,-29.12946128845215,0.1609725058078766,0.06575236469507217,0.0,0.0,0.0,0.0,0.0,0.0,0.0,0.0,0.0,0.0036555067636072636,0.009819510392844677,0.025000641122460365,0.0,0.0,0.0,0.0,0.0,0.0,0.0,0.0,0.0
1606987949195819588,1601982,1606984347950370079,imu_link,-0.0009086150676012039,-0.0012153118150308728,0.2514741122722626,-0.9678628444671631,0.0,0.0,0.0,0.0,0.0,0.0,0.0,0.0,0.0,-29.12946128845215,0.1609725058078766,0.06575236469507217,0.0,0.0,0.0,0.0,0.0,0.0,0.0,0.0,0.0,0.0036555067636072636,0.009819510392844677,0.025000641122460365,0.0,0.0,0.0,0.0,0.0,0.0,0.0,0.0,0.0
1606987949195828621,1601983,1606984347950441381,imu_link,-0.0009063486359082162,-0.001218849210999906,0.2514708638191223,-0.9678636789321899,0.0,0.0,0.0,0.0,0.0,0.0,0.0,0.0,0.0,-29.129074096679688,0.16129930317401886,0.06539960205554962,0.0,0.0,0.0,0.0,0.0,0.0,0.0,0.0,0.0,-0.003240840043872595,0.011251377873122692,0.03276074305176735,0.0,0.0,0.0,0.0,0.0,0.0,0.0,0.0,0.0
1606987949201836861,1601984,1606984347950531969,imu_link,-0.0009063486359082162,-0.001218849210999906,0.2514708638191223,-0.9678636789321899,0.0,0.0,0.0,0.0,0.0,0.0,0.0,0.0,0.0,-29.129074096679688,0.16129930317401886,0.06539960205554962,0.0,0.0,0.0,0.0,0.0,0.0,0.0,0.0,0.0,-0.003240840043872595,0.011251377873122692,0.03276074305176735,0.0,0.0,0.0,0.0,0.0,0.0,0.0,0.0,0.0
1606987949201871575,1601985,1606984347950606426,imu_link,-0.000907587178517133,-0.001218289602547884,0.251468300819397,-0.9678643345832825,0.0,0.0,0.0,0.0,0.0,0.0,0.0,0.0,0.0,-29.12877082824707,0.16127274930477142,0.06555352360010147,0.0,0.0,0.0,0.0,0.0,0.0,0.0,0.0,0.0,0.013495058752596378,-0.008873967453837395,0.04517621546983719,0.0,0.0,0.0,0.0,0.0,0.0,0.0,0.0,0.0
1606987949201956842,1601986,1606984347950678717,imu_link,-0.000907587178517133,-0.001218289602547884,0.251468300819397,-0.9678643345832825,0.0,0.0,0.0,0.0,0.0,0.0,0.0,0.0,0.0,-29.12877082824707,0.16127274930477142,0.06555352360010147,0.0,0.0,0.0,0.0,0.0,0.0,0.0,0.0,0.0,0.013495058752596378,-0.008873967453837395,0.04517621546983719,0.0,0.0,0.0,0.0,0.0,0.0,0.0,0.0,0.0
1606987949201986614,1601987,1606984347950751433,imu_link,-0.0009113511769101024,-0.001220641192048788,0.25146186351776123,-0.9678660035133362,0.0,0.0,0.0,0.0,0.0,0.0,0.0,0.0,0.0,-29.128009796142578,0.16164159774780273,0.06590429693460464,0.0,0.0,0.0,0.0,0.0,0.0,0.0,0.0,0.0,0.030257120728492737,-0.009569935500621796,0.05171327665448189,0.0,0.0,0.0,0.0,0.0,0.0,0.0,0.0,0.0
1606987949240766625,1601988,1606984347950825060,imu_link,-0.0009113511769101024,-0.001220641192048788,0.25146186351776123,-0.9678660035133362,0.0,0.0,0.0,0.0,0.0,0.0,0.0,0.0,0.0,-29.128009796142578,0.16164159774780273,0.06590429693460464,0.0,0.0,0.0,0.0,0.0,0.0,0.0,0.0,0.0,0.030257120728492737,-0.009569935500621796,0.05171327665448189,0.0,0.0,0.0,0.0,0.0,0.0,0.0,0.0,0.0
1606987949240784673,1601989,1606984347950897909,imu_link,-0.000908812799025327,-0.0012212391011416912,0.2514612078666687,-0.9678661823272705,0.0,0.0,0.0,0.0,0.0,0.0,0.0,0.0,0.0,-29.127931594848633,0.16163472831249237,0.06560565531253815,0.0,0.0,0.0,0.0,0.0,0.0,0.0,0.0,0.0,0.02834460325539112,0.010223518125712872,0.056825488805770874,0.0,0.0,0.0,0.0,0.0,0.0,0.0,0.0,0.0
1606987949240819601,1601990,1606984347962857540,imu_link,-0.000908812799025327,-0.0012212391011416912,0.2514612078666687,-0.9678661823272705,0.0,0.0,0.0,0.0,0.0,0.0,0.0,0.0,0.0,-29.127931594848633,0.16163472831249237,0.06560565531253815,0.0,0.0,0.0,0.0,0.0,0.0,0.0,0.0,0.0,0.02834460325539112,0.010223518125712872,0.056825488805770874,0.0,0.0,0.0,0.0,0.0,0.0,0.0,0.0,0.0
1606987949240832959,1601991,1606984347963028785,imu_link,-0.0009094630950130522,-0.0012259838404133916,0.2514559328556061,-0.9678675532341003,0.0,0.0,0.0,0.0,0.0,0.0,0.0,0.0,0.0,-29.12730598449707,0.16217932105064392,0.06554194539785385,0.0,0.0,0.0,0.0,0.0,0.0,0.0,0.0,0.0,0.019180577248334885,0.010567307472229004,0.05165339261293411,0.0,0.0,0.0,0.0,0.0,0.0,0.0,0.0,0.0
1606987949240845490,1601992,1606984347963172370,imu_link,-0.0009094630950130522,-0.0012259838404133916,0.2514559328556061,-0.9678675532341003,0.0,0.0,0.0,0.0,0.0,0.0,0.0,0.0,0.0,-29.12730598449707,0.16217932105064392,0.06554194539785385,0.0,0.0,0.0,0.0,0.0,0.0,0.0,0.0,0.0,0.019180577248334885,0.010567307472229004,0.05165339261293411,0.0,0.0,0.0,0.0,0.0,0.0,0.0,0.0,0.0
1606987949247853584,1601993,1606984347963308428,imu_link,-0.0009107696823775768,-0.0012278027134016156,0.2514543831348419,-0.9678679704666138,0.0,0.0,0.0,0.0,0.0,0.0,0.0,0.0,0.0,-29.127120971679688,0.16241860389709473,0.06563469767570496,0.0,0.0,0.0,0.0,0.0,0.0,0.0,0.0,0.0,0.011601950973272324,0.009593051858246326,0.03964725509285927,0.0,0.0,0.0,0.0,0.0,0.0,0.0,0.0,0.0
1606987949247874788,1601994,1606984347963444494,imu_link,-0.0009107696823775768,-0.0012278027134016156,0.2514543831348419,-0.9678679704666138,0.0,0.0,0.0,0.0,0.0,0.0,0.0,0.0,0.0,-29.127120971679688,0.16241860389709473,0.06563469767570496,0.0,0.0,0.0,0.0,0.0,0.0,0.0,0.0,0.0,0.011601950973272324,0.009593051858246326,0.03964725509285927,0.0,0.0,0.0,0.0,0.0,0.0,0.0,0.0,0.0
1606987949247885999,1601995,1606984347963584952,imu_link,-0.0009097177535295486,-0.0012298882938921452,0.2514570653438568,-0.9678672552108765,0.0,0.0,0.0,0.0,0.0,0.0,0.0,0.0,0.0,-29.127439498901367,0.16261978447437286,0.06545748561620712,0.0,0.0,0.0,0.0,0.0,0.0,0.0,0.0,0.0,-0.0024849367327988148,0.007424711715430021,0.06464579701423645,0.0,0.0,0.0,0.0,0.0,0.0,0.0,0.0,0.0
1606987949247892057,1601996,1606984347963670894,imu_link,-0.0009097177535295486,-0.0012298882938921452,0.2514570653438568,-0.9678672552108765,0.0,0.0,0.0,0.0,0.0,0.0,0.0,0.0,0.0,-29.127439498901367,0.16261978447437286,0.06545748561620712,0.0,0.0,0.0,0.0,0.0,0.0,0.0,0.0,0.0,-0.0024849367327988148,0.007424711715430021,0.06464579701423645,0.0,0.0,0.0,0.0,0.0,0.0,0.0,0.0,0.0
1606987949263788086,1601997,1606984347963743215,imu_link,-0.0009095018031075597,-0.001230203197337687,0.25145605206489563,-0.9678675532341003,0.0,0.0,0.0,0.0,0.0,0.0,0.0,0.0,0.0,-29.127323150634766,0.16264843940734863,0.06542462855577469,0.0,0.0,0.0,0.0,0.0,0.0,0.0,0.0,0.0,-0.0027879788540303707,-0.006174493581056595,0.07285543531179428,0.0,0.0,0.0,0.0,0.0,0.0,0.0,0.0,0.0
1606987949263831636,1601998,1606984347963818528,imu_link,-0.0009095018031075597,-0.001230203197337687,0.25145605206489563,-0.9678675532341003,0.0,0.0,0.0,0.0,0.0,0.0,0.0,0.0,0.0,-29.127323150634766,0.16264843940734863,0.06542462855577469,0.0,0.0,0.0,0.0,0.0,0.0,0.0,0.0,0.0,-0.0027879788540303707,-0.006174493581056595,0.07285543531179428,0.0,0.0,0.0,0.0,0.0,0.0,0.0,0.0,0.0
1606987949263843050,1601999,1606984347963888610,imu_link,-0.0009115908178500831,-0.0012293881736695766,0.25145918130874634,-0.9678667187690735,0.0,0.0,0.0,0.0,0.0,0.0,0.0,0.0,0.0,-29.127689361572266,0.16261844336986542,0.06567928194999695,0.0,0.0,0.0,0.0,0.0,0.0,0.0,0.0,0.0,-0.00410620728507638,-0.016586191952228546,0.06263258308172226,0.0,0.0,0.0,0.0,0.0,0.0,0.0,0.0,0.0
1606987949263859434,1602000,1606984347976821868,imu_link,-0.0009115908178500831,-0.0012293881736695766,0.25145918130874634,-0.9678667187690735,0.0,0.0,0.0,0.0,0.0,0.0,0.0,0.0,0.0,-29.127689361572266,0.16261844336986542,0.06567928194999695,0.0,0.0,0.0,0.0,0.0,0.0,0.0,0.0,0.0,-0.00410620728507638,-0.016586191952228546,0.06263258308172226,0.0,0.0,0.0,0.0,0.0,0.0,0.0,0.0,0.0
1606987949263871588,1602001,1606984347976965315,imu_link,-0.000908992369659245,-0.0012288737343624234,0.25145795941352844,-0.9678670167922974,0.0,0.0,0.0,0.0,0.0,0.0,0.0,0.0,0.0,-29.127544403076172,0.16248641908168793,0.06540611386299133,0.0,0.0,0.0,0.0,0.0,0.0,0.0,0.0,0.0,-0.009772468358278275,-0.01835143193602562,0.053670093417167664,0.0,0.0,0.0,0.0,0.0,0.0,0.0,0.0,0.0
1606987949269202588,1602002,1606984347977106783,imu_link,-0.000908992369659245,-0.0012288737343624234,0.25145795941352844,-0.9678670167922974,0.0,0.0,0.0,0.0,0.0,0.0,0.0,0.0,0.0,-29.127544403076172,0.16248641908168793,0.06540611386299133,0.0,0.0,0.0,0.0,0.0,0.0,0.0,0.0,0.0,-0.009772468358278275,-0.01835143193602562,0.053670093417167664,0.0,0.0,0.0,0.0,0.0,0.0,0.0,0.0,0.0
1606987949269225616,1602003,1606984347977203236,imu_link,-0.0009111892431974411,-0.0012270987499505281,0.2514614760875702,-0.9678661227226257,0.0,0.0,0.0,0.0,0.0,0.0,0.0,0.0,0.0,-29.127962112426758,0.16235311329364777,0.06570032984018326,0.0,0.0,0.0,0.0,0.0,0.0,0.0,0.0,0.0,-0.002711202949285507,-0.012346222996711731,0.03443523123860359,0.0,0.0,0.0,0.0,0.0,0.0,0.0,0.0,0.0
1606987949269257189,1602004,1606984347977286754,imu_link,-0.0009111892431974411,-0.0012270987499505281,0.2514614760875702,-0.9678661227226257,0.0,0.0,0.0,0.0,0.0,0.0,0.0,0.0,0.0,-29.127962112426758,0.16235311329364777,0.06570032984018326,0.0,0.0,0.0,0.0,0.0,0.0,0.0,0.0,0.0,-0.002711202949285507,-0.012346222996711731,0.03443523123860359,0.0,0.0,0.0,0.0,0.0,0.0,0.0,0.0,0.0
1606987949269282605,1602005,1606984347977368644,imu_link,-0.0009120671893469989,-0.0012280228547751904,0.25146129727363586,-0.9678661823272705,0.0,0.0,0.0,0.0,0.0,0.0,0.0,0.0,0.0,-29.127941131591797,0.16248087584972382,0.06577109545469284,0.0,0.0,0.0,0.0,0.0,0.0,0.0,0.0,0.0,0.003961456939578056,-0.008447738364338875,0.030178165063261986,0.0,0.0,0.0,0.0,0.0,0.0,0.0,0.0,0.0
1606987949368148894,1602006,1606984347977468986,imu_link,-0.0009120671893469989,-0.0012280228547751904,0.25146129727363586,-0.9678661823272705,0.0,0.0,0.0,0.0,0.0,0.0,0.0,0.0,0.0,-29.127941131591797,0.16248087584972382,0.06577109545469284,0.0,0.0,0.0,0.0,0.0,0.0,0.0,0.0,0.0,0.003961456939578056,-0.008447738364338875,0.030178165063261986,0.0,0.0,0.0,0.0,0.0,0.0,0.0,0.0,0.0
1606987949368180780,1602007,1606984347977551953,imu_link,-0.000914375705178827,-0.00122907105833292,0.25146159529685974,-0.9678661227226257,0.0,0.0,0.0,0.0,0.0,0.0,0.0,0.0,0.0,-29.127975463867188,0.16266368329524994,0.06599688529968262,0.0,0.0,0.0,0.0,0.0,0.0,0.0,0.0,0.0,-0.0026826688554137945,-0.012466058135032654,0.048713985830545425,0.0,0.0,0.0,0.0,0.0,0.0,0.0,0.0,0.0
1606987949368210411,1602008,1606984347977632459,imu_link,-0.000914375705178827,-0.00122907105833292,0.25146159529685974,-0.9678661227226257,0.0,0.0,0.0,0.0,0.0,0.0,0.0,0.0,0.0,-29.127975463867188,0.16266368329524994,0.06599688529968262,0.0,0.0,0.0,0.0,0.0,0.0,0.0,0.0,0.0,-0.0026826688554137945,-0.012466058135032654,0.048713985830545425,0.0,0.0,0.0,0.0,0.0,0.0,0.0,0.0,0.0
1606987949368221406,1602009,1606984347977713427,imu_link,-0.000913873256649822,-0.001228384324349463,0.25146254897117615,-0.9678658843040466,0.0,0.0,0.0,0.0,0.0,0.0,0.0,0.0,0.0,-29.128087997436523,0.16257309913635254,0.06596077978610992,0.0,0.0,0.0,0.0,0.0,0.0,0.0,0.0,0.0,0.002364127431064844,-0.01587628573179245,0.04747718572616577,0.0,0.0,0.0,0.0,0.0,0.0,0.0,0.0,0.0
1606987949368238370,1602010,1606984347977796394,imu_link,-0.000913873256649822,-0.001228384324349463,0.25146254897117615,-0.9678658843040466,0.0,0.0,0.0,0.0,0.0,0.0,0.0,0.0,0.0,-29.128087997436523,0.16257309913635254,0.06596077978610992,0.0,0.0,0.0,0.0,0.0,0.0,0.0,0.0,0.0,0.002364127431064844,-0.01587628573179245,0.04747718572616577,0.0,0.0,0.0,0.0,0.0,0.0,0.0,0.0,0.0
1606987949372643102,1602011,1606984347990343567,imu_link,-0.0009161554044112563,-0.0012307855067774653,0.25146061182022095,-0.9678663015365601,0.0,0.0,0.0,0.0,0.0,0.0,0.0,0.0,0.0,-29.127859115600586,0.1629050374031067,0.06614503264427185,0.0,0.0,0.0,0.0,0.0,0.0,0.0,0.0,0.0,0.021625228226184845,-0.01586461253464222,0.0433129221200943,0.0,0.0,0.0,0.0,0.0,0.0,0.0,0.0,0.0
1606987949372669057,1602012,1606984347990488557,imu_link,-0.0009161554044112563,-0.0012307855067774653,0.25146061182022095,-0.9678663015365601,0.0,0.0,0.0,0.0,0.0,0.0,0.0,0.0,0.0,-29.127859115600586,0.1629050374031067,0.06614503264427185,0.0,0.0,0.0,0.0,0.0,0.0,0.0,0.0,0.0,0.021625228226184845,-0.01586461253464222,0.0433129221200943,0.0,0.0,0.0,0.0,0.0,0.0,0.0,0.0,0.0
1606987949372688199,1602013,1606984347990590252,imu_link,-0.0009164033690467477,-0.0012325344141572714,0.2514602541923523,-0.9678664207458496,0.0,0.0,0.0,0.0,0.0,0.0,0.0,0.0,0.0,-29.12781524658203,0.16310612857341766,0.06612220406532288,0.0,0.0,0.0,0.0,0.0,0.0,0.0,0.0,0.0,0.016757365316152573,-0.019092751666903496,0.042923301458358765,0.0,0.0,0.0,0.0,0.0,0.0,0.0,0.0,0.0
1606987949372701472,1602014,1606984347990677580,imu_link,-0.0009164033690467477,-0.0012325344141572714,0.2514602541923523,-0.9678664207458496,0.0,0.0,0.0,0.0,0.0,0.0,0.0,0.0,0.0,-29.12781524658203,0.16310612857341766,0.06612220406532288,0.0,0.0,0.0,0.0,0.0,0.0,0.0,0.0,0.0,0.016757365316152573,-0.019092751666903496,0.042923301458358765,0.0,0.0,0.0,0.0,0.0,0.0,0.0,0.0,0.0
1606987949385550419,1602015,1606984347990774900,imu_link,-0.0009233076707459986,-0.0012335111387073994,0.25145968794822693,-0.9678665995597839,0.0,0.0,0.0,0.0,0.0,0.0,0.0,0.0,0.0,-29.127750396728516,0.1634133905172348,0.0668599009513855,0.0,0.0,0.0,0.0,0.0,0.0,0.0,0.0,0.0,-0.0042468407191336155,-0.007319641299545765,0.027057068422436714,0.0,0.0,0.0,0.0,0.0,0.0,0.0,0.0,0.0
1606987949385611112,1602016,1606984347990861515,imu_link,-0.0009233076707459986,-0.0012335111387073994,0.25145968794822693,-0.9678665995597839,0.0,0.0,0.0,0.0,0.0,0.0,0.0,0.0,0.0,-29.127750396728516,0.1634133905172348,0.0668599009513855,0.0,0.0,0.0,0.0,0.0,0.0,0.0,0.0,0.0,-0.0042468407191336155,-0.007319641299545765,0.027057068422436714,0.0,0.0,0.0,0.0,0.0,0.0,0.0,0.0,0.0
1606987949385626933,1602017,1606984347991007117,imu_link,-0.0009231175063177943,-0.0012347159208729863,0.2514602839946747,-0.9678664207458496,0.0,0.0,0.0,0.0,0.0,0.0,0.0,0.0,0.0,-29.12782096862793,0.16354155540466309,0.06680399924516678,0.0,0.0,0.0,0.0,0.0,0.0,0.0,0.0,0.0,-0.013762413524091244,-0.000557547842618078,0.03649776056408882,0.0,0.0,0.0,0.0,0.0,0.0,0.0,0.0,0.0
1606987949385640174,1602018,1606984347991093422,imu_link,-0.0009231175063177943,-0.0012347159208729863,0.2514602839946747,-0.9678664207458496,0.0,0.0,0.0,0.0,0.0,0.0,0.0,0.0,0.0,-29.12782096862793,0.16354155540466309,0.06680399924516678,0.0,0.0,0.0,0.0,0.0,0.0,0.0,0.0,0.0,-0.013762413524091244,-0.000557547842618078,0.03649776056408882,0.0,0.0,0.0,0.0,0.0,0.0,0.0,0.0,0.0
1606987949385648373,1602019,1606984347991191945,imu_link,-0.000922403356526047,-0.001230514608323574,0.25145775079727173,-0.9678670763969421,0.0,0.0,0.0,0.0,0.0,0.0,0.0,0.0,0.0,-29.127521514892578,0.16305482387542725,0.06684627383947372,0.0,0.0,0.0,0.0,0.0,0.0,0.0,0.0,0.0,-0.0026938272640109062,-0.003511941060423851,0.056415122002363205,0.0,0.0,0.0,0.0,0.0,0.0,0.0,0.0,0.0
1606987949388958359,1602020,1606984347991272737,imu_link,-0.000922403356526047,-0.001230514608323574,0.25145775079727173,-0.9678670763969421,0.0,0.0,0.0,0.0,0.0,0.0,0.0,0.0,0.0,-29.127521514892578,0.16305482387542725,0.06684627383947372,0.0,0.0,0.0,0.0,0.0,0.0,0.0,0.0,0.0,-0.0026938272640109062,-0.003511941060423851,0.056415122002363205,0.0,0.0,0.0,0.0,0.0,0.0,0.0,0.0,0.0
1606987949388987652,1602021,1606984347991364640,imu_link,-0.0009251342271454632,-0.0012312582693994045,0.25145766139030457,-0.9678670763969421,0.0,0.0,0.0,0.0,0.0,0.0,0.0,0.0,0.0,-29.12751007080078,0.1632159948348999,0.06712773442268372,0.0,0.0,0.0,0.0,0.0,0.0,0.0,0.0,0.0,-0.005881151650100946,0.008168056607246399,0.055570296943187714,0.0,0.0,0.0,0.0,0.0,0.0,0.0,0.0,0.0
1606987949388999620,1602022,1606984348004006547,imu_link,-0.0009251342271454632,-0.0012312582693994045,0.25145766139030457,-0.9678670763969421,0.0,0.0,0.0,0.0,0.0,0.0,0.0,0.0,0.0,-29.12751007080078,0.1632159948348999,0.06712773442268372,0.0,0.0,0.0,0.0,0.0,0.0,0.0,0.0,0.0,-0.005881151650100946,0.008168056607246399,0.055570296943187714,0.0,0.0,0.0,0.0,0.0,0.0,0.0,0.0,0.0
1606987949389020939,1602023,1606984348004210935,imu_link,-0.0009232008014805615,-0.0012305789859965444,0.2514544725418091,-0.967867910861969,0.0,0.0,0.0,0.0,0.0,0.0,0.0,0.0,0.0,-29.127132415771484,0.1630847454071045,0.06693341583013535,0.0,0.0,0.0,0.0,0.0,0.0,0.0,0.0,0.0,-0.010034403763711452,0.0104359807446599,0.04666757583618164,0.0,0.0,0.0,0.0,0.0,0.0,0.0,0.0,0.0
1606987949435144273,1602024,1606984348004373255,imu_link,-0.0009232008014805615,-0.0012305789859965444,0.2514544725418091,-0.967867910861969,0.0,0.0,0.0,0.0,0.0,0.0,0.0,0.0,0.0,-29.127132415771484,0.1630847454071045,0.06693341583013535,0.0,0.0,0.0,0.0,0.0,0.0,0.0,0.0,0.0,-0.010034403763711452,0.0104359807446599,0.04666757583618164,0.0,0.0,0.0,0.0,0.0,0.0,0.0,0.0,0.0
1606987949435174243,1602025,1606984348004521799,imu_link,-0.0009215955506078899,-0.0012299086665734649,0.2514558434486389,-0.9678675532341003,0.0,0.0,0.0,0.0,0.0,0.0,0.0,0.0,0.0,-29.127296447753906,0.16296422481536865,0.06677446514368057,0.0,0.0,0.0,0.0,0.0,0.0,0.0,0.0,0.0,0.006388539914041758,0.003864473197609186,0.027183974161744118,0.0,0.0,0.0,0.0,0.0,0.0,0.0,0.0,0.0
1606987949435181548,1602026,1606984348004679434,imu_link,-0.0009215955506078899,-0.0012299086665734649,0.2514558434486389,-0.9678675532341003,0.0,0.0,0.0,0.0,0.0,0.0,0.0,0.0,0.0,-29.127296447753906,0.16296422481536865,0.06677446514368057,0.0,0.0,0.0,0.0,0.0,0.0,0.0,0.0,0.0,0.006388539914041758,0.003864473197609186,0.027183974161744118,0.0,0.0,0.0,0.0,0.0,0.0,0.0,0.0,0.0
1606987949435201933,1602027,1606984348004832423,imu_link,-0.0009208206902258098,-0.0012324422132223845,0.2514610290527344,-0.9678661823272705,0.0,0.0,0.0,0.0,0.0,0.0,0.0,0.0,0.0,-29.127910614013672,0.1632232517004013,0.06661465764045715,0.0,0.0,0.0,0.0,0.0,0.0,0.0,0.0,0.0,0.001165380235761404,0.008772964589297771,0.03238482400774956,0.0,0.0,0.0,0.0,0.0,0.0,0.0,0.0,0.0
1606987949435216124,1602028,1606984348005029399,imu_link,-0.0009208206902258098,-0.0012324422132223845,0.2514610290527344,-0.9678661823272705,0.0,0.0,0.0,0.0,0.0,0.0,0.0,0.0,0.0,-29.127910614013672,0.1632232517004013,0.06661465764045715,0.0,0.0,0.0,0.0,0.0,0.0,0.0,0.0,0.0,0.001165380235761404,0.008772964589297771,0.03238482400774956,0.0,0.0,0.0,0.0,0.0,0.0,0.0,0.0,0.0
1606987949437667964,1602029,1606984348005135094,imu_link,-0.0009209444397129118,-0.0012326713185757399,0.25146162509918213,-0.967866063117981,0.0,0.0,0.0,0.0,0.0,0.0,0.0,0.0,0.0,-29.127979278564453,0.16325227916240692,0.06662166863679886,0.0,0.0,0.0,0.0,0.0,0.0,0.0,0.0,0.0,-0.0005238587618805468,0.0011486450675874949,0.050172124058008194,0.0,0.0,0.0,0.0,0.0,0.0,0.0,0.0,0.0
1606987949437691987,1602030,1606984348005253347,imu_link,-0.0009209444397129118,-0.0012326713185757399,0.25146162509918213,-0.967866063117981,0.0,0.0,0.0,0.0,0.0,0.0,0.0,0.0,0.0,-29.127979278564453,0.16325227916240692,0.06662166863679886,0.0,0.0,0.0,0.0,0.0,0.0,0.0,0.0,0.0,-0.0005238587618805468,0.0011486450675874949,0.050172124058008194,0.0,0.0,0.0,0.0,0.0,0.0,0.0,0.0,0.0
1606987949437706442,1602031,1606984348005377419,imu_link,-0.0009212958975695074,-0.0012314293999224901,0.25146543979644775,-0.9678651094436646,0.0,0.0,0.0,0.0,0.0,0.0,0.0,0.0,0.0,-29.128429412841797,0.1631249189376831,0.06669578701257706,0.0,0.0,0.0,0.0,0.0,0.0,0.0,0.0,0.0,0.004987481515854597,-0.012234648689627647,0.03361891955137253,0.0,0.0,0.0,0.0,0.0,0.0,0.0,0.0,0.0
1606987949437716635,1602032,1606984348005499898,imu_link,-0.0009212958975695074,-0.0012314293999224901,0.25146543979644775,-0.9678651094436646,0.0,0.0,0.0,0.0,0.0,0.0,0.0,0.0,0.0,-29.128429412841797,0.1631249189376831,0.06669578701257706,0.0,0.0,0.0,0.0,0.0,0.0,0.0,0.0,0.0,0.004987481515854597,-0.012234648689627647,0.03361891955137253,0.0,0.0,0.0,0.0,0.0,0.0,0.0,0.0,0.0
1606987949443187559,1602033,1606984348017455651,imu_link,-0.0009219415369443595,-0.0012311958707869053,0.2514650225639343,-0.9678652286529541,0.0,0.0,0.0,0.0,0.0,0.0,0.0,0.0,0.0,-29.12837791442871,0.16311758756637573,0.06677419692277908,0.0,0.0,0.0,0.0,0.0,0.0,0.0,0.0,0.0,0.0005858163931407034,0.009150602854788303,0.02373570203781128,0.0,0.0,0.0,0.0,0.0,0.0,0.0,0.0,0.0
1606987949443206256,1602034,1606984348017510674,imu_link,-0.0009219415369443595,-0.0012311958707869053,0.2514650225639343,-0.9678652286529541,0.0,0.0,0.0,0.0,0.0,0.0,0.0,0.0,0.0,-29.12837791442871,0.16311758756637573,0.06677419692277908,0.0,0.0,0.0,0.0,0.0,0.0,0.0,0.0,0.0,0.0005858163931407034,0.009150602854788303,0.02373570203781128,0.0,0.0,0.0,0.0,0.0,0.0,0.0,0.0,0.0
1606987949443214457,1602035,1606984348017539558,imu_link,-0.0009182392386719584,-0.0012315090280026197,0.25146257877349854,-0.9678658843040466,0.0,0.0,0.0,0.0,0.0,0.0,0.0,0.0,0.0,-29.12809181213379,0.1630454808473587,0.06635497510433197,0.0,0.0,0.0,0.0,0.0,0.0,0.0,0.0,0.0,0.0019307788461446762,0.01243638712912798,0.0347956046462059,0.0,0.0,0.0,0.0,0.0,0.0,0.0,0.0,0.0
1606987949443231740,1602036,1606984348017568497,imu_link,-0.0009182392386719584,-0.0012315090280026197,0.25146257877349854,-0.9678658843040466,0.0,0.0,0.0,0.0,0.0,0.0,0.0,0.0,0.0,-29.12809181213379,0.1630454808473587,0.06635497510433197,0.0,0.0,0.0,0.0,0.0,0.0,0.0,0.0,0.0,0.0019307788461446762,0.01243638712912798,0.0347956046462059,0.0,0.0,0.0,0.0,0.0,0.0,0.0,0.0,0.0
1606987949443265132,1602037,1606984348017598079,imu_link,-0.0009163643699139357,-0.0012323993723839521,0.2514628767967224,-0.9678657054901123,0.0,0.0,0.0,0.0,0.0,0.0,0.0,0.0,0.0,-29.128128051757812,0.16309021413326263,0.06612133234739304,0.0,0.0,0.0,0.0,0.0,0.0,0.0,0.0,0.0,-0.006089308299124241,0.005228039808571339,0.06190948560833931,0.0,0.0,0.0,0.0,0.0,0.0,0.0,0.0,0.0
1606987949446274488,1602038,1606984348017635188,imu_link,-0.0009163643699139357,-0.0012323993723839521,0.2514628767967224,-0.9678657054901123,0.0,0.0,0.0,0.0,0.0,0.0,0.0,0.0,0.0,-29.128128051757812,0.16309021413326263,0.06612133234739304,0.0,0.0,0.0,0.0,0.0,0.0,0.0,0.0,0.0,-0.006089308299124241,0.005228039808571339,0.06190948560833931,0.0,0.0,0.0,0.0,0.0,0.0,0.0,0.0,0.0
1606987949446311565,1602039,1606984348017664670,imu_link,-0.0009150037658400834,-0.0012310512829571962,0.25146204233169556,-0.9678659439086914,0.0,0.0,0.0,0.0,0.0,0.0,0.0,0.0,0.0,-29.12803077697754,0.16290143132209778,0.06600940972566605,0.0,0.0,0.0,0.0,0.0,0.0,0.0,0.0,0.0,-0.02197929099202156,0.012789462693035603,0.05252865329384804,0.0,0.0,0.0,0.0,0.0,0.0,0.0,0.0,0.0
1606987949446340422,1602040,1606984348017692383,imu_link,-0.0009150037658400834,-0.0012310512829571962,0.25146204233169556,-0.9678659439086914,0.0,0.0,0.0,0.0,0.0,0.0,0.0,0.0,0.0,-29.12803077697754,0.16290143132209778,0.06600940972566605,0.0,0.0,0.0,0.0,0.0,0.0,0.0,0.0,0.0,-0.02197929099202156,0.012789462693035603,0.05252865329384804,0.0,0.0,0.0,0.0,0.0,0.0,0.0,0.0,0.0
1606987949446354612,1602041,1606984348017720574,imu_link,-0.0009148504468612373,-0.0012290584854781628,0.25146248936653137,-0.9678658246994019,0.0,0.0,0.0,0.0,0.0,0.0,0.0,0.0,0.0,-29.128084182739258,0.16267600655555725,0.06604976207017899,0.0,0.0,0.0,0.0,0.0,0.0,0.0,0.0,0.0,-0.020193319767713547,0.014134908095002174,0.05498415231704712,0.0,0.0,0.0,0.0,0.0,0.0,0.0,0.0,0.0
1606987949545631311,1602042,1606984348017748770,imu_link,-0.0009148504468612373,-0.0012290584854781628,0.25146248936653137,-0.9678658246994019,0.0,0.0,0.0,0.0,0.0,0.0,0.0,0.0,0.0,-29.128084182739258,0.16267600655555725,0.06604976207017899,0.0,0.0,0.0,0.0,0.0,0.0,0.0,0.0,0.0,-0.020193319767713547,0.014134908095002174,0.05498415231704712,0.0,0.0,0.0,0.0,0.0,0.0,0.0,0.0,0.0
1606987949545670965,1602043,1606984348017777309,imu_link,-0.0009099508752115071,-0.0012248600833117962,0.25146201252937317,-0.9678660035133362,0.0,0.0,0.0,0.0,0.0,0.0,0.0,0.0,0.0,-29.128026962280273,0.1620691567659378,0.06562739610671997,0.0,0.0,0.0,0.0,0.0,0.0,0.0,0.0,0.0,-0.018668264150619507,0.012203679420053959,0.06312301754951477,0.0,0.0,0.0,0.0,0.0,0.0,0.0,0.0,0.0
1606987949545685625,1602044,1606984348030418409,imu_link,-0.0009099508752115071,-0.0012248600833117962,0.25146201252937317,-0.9678660035133362,0.0,0.0,0.0,0.0,0.0,0.0,0.0,0.0,0.0,-29.128026962280273,0.1620691567659378,0.06562739610671997,0.0,0.0,0.0,0.0,0.0,0.0,0.0,0.0,0.0,-0.018668264150619507,0.012203679420053959,0.06312301754951477,0.0,0.0,0.0,0.0,0.0,0.0,0.0,0.0,0.0
1606987949545697179,1602045,1606984348030500682,imu_link,-0.0009086212376132607,-0.0012249116552993655,0.25146180391311646,-0.967866063117981,0.0,0.0,0.0,0.0,0.0,0.0,0.0,0.0,0.0,-29.12799835205078,0.16203656792640686,0.06547848135232925,0.0,0.0,0.0,0.0,0.0,0.0,0.0,0.0,0.0,-0.019064828753471375,0.01726069487631321,0.0406942218542099,0.0,0.0,0.0,0.0,0.0,0.0,0.0,0.0,0.0
1606987949545705079,1602046,1606984348030599937,imu_link,-0.0009086212376132607,-0.0012249116552993655,0.25146180391311646,-0.967866063117981,0.0,0.0,0.0,0.0,0.0,0.0,0.0,0.0,0.0,-29.12799835205078,0.16203656792640686,0.06547848135232925,0.0,0.0,0.0,0.0,0.0,0.0,0.0,0.0,0.0,-0.019064828753471375,0.01726069487631321,0.0406942218542099,0.0,0.0,0.0,0.0,0.0,0.0,0.0,0.0,0.0
1606987949545721305,1602047,1606984348030648156,imu_link,-0.0009035676484927535,-0.001224206993356347,0.2514602541923523,-0.9678664803504944,0.0,0.0,0.0,0.0,0.0,0.0,0.0,0.0,0.0,-29.127819061279297,0.1618126779794693,0.06493855267763138,0.0,0.0,0.0,0.0,0.0,0.0,0.0,0.0,0.0,-0.0018308599246665835,-0.002404664410278201,0.03668748587369919,0.0,0.0,0.0,0.0,0.0,0.0,0.0,0.0,0.0
1606987949545740659,1602048,1606984348030689173,imu_link,-0.0009035676484927535,-0.001224206993356347,0.2514602541923523,-0.9678664803504944,0.0,0.0,0.0,0.0,0.0,0.0,0.0,0.0,0.0,-29.127819061279297,0.1618126779794693,0.06493855267763138,0.0,0.0,0.0,0.0,0.0,0.0,0.0,0.0,0.0,-0.0018308599246665835,-0.002404664410278201,0.03668748587369919,0.0,0.0,0.0,0.0,0.0,0.0,0.0,0.0,0.0
1606987949545753576,1602049,1606984348030743043,imu_link,-0.0009047481580637395,-0.0012241365620866418,0.25146058201789856,-0.9678663611412048,0.0,0.0,0.0,0.0,0.0,0.0,0.0,0.0,0.0,-29.12785530090332,0.16183890402317047,0.0650714561343193,0.0,0.0,0.0,0.0,0.0,0.0,0.0,0.0,0.0,-0.0025046258233487606,-0.015285035595297813,0.04779912903904915,0.0,0.0,0.0,0.0,0.0,0.0,0.0,0.0,0.0
1606987949545761420,1602050,1606984348030786807,imu_link,-0.0009047481580637395,-0.0012241365620866418,0.25146058201789856,-0.9678663611412048,0.0,0.0,0.0,0.0,0.0,0.0,0.0,0.0,0.0,-29.12785530090332,0.16183890402317047,0.0650714561343193,0.0,0.0,0.0,0.0,0.0,0.0,0.0,0.0,0.0,-0.0025046258233487606,-0.015285035595297813,0.04779912903904915,0.0,0.0,0.0,0.0,0.0,0.0,0.0,0.0,0.0
1606987949551386016,1602051,1606984348030828839,imu_link,-0.0009104277123697102,-0.0012241473887115717,0.2514549791812897,-0.9678678512573242,0.0,0.0,0.0,0.0,0.0,0.0,0.0,0.0,0.0,-29.127193450927734,0.16200338304042816,0.06570199877023697,0.0,0.0,0.0,0.0,0.0,0.0,0.0,0.0,0.0,-0.00315430061891675,0.011674425564706326,0.039164356887340546,0.0,0.0,0.0,0.0,0.0,0.0,0.0,0.0,0.0
1606987949551412895,1602052,1606984348030878384,imu_link,-0.0009104277123697102,-0.0012241473887115717,0.2514549791812897,-0.9678678512573242,0.0,0.0,0.0,0.0,0.0,0.0,0.0,0.0,0.0,-29.127193450927734,0.16200338304042816,0.06570199877023697,0.0,0.0,0.0,0.0,0.0,0.0,0.0,0.0,0.0,-0.00315430061891675,0.011674425564706326,0.039164356887340546,0.0,0.0,0.0,0.0,0.0,0.0,0.0,0.0,0.0
1606987949551424747,1602053,1606984348030921509,imu_link,-0.000910000060684979,-0.0012249936116859317,0.2514558434486389,-0.9678676128387451,0.0,0.0,0.0,0.0,0.0,0.0,0.0,0.0,0.0,-29.127296447753906,0.16208496689796448,0.06563003361225128,0.0,0.0,0.0,0.0,0.0,0.0,0.0,0.0,0.0,0.006102924235165119,0.022923192009329796,0.038177259266376495,0.0,0.0,0.0,0.0,0.0,0.0,0.0,0.0,0.0
1606987949551463937,1602054,1606984348044127295,imu_link,-0.000910000060684979,-0.0012249936116859317,0.2514558434486389,-0.9678676128387451,0.0,0.0,0.0,0.0,0.0,0.0,0.0,0.0,0.0,-29.127296447753906,0.16208496689796448,0.06563003361225128,0.0,0.0,0.0,0.0,0.0,0.0,0.0,0.0,0.0,0.006102924235165119,0.022923192009329796,0.038177259266376495,0.0,0.0,0.0,0.0,0.0,0.0,0.0,0.0,0.0
1606987949562814089,1602055,1606984348044213635,imu_link,-0.0009054787806235254,-0.0012270599836483598,0.2514492869377136,-0.9678693413734436,0.0,0.0,0.0,0.0,0.0,0.0,0.0,0.0,0.0,-29.12652015686035,0.16218343377113342,0.06507014483213425,0.0,0.0,0.0,0.0,0.0,0.0,0.0,0.0,0.0,0.008952698670327663,0.019128238782286644,0.04723742604255676,0.0,0.0,0.0,0.0,0.0,0.0,0.0,0.0,0.0
1606987949562837294,1602056,1606984348044316611,imu_link,-0.0009054787806235254,-0.0012270599836483598,0.2514492869377136,-0.9678693413734436,0.0,0.0,0.0,0.0,0.0,0.0,0.0,0.0,0.0,-29.12652015686035,0.16218343377113342,0.06507014483213425,0.0,0.0,0.0,0.0,0.0,0.0,0.0,0.0,0.0,0.008952698670327663,0.019128238782286644,0.04723742604255676,0.0,0.0,0.0,0.0,0.0,0.0,0.0,0.0,0.0
1606987949562853888,1602057,1606984348044368622,imu_link,-0.0009074882254935801,-0.001226060907356441,0.25145041942596436,-0.9678690433502197,0.0,0.0,0.0,0.0,0.0,0.0,0.0,0.0,0.0,-29.126649856567383,0.16213062405586243,0.06532160192728043,0.0,0.0,0.0,0.0,0.0,0.0,0.0,0.0,0.0,0.00751706026494503,0.023446980863809586,0.030970029532909393,0.0,0.0,0.0,0.0,0.0,0.0,0.0,0.0,0.0
1606987949562907192,1602058,1606984348044452525,imu_link,-0.0009074882254935801,-0.001226060907356441,0.25145041942596436,-0.9678690433502197,0.0,0.0,0.0,0.0,0.0,0.0,0.0,0.0,0.0,-29.126649856567383,0.16213062405586243,0.06532160192728043,0.0,0.0,0.0,0.0,0.0,0.0,0.0,0.0,0.0,0.00751706026494503,0.023446980863809586,0.030970029532909393,0.0,0.0,0.0,0.0,0.0,0.0,0.0,0.0,0.0
1606987949562923746,1602059,1606984348044503973,imu_link,-0.0009039244032464921,-0.0012300913222134113,0.2514427900314331,-0.9678710103034973,0.0,0.0,0.0,0.0,0.0,0.0,0.0,0.0,0.0,-29.125749588012695,0.16247442364692688,0.06481149047613144,0.0,0.0,0.0,0.0,0.0,0.0,0.0,0.0,0.0,-0.00627219770103693,0.034583304077386856,0.03273724764585495,0.0,0.0,0.0,0.0,0.0,0.0,0.0,0.0,0.0
1606987949604324667,1602060,1606984348044568190,imu_link,-0.0009039244032464921,-0.0012300913222134113,0.2514427900314331,-0.9678710103034973,0.0,0.0,0.0,0.0,0.0,0.0,0.0,0.0,0.0,-29.125749588012695,0.16247442364692688,0.06481149047613144,0.0,0.0,0.0,0.0,0.0,0.0,0.0,0.0,0.0,-0.00627219770103693,0.034583304077386856,0.03273724764585495,0.0,0.0,0.0,0.0,0.0,0.0,0.0,0.0,0.0
1606987949604352832,1602061,1606984348044615614,imu_link,-0.0009016558760777116,-0.0012292425381019711,0.2514447271823883,-0.9678705334663391,0.0,0.0,0.0,0.0,0.0,0.0,0.0,0.0,0.0,-29.125980377197266,0.16231504082679749,0.06458402425050735,0.0,0.0,0.0,0.0,0.0,0.0,0.0,0.0,0.0,-0.005454726982861757,0.021085770800709724,0.045495130121707916,0.0,0.0,0.0,0.0,0.0,0.0,0.0,0.0,0.0
1606987949604359683,1602062,1606984348044667803,imu_link,-0.0009016558760777116,-0.0012292425381019711,0.2514447271823883,-0.9678705334663391,0.0,0.0,0.0,0.0,0.0,0.0,0.0,0.0,0.0,-29.125980377197266,0.16231504082679749,0.06458402425050735,0.0,0.0,0.0,0.0,0.0,0.0,0.0,0.0,0.0,-0.005454726982861757,0.021085770800709724,0.045495130121707916,0.0,0.0,0.0,0.0,0.0,0.0,0.0,0.0,0.0
1606987949604373505,1602063,1606984348044713443,imu_link,-0.000895478471647948,-0.0012269947910681367,0.2514360249042511,-0.9678727984428406,0.0,0.0,0.0,0.0,0.0,0.0,0.0,0.0,0.0,-29.124950408935547,0.16188718378543854,0.0639650970697403,0.0,0.0,0.0,0.0,0.0,0.0,0.0,0.0,0.0,-0.004419934470206499,0.0022436543367803097,0.043900009244680405,0.0,0.0,0.0,0.0,0.0,0.0,0.0,0.0,0.0
1606987949609246130,1602064,1606984348044786338,imu_link,-0.000895478471647948,-0.0012269947910681367,0.2514360249042511,-0.9678727984428406,0.0,0.0,0.0,0.0,0.0,0.0,0.0,0.0,0.0,-29.124950408935547,0.16188718378543854,0.0639650970697403,0.0,0.0,0.0,0.0,0.0,0.0,0.0,0.0,0.0,-0.004419934470206499,0.0022436543367803097,0.043900009244680405,0.0,0.0,0.0,0.0,0.0,0.0,0.0,0.0,0.0
1606987949609265989,1602065,1606984348057568739,imu_link,-0.000896644196473062,-0.0012271796585991979,0.25143781304359436,-0.9678723216056824,0.0,0.0,0.0,0.0,0.0,0.0,0.0,0.0,0.0,-29.12516212463379,0.16194140911102295,0.06408876925706863,0.0,0.0,0.0,0.0,0.0,0.0,0.0,0.0,0.0,-0.01176398154348135,-0.0012732745381072164,0.0422724150121212,0.0,0.0,0.0,0.0,0.0,0.0,0.0,0.0,0.0
1606987949609289208,1602066,1606984348057654961,imu_link,-0.000896644196473062,-0.0012271796585991979,0.25143781304359436,-0.9678723216056824,0.0,0.0,0.0,0.0,0.0,0.0,0.0,0.0,0.0,-29.12516212463379,0.16194140911102295,0.06408876925706863,0.0,0.0,0.0,0.0,0.0,0.0,0.0,0.0,0.0,-0.01176398154348135,-0.0012732745381072164,0.0422724150121212,0.0,0.0,0.0,0.0,0.0,0.0,0.0,0.0,0.0
1606987949609303358,1602067,1606984348057705172,imu_link,-0.0008980022394098341,-0.0012253932654857635,0.2514292299747467,-0.9678745269775391,0.0,0.0,0.0,0.0,0.0,0.0,0.0,0.0,0.0,-29.124147415161133,0.16178183257579803,0.0642922893166542,0.0,0.0,0.0,0.0,0.0,0.0,0.0,0.0,0.0,0.004920546896755695,0.001402888330630958,0.04018699377775192,0.0,0.0,0.0,0.0,0.0,0.0,0.0,0.0,0.0
1606987949609315061,1602068,1606984348057753102,imu_link,-0.0008980022394098341,-0.0012253932654857635,0.2514292299747467,-0.9678745269775391,0.0,0.0,0.0,0.0,0.0,0.0,0.0,0.0,0.0,-29.124147415161133,0.16178183257579803,0.0642922893166542,0.0,0.0,0.0,0.0,0.0,0.0,0.0,0.0,0.0,0.004920546896755695,0.001402888330630958,0.04018699377775192,0.0,0.0,0.0,0.0,0.0,0.0,0.0,0.0,0.0
1606987949615968946,1602069,1606984348057798685,imu_link,-0.000898956845048815,-0.0012245654361322522,0.25142917037010193,-0.9678745269775391,0.0,0.0,0.0,0.0,0.0,0.0,0.0,0.0,0.0,-29.1241397857666,0.1617175042629242,0.06442202627658844,0.0,0.0,0.0,0.0,0.0,0.0,0.0,0.0,0.0,0.006806894205510616,0.0058442093431949615,0.013930629007518291,0.0,0.0,0.0,0.0,0.0,0.0,0.0,0.0,0.0
1606987949615998186,1602070,1606984348057843635,imu_link,-0.000898956845048815,-0.0012245654361322522,0.25142917037010193,-0.9678745269775391,0.0,0.0,0.0,0.0,0.0,0.0,0.0,0.0,0.0,-29.1241397857666,0.1617175042629242,0.06442202627658844,0.0,0.0,0.0,0.0,0.0,0.0,0.0,0.0,0.0,0.006806894205510616,0.0058442093431949615,0.013930629007518291,0.0,0.0,0.0,0.0,0.0,0.0,0.0,0.0,0.0
1606987949616011126,1602071,1606984348057897895,imu_link,-0.0008973390213213861,-0.0012259252835065126,0.2514191269874573,-0.9678771495819092,0.0,0.0,0.0,0.0,0.0,0.0,0.0,0.0,0.0,-29.12295150756836,0.16182105243206024,0.0642050951719284,0.0,0.0,0.0,0.0,0.0,0.0,0.0,0.0,0.0,-0.01500511821359396,-0.015628503635525703,0.038414109498262405,0.0,0.0,0.0,0.0,0.0,0.0,0.0,0.0,0.0
1606987949616023881,1602072,1606984348057943698,imu_link,-0.0008973390213213861,-0.0012259252835065126,0.2514191269874573,-0.9678771495819092,0.0,0.0,0.0,0.0,0.0,0.0,0.0,0.0,0.0,-29.12295150756836,0.16182105243206024,0.0642050951719284,0.0,0.0,0.0,0.0,0.0,0.0,0.0,0.0,0.0,-0.01500511821359396,-0.015628503635525703,0.038414109498262405,0.0,0.0,0.0,0.0,0.0,0.0,0.0,0.0,0.0
1606987949619419743,1602073,1606984348058016564,imu_link,-0.0008971412316896021,-0.0012255730107426643,0.25141671299934387,-0.9678778052330017,0.0,0.0,0.0,0.0,0.0,0.0,0.0,0.0,0.0,-29.122665405273438,0.1617761254310608,0.0641937181353569,0.0,0.0,0.0,0.0,0.0,0.0,0.0,0.0,0.0,-0.020900430157780647,-0.02639264240860939,0.07262848317623138,0.0,0.0,0.0,0.0,0.0,0.0,0.0,0.0,0.0
1606987949619461467,1602074,1606984348058063770,imu_link,-0.0008971412316896021,-0.0012255730107426643,0.25141671299934387,-0.9678778052330017,0.0,0.0,0.0,0.0,0.0,0.0,0.0,0.0,0.0,-29.122665405273438,0.1617761254310608,0.0641937181353569,0.0,0.0,0.0,0.0,0.0,0.0,0.0,0.0,0.0,-0.020900430157780647,-0.02639264240860939,0.07262848317623138,0.0,0.0,0.0,0.0,0.0,0.0,0.0,0.0,0.0
1606987949619481603,1602075,1606984348058134880,imu_link,-0.0008999975398182869,-0.001222190330736339,0.25142309069633484,-0.967876136302948,0.0,0.0,0.0,0.0,0.0,0.0,0.0,0.0,0.0,-29.1234188079834,0.16148366034030914,0.06460690498352051,0.0,0.0,0.0,0.0,0.0,0.0,0.0,0.0,0.0,-0.015818046405911446,-0.00855922233313322,0.05264342576265335,0.0,0.0,0.0,0.0,0.0,0.0,0.0,0.0,0.0
1606987949619503055,1602076,1606984348071308335,imu_link,-0.0008999975398182869,-0.001222190330736339,0.25142309069633484,-0.967876136302948,0.0,0.0,0.0,0.0,0.0,0.0,0.0,0.0,0.0,-29.1234188079834,0.16148366034030914,0.06460690498352051,0.0,0.0,0.0,0.0,0.0,0.0,0.0,0.0,0.0,-0.015818046405911446,-0.00855922233313322,0.05264342576265335,0.0,0.0,0.0,0.0,0.0,0.0,0.0,0.0,0.0
1606987949619516251,1602077,1606984348071372297,imu_link,-0.0008997661643661559,-0.0012220590142533183,0.25142455101013184,-0.9678757190704346,0.0,0.0,0.0,0.0,0.0,0.0,0.0,0.0,0.0,-29.12359046936035,0.16146251559257507,0.06458476930856705,0.0,0.0,0.0,0.0,0.0,0.0,0.0,0.0,0.0,-0.011625070124864578,-0.0032751152757555246,0.0422961488366127,0.0,0.0,0.0,0.0,0.0,0.0,0.0,0.0,0.0
1606987949650648368,1602078,1606984348071443442,imu_link,-0.0008997661643661559,-0.0012220590142533183,0.25142455101013184,-0.9678757190704346,0.0,0.0,0.0,0.0,0.0,0.0,0.0,0.0,0.0,-29.12359046936035,0.16146251559257507,0.06458476930856705,0.0,0.0,0.0,0.0,0.0,0.0,0.0,0.0,0.0,-0.011625070124864578,-0.0032751152757555246,0.0422961488366127,0.0,0.0,0.0,0.0,0.0,0.0,0.0,0.0,0.0
1606987949650664156,1602079,1606984348071491459,imu_link,-0.0009008432971313596,-0.0012188731925562024,0.2514325976371765,-0.9678736329078674,0.0,0.0,0.0,0.0,0.0,0.0,0.0,0.0,0.0,-29.124542236328125,0.16114075481891632,0.06479468941688538,0.0,0.0,0.0,0.0,0.0,0.0,0.0,0.0,0.0,-0.014725718647241592,0.00779405003413558,0.044436972588300705,0.0,0.0,0.0,0.0,0.0,0.0,0.0,0.0,0.0
1606987949650675372,1602080,1606984348071565247,imu_link,-0.0009008432971313596,-0.0012188731925562024,0.2514325976371765,-0.9678736329078674,0.0,0.0,0.0,0.0,0.0,0.0,0.0,0.0,0.0,-29.124542236328125,0.16114075481891632,0.06479468941688538,0.0,0.0,0.0,0.0,0.0,0.0,0.0,0.0,0.0,-0.014725718647241592,0.00779405003413558,0.044436972588300705,0.0,0.0,0.0,0.0,0.0,0.0,0.0,0.0,0.0
1606987949650680979,1602081,1606984348071615732,imu_link,-0.0009004213497973979,-0.0012187344254925847,0.2514323890209198,-0.9678736925125122,0.0,0.0,0.0,0.0,0.0,0.0,0.0,0.0,0.0,-29.12451934814453,0.1611132025718689,0.06475192308425903,0.0,0.0,0.0,0.0,0.0,0.0,0.0,0.0,0.0,-0.02015439234673977,0.016211310401558876,0.0496126227080822,0.0,0.0,0.0,0.0,0.0,0.0,0.0,0.0,0.0
1606987949656743374,1602082,1606984348071677309,imu_link,-0.0009004213497973979,-0.0012187344254925847,0.2514323890209198,-0.9678736925125122,0.0,0.0,0.0,0.0,0.0,0.0,0.0,0.0,0.0,-29.12451934814453,0.1611132025718689,0.06475192308425903,0.0,0.0,0.0,0.0,0.0,0.0,0.0,0.0,0.0,-0.02015439234673977,0.016211310401558876,0.0496126227080822,0.0,0.0,0.0,0.0,0.0,0.0,0.0,0.0,0.0
1606987949656760924,1602083,1606984348071723902,imu_link,-0.000896528537850827,-0.0012162027414888144,0.2514355778694153,-0.9678728580474854,0.0,0.0,0.0,0.0,0.0,0.0,0.0,0.0,0.0,-29.12489891052246,0.16072045266628265,0.0643925815820694,0.0,0.0,0.0,0.0,0.0,0.0,0.0,0.0,0.0,-0.012258610688149929,0.007449487689882517,0.05198613926768303,0.0,0.0,0.0,0.0,0.0,0.0,0.0,0.0,0.0
1606987949656769568,1602084,1606984348071773729,imu_link,-0.000896528537850827,-0.0012162027414888144,0.2514355778694153,-0.9678728580474854,0.0,0.0,0.0,0.0,0.0,0.0,0.0,0.0,0.0,-29.12489891052246,0.16072045266628265,0.0643925815820694,0.0,0.0,0.0,0.0,0.0,0.0,0.0,0.0,0.0,-0.012258610688149929,0.007449487689882517,0.05198613926768303,0.0,0.0,0.0,0.0,0.0,0.0,0.0,0.0,0.0
1606987949656774999,1602085,1606984348071818965,imu_link,-0.0008978765108622611,-0.0012185350060462952,0.2514355182647705,-0.9678728580474854,0.0,0.0,0.0,0.0,0.0,0.0,0.0,0.0,0.0,-29.12489128112793,0.16101796925067902,0.06447490304708481,0.0,0.0,0.0,0.0,0.0,0.0,0.0,0.0,0.0,0.003260687692090869,0.023257043212652206,0.03492673486471176,0.0,0.0,0.0,0.0,0.0,0.0,0.0,0.0,0.0
1606987949656785577,1602086,1606984348071862429,imu_link,-0.0008978765108622611,-0.0012185350060462952,0.2514355182647705,-0.9678728580474854,0.0,0.0,0.0,0.0,0.0,0.0,0.0,0.0,0.0,-29.12489128112793,0.16101796925067902,0.06447490304708481,0.0,0.0,0.0,0.0,0.0,0.0,0.0,0.0,0.0,0.003260687692090869,0.023257043212652206,0.03492673486471176,0.0,0.0,0.0,0.0,0.0,0.0,0.0,0.0,0.0
1606987949668414685,1602087,1606984348084950705,imu_link,-0.0008950768387876451,-0.0012178871547803283,0.25143831968307495,-0.967872142791748,0.0,0.0,0.0,0.0,0.0,0.0,0.0,0.0,0.0,-29.12522315979004,0.1608656346797943,0.0641825869679451,0.0,0.0,0.0,0.0,0.0,0.0,0.0,0.0,0.0,-0.0022332873195409775,0.02126871980726719,0.018831761553883553,0.0,0.0,0.0,0.0,0.0,0.0,0.0,0.0,0.0
1606987949668433173,1602088,1606984348085035065,imu_link,-0.0008950768387876451,-0.0012178871547803283,0.25143831968307495,-0.967872142791748,0.0,0.0,0.0,0.0,0.0,0.0,0.0,0.0,0.0,-29.12522315979004,0.1608656346797943,0.0641825869679451,0.0,0.0,0.0,0.0,0.0,0.0,0.0,0.0,0.0,-0.0022332873195409775,0.02126871980726719,0.018831761553883553,0.0,0.0,0.0,0.0,0.0,0.0,0.0,0.0,0.0
1606987949668452150,1602089,1606984348085146970,imu_link,-0.0008949569310061634,-0.0012161890044808388,0.25143831968307495,-0.9678722023963928,0.0,0.0,0.0,0.0,0.0,0.0,0.0,0.0,0.0,-29.12522315979004,0.1606738418340683,0.06421821564435959,0.0,0.0,0.0,0.0,0.0,0.0,0.0,0.0,0.0,-0.024322057142853737,0.009863930754363537,0.02843954786658287,0.0,0.0,0.0,0.0,0.0,0.0,0.0,0.0,0.0
1606987949668470637,1602090,1606984348085196697,imu_link,-0.0008949569310061634,-0.0012161890044808388,0.25143831968307495,-0.9678722023963928,0.0,0.0,0.0,0.0,0.0,0.0,0.0,0.0,0.0,-29.12522315979004,0.1606738418340683,0.06421821564435959,0.0,0.0,0.0,0.0,0.0,0.0,0.0,0.0,0.0,-0.024322057142853737,0.009863930754363537,0.02843954786658287,0.0,0.0,0.0,0.0,0.0,0.0,0.0,0.0,0.0
1606987949675685289,1602091,1606984348085267867,imu_link,-0.0008918637176975608,-0.0012127307709306479,0.2514325976371765,-0.9678736329078674,0.0,0.0,0.0,0.0,0.0,0.0,0.0,0.0,0.0,-29.12454605102539,0.1602007895708084,0.0639757290482521,0.0,0.0,0.0,0.0,0.0,0.0,0.0,0.0,0.0,-0.015278324484825134,0.01697748340666294,0.05775127932429314,0.0,0.0,0.0,0.0,0.0,0.0,0.0,0.0,0.0
1606987949675722879,1602092,1606984348085330953,imu_link,-0.0008918637176975608,-0.0012127307709306479,0.2514325976371765,-0.9678736329078674,0.0,0.0,0.0,0.0,0.0,0.0,0.0,0.0,0.0,-29.12454605102539,0.1602007895708084,0.0639757290482521,0.0,0.0,0.0,0.0,0.0,0.0,0.0,0.0,0.0,-0.015278324484825134,0.01697748340666294,0.05775127932429314,0.0,0.0,0.0,0.0,0.0,0.0,0.0,0.0,0.0
1606987949675756350,1602093,1606984348085379116,imu_link,-0.0008917059167288244,-0.0012154328869655728,0.2514316141605377,-0.9678738713264465,0.0,0.0,0.0,0.0,0.0,0.0,0.0,0.0,0.0,-29.12442970275879,0.16049586236476898,0.06388053297996521,0.0,0.0,0.0,0.0,0.0,0.0,0.0,0.0,0.0,-0.009745907969772816,0.010039501823484898,0.06450171023607254,0.0,0.0,0.0,0.0,0.0,0.0,0.0,0.0,0.0
1606987949675774548,1602094,1606984348085426531,imu_link,-0.0008917059167288244,-0.0012154328869655728,0.2514316141605377,-0.9678738713264465,0.0,0.0,0.0,0.0,0.0,0.0,0.0,0.0,0.0,-29.12442970275879,0.16049586236476898,0.06388053297996521,0.0,0.0,0.0,0.0,0.0,0.0,0.0,0.0,0.0,-0.009745907969772816,0.010039501823484898,0.06450171023607254,0.0,0.0,0.0,0.0,0.0,0.0,0.0,0.0,0.0
1606987949675789776,1602095,1606984348085497092,imu_link,-0.0008857349748723209,-0.001215211465023458,0.2514238953590393,-0.9678759574890137,0.0,0.0,0.0,0.0,0.0,0.0,0.0,0.0,0.0,-29.123517990112305,0.16029876470565796,0.06322596222162247,0.0,0.0,0.0,0.0,0.0,0.0,0.0,0.0,0.0,-0.014036422595381737,-0.004718588199466467,0.055158186703920364,0.0,0.0,0.0,0.0,0.0,0.0,0.0,0.0,0.0
1606987949756423578,1602096,1606984348085545140,imu_link,-0.0008857349748723209,-0.001215211465023458,0.2514238953590393,-0.9678759574890137,0.0,0.0,0.0,0.0,0.0,0.0,0.0,0.0,0.0,-29.123517990112305,0.16029876470565796,0.06322596222162247,0.0,0.0,0.0,0.0,0.0,0.0,0.0,0.0,0.0,-0.014036422595381737,-0.004718588199466467,0.055158186703920364,0.0,0.0,0.0,0.0,0.0,0.0,0.0,0.0,0.0
1606987949756441528,1602097,1606984348085592006,imu_link,-0.0008846203563734889,-0.001214497140608728,0.2514239549636841,-0.9678758978843689,0.0,0.0,0.0,0.0,0.0,0.0,0.0,0.0,0.0,-29.123525619506836,0.16018742322921753,0.06312291324138641,0.0,0.0,0.0,0.0,0.0,0.0,0.0,0.0,0.0,0.006686429027467966,-0.004849612712860107,0.0581345334649086,0.0,0.0,0.0,0.0,0.0,0.0,0.0,0.0,0.0
1606987949756452864,1602098,1606984348097773152,imu_link,-0.0008846203563734889,-0.001214497140608728,0.2514239549636841,-0.9678758978843689,0.0,0.0,0.0,0.0,0.0,0.0,0.0,0.0,0.0,-29.123525619506836,0.16018742322921753,0.06312291324138641,0.0,0.0,0.0,0.0,0.0,0.0,0.0,0.0,0.0,0.006686429027467966,-0.004849612712860107,0.0581345334649086,0.0,0.0,0.0,0.0,0.0,0.0,0.0,0.0,0.0
1606987949756465227,1602099,1606984348097855692,imu_link,-0.000885310466401279,-0.0012157263699918985,0.2514241635799408,-0.9678758978843689,0.0,0.0,0.0,0.0,0.0,0.0,0.0,0.0,0.0,-29.12354850769043,0.16034367680549622,0.06316399574279785,0.0,0.0,0.0,0.0,0.0,0.0,0.0,0.0,0.0,-0.008017913438379765,-0.007515070028603077,0.06512019038200378,0.0,0.0,0.0,0.0,0.0,0.0,0.0,0.0,0.0
1606987949769057282,1602100,1606984348097911338,imu_link,-0.000885310466401279,-0.0012157263699918985,0.2514241635799408,-0.9678758978843689,0.0,0.0,0.0,0.0,0.0,0.0,0.0,0.0,0.0,-29.12354850769043,0.16034367680549622,0.06316399574279785,0.0,0.0,0.0,0.0,0.0,0.0,0.0,0.0,0.0,-0.008017913438379765,-0.007515070028603077,0.06512019038200378,0.0,0.0,0.0,0.0,0.0,0.0,0.0,0.0,0.0
1606987949769086030,1602101,1606984348097960177,imu_link,-0.0008857914945110679,-0.0012142050545662642,0.2514253854751587,-0.9678755402565002,0.0,0.0,0.0,0.0,0.0,0.0,0.0,0.0,0.0,-29.123693466186523,0.16018886864185333,0.06326096504926682,0.0,0.0,0.0,0.0,0.0,0.0,0.0,0.0,0.0,-0.03310133516788483,-0.029363343492150307,0.06684615463018417,0.0,0.0,0.0,0.0,0.0,0.0,0.0,0.0,0.0
1606987949769100099,1602102,1606984348098003812,imu_link,-0.0008857914945110679,-0.0012142050545662642,0.2514253854751587,-0.9678755402565002,0.0,0.0,0.0,0.0,0.0,0.0,0.0,0.0,0.0,-29.123693466186523,0.16018886864185333,0.06326096504926682,0.0,0.0,0.0,0.0,0.0,0.0,0.0,0.0,0.0,-0.03310133516788483,-0.029363343492150307,0.06684615463018417,0.0,0.0,0.0,0.0,0.0,0.0,0.0,0.0,0.0
1606987949769122230,1602103,1606984348098060257,imu_link,-0.0008880535024218261,-0.0012102669570595026,0.2514238655567169,-0.9678759574890137,0.0,0.0,0.0,0.0,0.0,0.0,0.0,0.0,0.0,-29.123512268066406,0.159817174077034,0.06362556666135788,0.0,0.0,0.0,0.0,0.0,0.0,0.0,0.0,0.0,-0.03474682569503784,-0.015681272372603416,0.07360456883907318,0.0,0.0,0.0,0.0,0.0,0.0,0.0,0.0,0.0
1606987949769138898,1602104,1606984348098109651,imu_link,-0.0008880535024218261,-0.0012102669570595026,0.2514238655567169,-0.9678759574890137,0.0,0.0,0.0,0.0,0.0,0.0,0.0,0.0,0.0,-29.123512268066406,0.159817174077034,0.06362556666135788,0.0,0.0,0.0,0.0,0.0,0.0,0.0,0.0,0.0,-0.03474682569503784,-0.015681272372603416,0.07360456883907318,0.0,0.0,0.0,0.0,0.0,0.0,0.0,0.0,0.0
1606987949776334703,1602105,1606984348098154756,imu_link,-0.0008857101202011108,-0.0012088101357221603,0.2514231204986572,-0.967876136302948,0.0,0.0,0.0,0.0,0.0,0.0,0.0,0.0,0.0,-29.123422622680664,0.1595880091190338,0.06340775638818741,0.0,0.0,0.0,0.0,0.0,0.0,0.0,0.0,0.0,-0.03518504276871681,-0.00157655228395015,0.0619424469769001,0.0,0.0,0.0,0.0,0.0,0.0,0.0,0.0,0.0
1606987949776359667,1602106,1606984348098205436,imu_link,-0.0008857101202011108,-0.0012088101357221603,0.2514231204986572,-0.967876136302948,0.0,0.0,0.0,0.0,0.0,0.0,0.0,0.0,0.0,-29.123422622680664,0.1595880091190338,0.06340775638818741,0.0,0.0,0.0,0.0,0.0,0.0,0.0,0.0,0.0,-0.03518504276871681,-0.00157655228395015,0.0619424469769001,0.0,0.0,0.0,0.0,0.0,0.0,0.0,0.0,0.0
1606987949776369000,1602107,1606984348098250282,imu_link,-0.0008863235707394779,-0.0012031049700453877,0.25142741203308105,-0.967875063419342,0.0,0.0,0.0,0.0,0.0,0.0,0.0,0.0,0.0,-29.123931884765625,0.15897321701049805,0.06363946199417114,0.0,0.0,0.0,0.0,0.0,0.0,0.0,0.0,0.0,-0.02078470215201378,-0.009109034202992916,0.032803818583488464,0.0,0.0,0.0,0.0,0.0,0.0,0.0,0.0,0.0
1606987949776379246,1602108,1606984348111665845,imu_link,-0.0008863235707394779,-0.0012031049700453877,0.25142741203308105,-0.967875063419342,0.0,0.0,0.0,0.0,0.0,0.0,0.0,0.0,0.0,-29.123931884765625,0.15897321701049805,0.06363946199417114,0.0,0.0,0.0,0.0,0.0,0.0,0.0,0.0,0.0,-0.02078470215201378,-0.009109034202992916,0.032803818583488464,0.0,0.0,0.0,0.0,0.0,0.0,0.0,0.0,0.0
1606987949781491345,1602109,1606984348111821890,imu_link,-0.0008865409763529897,-0.00120499636977911,0.2514267861843109,-0.9678751826286316,0.0,0.0,0.0,0.0,0.0,0.0,0.0,0.0,0.0,-29.123859405517578,0.15918920934200287,0.06360919028520584,0.0,0.0,0.0,0.0,0.0,0.0,0.0,0.0,0.0,-0.020531246438622475,0.00198003719560802,0.026473049074411392,0.0,0.0,0.0,0.0,0.0,0.0,0.0,0.0,0.0
1606987949781521941,1602110,1606984348111955890,imu_link,-0.0008865409763529897,-0.00120499636977911,0.2514267861843109,-0.9678751826286316,0.0,0.0,0.0,0.0,0.0,0.0,0.0,0.0,0.0,-29.123859405517578,0.15918920934200287,0.06360919028520584,0.0,0.0,0.0,0.0,0.0,0.0,0.0,0.0,0.0,-0.020531246438622475,0.00198003719560802,0.026473049074411392,0.0,0.0,0.0,0.0,0.0,0.0,0.0,0.0,0.0
1606987949781539574,1602111,1606984348112090070,imu_link,-0.0008858937653712928,-0.001202091691084206,0.25143009424209595,-0.9678743481636047,0.0,0.0,0.0,0.0,0.0,0.0,0.0,0.0,0.0,-29.124252319335938,0.1588486135005951,0.06362053751945496,0.0,0.0,0.0,0.0,0.0,0.0,0.0,0.0,0.0,-0.017278265208005905,0.005433984566479921,0.03583298996090889,0.0,0.0,0.0,0.0,0.0,0.0,0.0,0.0,0.0
1606987949781552544,1602112,1606984348112207094,imu_link,-0.0008858937653712928,-0.001202091691084206,0.25143009424209595,-0.9678743481636047,0.0,0.0,0.0,0.0,0.0,0.0,0.0,0.0,0.0,-29.124252319335938,0.1588486135005951,0.06362053751945496,0.0,0.0,0.0,0.0,0.0,0.0,0.0,0.0,0.0,-0.017278265208005905,0.005433984566479921,0.03583298996090889,0.0,0.0,0.0,0.0,0.0,0.0,0.0,0.0,0.0
1606987949781568423,1602113,1606984348112314980,imu_link,-0.0008859080262482166,-0.001200629398226738,0.25143083930015564,-0.9678741693496704,0.0,0.0,0.0,0.0,0.0,0.0,0.0,0.0,0.0,-29.124338150024414,0.15868690609931946,0.06366413831710815,0.0,0.0,0.0,0.0,0.0,0.0,0.0,0.0,0.0,0.0045594885013997555,-0.0163724385201931,0.06270944327116013,0.0,0.0,0.0,0.0,0.0,0.0,0.0,0.0,0.0
1606987949842069910,1602114,1606984348112438816,imu_link,-0.0008859080262482166,-0.001200629398226738,0.25143083930015564,-0.9678741693496704,0.0,0.0,0.0,0.0,0.0,0.0,0.0,0.0,0.0,-29.124338150024414,0.15868690609931946,0.06366413831710815,0.0,0.0,0.0,0.0,0.0,0.0,0.0,0.0,0.0,0.0045594885013997555,-0.0163724385201931,0.06270944327116013,0.0,0.0,0.0,0.0,0.0,0.0,0.0,0.0,0.0
1606987949842082754,1602115,1606984348112540098,imu_link,-0.0008901638211682439,-0.0012001160066574812,0.25142669677734375,-0.9678751826286316,0.0,0.0,0.0,0.0,0.0,0.0,0.0,0.0,0.0,-29.123849868774414,0.15875229239463806,0.06415162235498428,0.0,0.0,0.0,0.0,0.0,0.0,0.0,0.0,0.0,0.015679605305194855,-0.008092455565929413,0.057578396052122116,0.0,0.0,0.0,0.0,0.0,0.0,0.0,0.0,0.0
1606987949842094994,1602116,1606984348112641302,imu_link,-0.0008901638211682439,-0.0012001160066574812,0.25142669677734375,-0.9678751826286316,0.0,0.0,0.0,0.0,0.0,0.0,0.0,0.0,0.0,-29.123849868774414,0.15875229239463806,0.06415162235498428,0.0,0.0,0.0,0.0,0.0,0.0,0.0,0.0,0.0,0.015679605305194855,-0.008092455565929413,0.057578396052122116,0.0,0.0,0.0,0.0,0.0,0.0,0.0,0.0,0.0
1606987949842111884,1602117,1606984348112746280,imu_link,-0.0008891480974853039,-0.0012017673579975963,0.251426100730896,-0.9678753614425659,0.0,0.0,0.0,0.0,0.0,0.0,0.0,0.0,0.0,-29.123777389526367,0.15890614688396454,0.0639914870262146,0.0,0.0,0.0,0.0,0.0,0.0,0.0,0.0,0.0,0.004699608776718378,-0.01128567848354578,0.04614076763391495,0.0,0.0,0.0,0.0,0.0,0.0,0.0,0.0,0.0
1606987949846475991,1602118,1606984348112847139,imu_link,-0.0008891480974853039,-0.0012017673579975963,0.251426100730896,-0.9678753614425659,0.0,0.0,0.0,0.0,0.0,0.0,0.0,0.0,0.0,-29.123777389526367,0.15890614688396454,0.0639914870262146,0.0,0.0,0.0,0.0,0.0,0.0,0.0,0.0,0.0,0.004699608776718378,-0.01128567848354578,0.04614076763391495,0.0,0.0,0.0,0.0,0.0,0.0,0.0,0.0,0.0
1606987949846496630,1602119,1606984348125151053,imu_link,-0.0008913354249671102,-0.0012001844588667154,0.2514210641384125,-0.967876672744751,0.0,0.0,0.0,0.0,0.0,0.0,0.0,0.0,0.0,-29.123180389404297,0.15879327058792114,0.06428051739931107,0.0,0.0,0.0,0.0,0.0,0.0,0.0,0.0,0.0,0.014239134266972542,-0.017713885754346848,0.045483049005270004,0.0,0.0,0.0,0.0,0.0,0.0,0.0,0.0,0.0
1606987949846501921,1602120,1606984348125255159,imu_link,-0.0008913354249671102,-0.0012001844588667154,0.2514210641384125,-0.967876672744751,0.0,0.0,0.0,0.0,0.0,0.0,0.0,0.0,0.0,-29.123180389404297,0.15879327058792114,0.06428051739931107,0.0,0.0,0.0,0.0,0.0,0.0,0.0,0.0,0.0,0.014239134266972542,-0.017713885754346848,0.045483049005270004,0.0,0.0,0.0,0.0,0.0,0.0,0.0,0.0,0.0
1606987949846511811,1602121,1606984348125325497,imu_link,-0.0008935518562793732,-0.0011996139073744416,0.2514214813709259,-0.9678766131401062,0.0,0.0,0.0,0.0,0.0,0.0,0.0,0.0,0.0,-29.123228073120117,0.1587938815355301,0.06454271823167801,0.0,0.0,0.0,0.0,0.0,0.0,0.0,0.0,0.0,0.023428820073604584,-0.0031027761287987232,0.031512171030044556,0.0,0.0,0.0,0.0,0.0,0.0,0.0,0.0,0.0
1606987949852499220,1602122,1606984348125392342,imu_link,-0.0008935518562793732,-0.0011996139073744416,0.2514214813709259,-0.9678766131401062,0.0,0.0,0.0,0.0,0.0,0.0,0.0,0.0,0.0,-29.123228073120117,0.1587938815355301,0.06454271823167801,0.0,0.0,0.0,0.0,0.0,0.0,0.0,0.0,0.0,0.023428820073604584,-0.0031027761287987232,0.031512171030044556,0.0,0.0,0.0,0.0,0.0,0.0,0.0,0.0,0.0
1606987949852545650,1602123,1606984348125465081,imu_link,-0.0008962267893366516,-0.001200751168653369,0.2514212727546692,-0.9678765535354614,0.0,0.0,0.0,0.0,0.0,0.0,0.0,0.0,0.0,-29.123205184936523,0.1589970588684082,0.06480666249990463,0.0,0.0,0.0,0.0,0.0,0.0,0.0,0.0,0.0,0.009850219823420048,-0.01057758554816246,0.02417594939470291,0.0,0.0,0.0,0.0,0.0,0.0,0.0,0.0,0.0
1606987949852558191,1602124,1606984348125525902,imu_link,-0.0008962267893366516,-0.001200751168653369,0.2514212727546692,-0.9678765535354614,0.0,0.0,0.0,0.0,0.0,0.0,0.0,0.0,0.0,-29.123205184936523,0.1589970588684082,0.06480666249990463,0.0,0.0,0.0,0.0,0.0,0.0,0.0,0.0,0.0,0.009850219823420048,-0.01057758554816246,0.02417594939470291,0.0,0.0,0.0,0.0,0.0,0.0,0.0,0.0,0.0
1606987949852569568,1602125,1606984348125631448,imu_link,-0.0008975573000498116,-0.0012007555924355984,0.2514205873012543,-0.9678768515586853,0.0,0.0,0.0,0.0,0.0,0.0,0.0,0.0,0.0,-29.123125076293945,0.1590358465909958,0.06495421379804611,0.0,0.0,0.0,0.0,0.0,0.0,0.0,0.0,0.0,0.0017038171645253897,-0.005227822344750166,0.03430112823843956,0.0,0.0,0.0,0.0,0.0,0.0,0.0,0.0,0.0
1606987949852583025,1602126,1606984348125692546,imu_link,-0.0008975573000498116,-0.0012007555924355984,0.2514205873012543,-0.9678768515586853,0.0,0.0,0.0,0.0,0.0,0.0,0.0,0.0,0.0,-29.123125076293945,0.1590358465909958,0.06495421379804611,0.0,0.0,0.0,0.0,0.0,0.0,0.0,0.0,0.0,0.0017038171645253897,-0.005227822344750166,0.03430112823843956,0.0,0.0,0.0,0.0,0.0,0.0,0.0,0.0,0.0
1606987949855899810,1602127,1606984348125753207,imu_link,-0.0008982993895187974,-0.0012008319608867168,0.25141969323158264,-0.9678769707679749,0.0,0.0,0.0,0.0,0.0,0.0,0.0,0.0,0.0,-29.12302017211914,0.1590656191110611,0.06503447890281677,0.0,0.0,0.0,0.0,0.0,0.0,0.0,0.0,0.0,-0.0014016368659213185,0.004300286527723074,0.06786166876554489,0.0,0.0,0.0,0.0,0.0,0.0,0.0,0.0,0.0
1606987949855919255,1602128,1606984348125810492,imu_link,-0.0008982993895187974,-0.0012008319608867168,0.25141969323158264,-0.9678769707679749,0.0,0.0,0.0,0.0,0.0,0.0,0.0,0.0,0.0,-29.12302017211914,0.1590656191110611,0.06503447890281677,0.0,0.0,0.0,0.0,0.0,0.0,0.0,0.0,0.0,-0.0014016368659213185,0.004300286527723074,0.06786166876554489,0.0,0.0,0.0,0.0,0.0,0.0,0.0,0.0,0.0
1606987949855929704,1602129,1606984348125878197,imu_link,-0.0008982993895187974,-0.0012008319608867168,0.25141969323158264,-0.9678769707679749,0.0,0.0,0.0,0.0,0.0,0.0,0.0,0.0,0.0,-29.12302017211914,0.1590656191110611,0.06503447890281677,0.0,0.0,0.0,0.0,0.0,0.0,0.0,0.0,0.0,0.005811405833810568,0.008620199747383595,0.08351044356822968,0.0,0.0,0.0,0.0,0.0,0.0,0.0,0.0,0.0
1606987949855943173,1602130,1606984348139033865,imu_link,-0.0008982993895187974,-0.0012008319608867168,0.25141969323158264,-0.9678769707679749,0.0,0.0,0.0,0.0,0.0,0.0,0.0,0.0,0.0,-29.12302017211914,0.1590656191110611,0.06503447890281677,0.0,0.0,0.0,0.0,0.0,0.0,0.0,0.0,0.0,0.005811405833810568,0.008620199747383595,0.08351044356822968,0.0,0.0,0.0,0.0,0.0,0.0,0.0,0.0,0.0
1606987949913825835,1602131,1606984348139137676,imu_link,-0.0008966584573499858,-0.0012019355781376362,0.2514186501502991,-0.9678772687911987,0.0,0.0,0.0,0.0,0.0,0.0,0.0,0.0,0.0,-29.122896194458008,0.1591406762599945,0.06482084840536118,0.0,0.0,0.0,0.0,0.0,0.0,0.0,0.0,0.0,0.007155698724091053,0.009585188701748848,0.07064037024974823,0.0,0.0,0.0,0.0,0.0,0.0,0.0,0.0,0.0
1606987949913848928,1602132,1606984348139212733,imu_link,-0.0008966584573499858,-0.0012019355781376362,0.2514186501502991,-0.9678772687911987,0.0,0.0,0.0,0.0,0.0,0.0,0.0,0.0,0.0,-29.122896194458008,0.1591406762599945,0.06482084840536118,0.0,0.0,0.0,0.0,0.0,0.0,0.0,0.0,0.0,0.007155698724091053,0.009585188701748848,0.07064037024974823,0.0,0.0,0.0,0.0,0.0,0.0,0.0,0.0,0.0
1606987949913892298,1602133,1606984348139273182,imu_link,-0.0008995304815471172,-0.0012026751646772027,0.2514170706272125,-0.9678776860237122,0.0,0.0,0.0,0.0,0.0,0.0,0.0,0.0,0.0,-29.122709274291992,0.1593053638935089,0.06511834263801575,0.0,0.0,0.0,0.0,0.0,0.0,0.0,0.0,0.0,0.007309986278414726,0.0023717894218862057,0.03674760460853577,0.0,0.0,0.0,0.0,0.0,0.0,0.0,0.0,0.0
1606987949913901488,1602134,1606984348139364160,imu_link,-0.0008995304815471172,-0.0012026751646772027,0.2514170706272125,-0.9678776860237122,0.0,0.0,0.0,0.0,0.0,0.0,0.0,0.0,0.0,-29.122709274291992,0.1593053638935089,0.06511834263801575,0.0,0.0,0.0,0.0,0.0,0.0,0.0,0.0,0.0,0.007309986278414726,0.0023717894218862057,0.03674760460853577,0.0,0.0,0.0,0.0,0.0,0.0,0.0,0.0,0.0
1606987949913925064,1602135,1606984348139447968,imu_link,-0.0008997545228339732,-0.0012013117084279656,0.25141575932502747,-0.9678780436515808,0.0,0.0,0.0,0.0,0.0,0.0,0.0,0.0,0.0,-29.1225528717041,0.15916049480438232,0.06518269330263138,0.0,0.0,0.0,0.0,0.0,0.0,0.0,0.0,0.0,-0.00279247690923512,-0.0068517629988491535,0.02232469990849495,0.0,0.0,0.0,0.0,0.0,0.0,0.0,0.0,0.0
1606987949920369975,1602136,1606984348139517358,imu_link,-0.0008997545228339732,-0.0012013117084279656,0.25141575932502747,-0.9678780436515808,0.0,0.0,0.0,0.0,0.0,0.0,0.0,0.0,0.0,-29.1225528717041,0.15916049480438232,0.06518269330263138,0.0,0.0,0.0,0.0,0.0,0.0,0.0,0.0,0.0,-0.00279247690923512,-0.0068517629988491535,0.02232469990849495,0.0,0.0,0.0,0.0,0.0,0.0,0.0,0.0,0.0
1606987949920397038,1602137,1606984348139575303,imu_link,-0.0008982085855677724,-0.0012018745765089989,0.25141671299934387,-0.9678778052330017,0.0,0.0,0.0,0.0,0.0,0.0,0.0,0.0,0.0,-29.122665405273438,0.1591784507036209,0.06499484926462173,0.0,0.0,0.0,0.0,0.0,0.0,0.0,0.0,0.0,-0.00964037049561739,-0.012128247879445553,0.030894747003912926,0.0,0.0,0.0,0.0,0.0,0.0,0.0,0.0,0.0
1606987949920415178,1602138,1606984348139634174,imu_link,-0.0008982085855677724,-0.0012018745765089989,0.25141671299934387,-0.9678778052330017,0.0,0.0,0.0,0.0,0.0,0.0,0.0,0.0,0.0,-29.122665405273438,0.1591784507036209,0.06499484926462173,0.0,0.0,0.0,0.0,0.0,0.0,0.0,0.0,0.0,-0.00964037049561739,-0.012128247879445553,0.030894747003912926,0.0,0.0,0.0,0.0,0.0,0.0,0.0,0.0,0.0
1606987949920432775,1602139,1606984348139691379,imu_link,-0.0008986131870187819,-0.001201043138280511,0.2514185309410095,-0.9678773283958435,0.0,0.0,0.0,0.0,0.0,0.0,0.0,0.0,0.0,-29.122880935668945,0.15909801423549652,0.06506337225437164,0.0,0.0,0.0,0.0,0.0,0.0,0.0,0.0,0.0,-0.015707606449723244,-0.005387485027313232,0.05674739181995392,0.0,0.0,0.0,0.0,0.0,0.0,0.0,0.0,0.0
1606987949925630234,1602140,1606984348139786454,imu_link,-0.0008986131870187819,-0.001201043138280511,0.2514185309410095,-0.9678773283958435,0.0,0.0,0.0,0.0,0.0,0.0,0.0,0.0,0.0,-29.122880935668945,0.15909801423549652,0.06506337225437164,0.0,0.0,0.0,0.0,0.0,0.0,0.0,0.0,0.0,-0.015707606449723244,-0.005387485027313232,0.05674739181995392,0.0,0.0,0.0,0.0,0.0,0.0,0.0,0.0,0.0
1606987949925690753,1602141,1606984348151921795,imu_link,-0.0009004221647046506,-0.001203076564706862,0.2514207661151886,-0.9678767323493958,0.0,0.0,0.0,0.0,0.0,0.0,0.0,0.0,0.0,-29.123146057128906,0.15937581658363342,0.06520506739616394,0.0,0.0,0.0,0.0,0.0,0.0,0.0,0.0,0.0,-0.011666676960885525,0.0031131121795624495,0.04843853414058685,0.0,0.0,0.0,0.0,0.0,0.0,0.0,0.0,0.0
1606987949925726001,1602142,1606984348152026572,imu_link,-0.0009004221647046506,-0.001203076564706862,0.2514207661151886,-0.9678767323493958,0.0,0.0,0.0,0.0,0.0,0.0,0.0,0.0,0.0,-29.123146057128906,0.15937581658363342,0.06520506739616394,0.0,0.0,0.0,0.0,0.0,0.0,0.0,0.0,0.0,-0.011666676960885525,0.0031131121795624495,0.04843853414058685,0.0,0.0,0.0,0.0,0.0,0.0,0.0,0.0,0.0
1606987949925755045,1602143,1606984348152105806,imu_link,-0.0009009307832457125,-0.0012004021555185318,0.2514219284057617,-0.9678764343261719,0.0,0.0,0.0,0.0,0.0,0.0,0.0,0.0,0.0,-29.12328338623047,0.1590939164161682,0.06533834338188171,0.0,0.0,0.0,0.0,0.0,0.0,0.0,0.0,0.0,0.009019443765282631,-0.004407864063978195,0.024826668202877045,0.0,0.0,0.0,0.0,0.0,0.0,0.0,0.0,0.0
1606987949925767143,1602144,1606984348152170126,imu_link,-0.0009009307832457125,-0.0012004021555185318,0.2514219284057617,-0.9678764343261719,0.0,0.0,0.0,0.0,0.0,0.0,0.0,0.0,0.0,-29.12328338623047,0.1590939164161682,0.06533834338188171,0.0,0.0,0.0,0.0,0.0,0.0,0.0,0.0,0.0,0.009019443765282631,-0.004407864063978195,0.024826668202877045,0.0,0.0,0.0,0.0,0.0,0.0,0.0,0.0,0.0
1606987949928693428,1602145,1606984348152264949,imu_link,-0.0009000863065011799,-0.00119907152839005,0.25142136216163635,-0.9678765535354614,0.0,0.0,0.0,0.0,0.0,0.0,0.0,0.0,0.0,-29.123218536376953,0.1589219719171524,0.06528309732675552,0.0,0.0,0.0,0.0,0.0,0.0,0.0,0.0,0.0,0.01809733174741268,0.001081597525626421,0.03338098153471947,0.0,0.0,0.0,0.0,0.0,0.0,0.0,0.0,0.0
