%time,field.header.seq,field.header.stamp,field.header.frame_id,field.orientation.x,field.orientation.y,field.orientation.z,field.orientation.w,field.orientation_covariance0,field.orientation_covariance1,field.orientation_covariance2,field.orientation_covariance3,field.orientation_covariance4,field.orientation_covariance5,field.orientation_covariance6,field.orientation_covariance7,field.orientation_covariance8,field.angular_velocity.x,field.angular_velocity.y,field.angular_velocity.z,field.angular_velocity_covariance0,field.angular_velocity_covariance1,field.angular_velocity_covariance2,field.angular_velocity_covariance3,field.angular_velocity_covariance4,field.angular_velocity_covariance5,field.angular_velocity_covariance6,field.angular_velocity_covariance7,field.angular_velocity_covariance8,field.linear_acceleration.x,field.linear_acceleration.y,field.linear_acceleration.z,field.linear_acceleration_covariance0,field.linear_acceleration_covariance1,field.linear_acceleration_covariance2,field.linear_acceleration_covariance3,field.linear_acceleration_covariance4,field.linear_acceleration_covariance5,field.linear_acceleration_covariance6,field.linear_acceleration_covariance7,field.linear_acceleration_covariance8
1606987635788424221,1351751,1606984035160553679,imu_link,-0.002032499760389328,-0.004623648710548878,0.31003516912460327,-0.950711727142334,0.0,0.0,0.0,0.0,0.0,0.0,0.0,0.0,0.0,-36.12288284301758,0.5759357810020447,0.057164330035448074,0.0,0.0,0.0,0.0,0.0,0.0,0.0,0.0,0.0,-0.005495991557836533,-0.012432924471795559,0.06461481004953384,0.0,0.0,0.0,0.0,0.0,0.0,0.0,0.0,0.0
1606987635788446645,1351752,1606984035160689564,imu_link,-0.002032499760389328,-0.004623648710548878,0.31003516912460327,-0.950711727142334,0.0,0.0,0.0,0.0,0.0,0.0,0.0,0.0,0.0,-36.12288284301758,0.5759357810020447,0.057164330035448074,0.0,0.0,0.0,0.0,0.0,0.0,0.0,0.0,0.0,-0.005495991557836533,-0.012432924471795559,0.06461481004953384,0.0,0.0,0.0,0.0,0.0,0.0,0.0,0.0,0.0
1606987635788454139,1351753,1606984035160861983,imu_link,-0.0020320878829807043,-0.004624329507350922,0.310037225484848,-0.9507110714912415,0.0,0.0,0.0,0.0,0.0,0.0,0.0,0.0,0.0,-36.12313461303711,0.5759955048561096,0.057094015181064606,0.0,0.0,0.0,0.0,0.0,0.0,0.0,0.0,0.0,0.0018302490934729576,0.0022040975745767355,0.016478419303894043,0.0,0.0,0.0,0.0,0.0,0.0,0.0,0.0,0.0
1606987635788462596,1351754,1606984035160954246,imu_link,-0.0020320878829807043,-0.004624329507350922,0.310037225484848,-0.9507110714912415,0.0,0.0,0.0,0.0,0.0,0.0,0.0,0.0,0.0,-36.12313461303711,0.5759955048561096,0.057094015181064606,0.0,0.0,0.0,0.0,0.0,0.0,0.0,0.0,0.0,0.0018302490934729576,0.0022040975745767355,0.016478419303894043,0.0,0.0,0.0,0.0,0.0,0.0,0.0,0.0,0.0
1606987635788475872,1351755,1606984035161034412,imu_link,-0.0020312978886067867,-0.00462561147287488,0.3100317716598511,-0.9507127404212952,0.0,0.0,0.0,0.0,0.0,0.0,0.0,0.0,0.0,-36.12248229980469,0.5761066675186157,0.056965701282024384,0.0,0.0,0.0,0.0,0.0,0.0,0.0,0.0,0.0,-0.006965605076402426,0.008624307811260223,-0.003818163648247719,0.0,0.0,0.0,0.0,0.0,0.0,0.0,0.0,0.0
1606987635788507067,1351756,1606984035161363353,imu_link,-0.0020312978886067867,-0.00462561147287488,0.3100317716598511,-0.9507127404212952,0.0,0.0,0.0,0.0,0.0,0.0,0.0,0.0,0.0,-36.12248229980469,0.5761066675186157,0.056965701282024384,0.0,0.0,0.0,0.0,0.0,0.0,0.0,0.0,0.0,-0.006965605076402426,0.008624307811260223,-0.003818163648247719,0.0,0.0,0.0,0.0,0.0,0.0,0.0,0.0,0.0
1606987635788522100,1351757,1606984035161446516,imu_link,-0.0020290110260248184,-0.0046248286962509155,0.3100340962409973,-0.9507120847702026,0.0,0.0,0.0,0.0,0.0,0.0,0.0,0.0,0.0,-36.12275695800781,0.5759403705596924,0.05674295499920845,0.0,0.0,0.0,0.0,0.0,0.0,0.0,0.0,0.0,-0.017652688547968864,0.002841639332473278,0.02639332041144371,0.0,0.0,0.0,0.0,0.0,0.0,0.0,0.0,0.0
1606987635788536879,1351758,1606984035161606782,imu_link,-0.0020290110260248184,-0.0046248286962509155,0.3100340962409973,-0.9507120847702026,0.0,0.0,0.0,0.0,0.0,0.0,0.0,0.0,0.0,-36.12275695800781,0.5759403705596924,0.05674295499920845,0.0,0.0,0.0,0.0,0.0,0.0,0.0,0.0,0.0,-0.017652688547968864,0.002841639332473278,0.02639332041144371,0.0,0.0,0.0,0.0,0.0,0.0,0.0,0.0,0.0
1606987635803289599,1351759,1606984035161693086,imu_link,-0.00202761753462255,-0.004621506668627262,0.31003037095069885,-0.9507133364677429,0.0,0.0,0.0,0.0,0.0,0.0,0.0,0.0,0.0,-36.12230682373047,0.5755286812782288,0.05671142414212227,0.0,0.0,0.0,0.0,0.0,0.0,0.0,0.0,0.0,0.006995015311986208,-0.0015133909182623029,0.027659157291054726,0.0,0.0,0.0,0.0,0.0,0.0,0.0,0.0,0.0
1606987635803316896,1351760,1606984035161770275,imu_link,-0.00202761753462255,-0.004621506668627262,0.31003037095069885,-0.9507133364677429,0.0,0.0,0.0,0.0,0.0,0.0,0.0,0.0,0.0,-36.12230682373047,0.5755286812782288,0.05671142414212227,0.0,0.0,0.0,0.0,0.0,0.0,0.0,0.0,0.0,0.006995015311986208,-0.0015133909182623029,0.027659157291054726,0.0,0.0,0.0,0.0,0.0,0.0,0.0,0.0,0.0
1606987635803331773,1351761,1606984035173884376,imu_link,-0.002028446877375245,-0.004621733445674181,0.3100310266017914,-0.9507130980491638,0.0,0.0,0.0,0.0,0.0,0.0,0.0,0.0,0.0,-36.12238693237305,0.5755828619003296,0.05679332837462425,0.0,0.0,0.0,0.0,0.0,0.0,0.0,0.0,0.0,0.013056005351245403,-0.010064448229968548,0.007802396081387997,0.0,0.0,0.0,0.0,0.0,0.0,0.0,0.0,0.0
1606987635803359787,1351762,1606984035174032022,imu_link,-0.002028446877375245,-0.004621733445674181,0.3100310266017914,-0.9507130980491638,0.0,0.0,0.0,0.0,0.0,0.0,0.0,0.0,0.0,-36.12238693237305,0.5755828619003296,0.05679332837462425,0.0,0.0,0.0,0.0,0.0,0.0,0.0,0.0,0.0,0.013056005351245403,-0.010064448229968548,0.007802396081387997,0.0,0.0,0.0,0.0,0.0,0.0,0.0,0.0,0.0
1606987635803377616,1351763,1606984035174206165,imu_link,-0.002031969605013728,-0.0046238042414188385,0.31003129482269287,-0.9507129788398743,0.0,0.0,0.0,0.0,0.0,0.0,0.0,0.0,0.0,-36.12242126464844,0.5759336352348328,0.05710337311029434,0.0,0.0,0.0,0.0,0.0,0.0,0.0,0.0,0.0,0.00280256406404078,-0.009073030203580856,0.00838133692741394,0.0,0.0,0.0,0.0,0.0,0.0,0.0,0.0,0.0
1606987635803418219,1351764,1606984035174303982,imu_link,-0.002031969605013728,-0.0046238042414188385,0.31003129482269287,-0.9507129788398743,0.0,0.0,0.0,0.0,0.0,0.0,0.0,0.0,0.0,-36.12242126464844,0.5759336352348328,0.05710337311029434,0.0,0.0,0.0,0.0,0.0,0.0,0.0,0.0,0.0,0.00280256406404078,-0.009073030203580856,0.00838133692741394,0.0,0.0,0.0,0.0,0.0,0.0,0.0,0.0,0.0
1606987635803430186,1351765,1606984035174382153,imu_link,-0.0020322513300925493,-0.004622978158295155,0.31003308296203613,-0.9507124423980713,0.0,0.0,0.0,0.0,0.0,0.0,0.0,0.0,0.0,-36.12263488769531,0.5758538246154785,0.05716235190629959,0.0,0.0,0.0,0.0,0.0,0.0,0.0,0.0,0.0,0.009896551258862019,-0.005300059448927641,0.02676227129995823,0.0,0.0,0.0,0.0,0.0,0.0,0.0,0.0,0.0
1606987635803453475,1351766,1606984035174468928,imu_link,-0.0020322513300925493,-0.004622978158295155,0.31003308296203613,-0.9507124423980713,0.0,0.0,0.0,0.0,0.0,0.0,0.0,0.0,0.0,-36.12263488769531,0.5758538246154785,0.05716235190629959,0.0,0.0,0.0,0.0,0.0,0.0,0.0,0.0,0.0,0.009896551258862019,-0.005300059448927641,0.02676227129995823,0.0,0.0,0.0,0.0,0.0,0.0,0.0,0.0,0.0
1606987635803567665,1351767,1606984035174568609,imu_link,-0.0020343412179499865,-0.004624273627996445,0.3100346624851227,-0.9507119059562683,0.0,0.0,0.0,0.0,0.0,0.0,0.0,0.0,0.0,-36.12281799316406,0.5760692954063416,0.05734306946396828,0.0,0.0,0.0,0.0,0.0,0.0,0.0,0.0,0.0,0.00864403136074543,-0.00635889545083046,0.054148394614458084,0.0,0.0,0.0,0.0,0.0,0.0,0.0,0.0,0.0
1606987635803580838,1351768,1606984035174646129,imu_link,-0.0020343412179499865,-0.004624273627996445,0.3100346624851227,-0.9507119059562683,0.0,0.0,0.0,0.0,0.0,0.0,0.0,0.0,0.0,-36.12281799316406,0.5760692954063416,0.05734306946396828,0.0,0.0,0.0,0.0,0.0,0.0,0.0,0.0,0.0,0.00864403136074543,-0.00635889545083046,0.054148394614458084,0.0,0.0,0.0,0.0,0.0,0.0,0.0,0.0,0.0
1606987635803658015,1351769,1606984035174729416,imu_link,-0.002032981952652335,-0.00462340610101819,0.3100353181362152,-0.9507116079330444,0.0,0.0,0.0,0.0,0.0,0.0,0.0,0.0,0.0,-36.12290573120117,0.5759264826774597,0.05722538381814957,0.0,0.0,0.0,0.0,0.0,0.0,0.0,0.0,0.0,-0.005723224021494389,-0.014768561348319054,0.030792037025094032,0.0,0.0,0.0,0.0,0.0,0.0,0.0,0.0,0.0
1606987635803708291,1351770,1606984035174815350,imu_link,-0.002032981952652335,-0.00462340610101819,0.3100353181362152,-0.9507116079330444,0.0,0.0,0.0,0.0,0.0,0.0,0.0,0.0,0.0,-36.12290573120117,0.5759264826774597,0.05722538381814957,0.0,0.0,0.0,0.0,0.0,0.0,0.0,0.0,0.0,-0.005723224021494389,-0.014768561348319054,0.030792037025094032,0.0,0.0,0.0,0.0,0.0,0.0,0.0,0.0,0.0
1606987635803731834,1351771,1606984035174898703,imu_link,-0.002036099322140217,-0.004621216561645269,0.3100360631942749,-0.9507113695144653,0.0,0.0,0.0,0.0,0.0,0.0,0.0,0.0,0.0,-36.12299346923828,0.575798749923706,0.057642363011837006,0.0,0.0,0.0,0.0,0.0,0.0,0.0,0.0,0.0,0.004824651405215263,-0.005314456764608622,0.017205586656928062,0.0,0.0,0.0,0.0,0.0,0.0,0.0,0.0,0.0
1606987635803751009,1351772,1606984035187720226,imu_link,-0.002036099322140217,-0.004621216561645269,0.3100360631942749,-0.9507113695144653,0.0,0.0,0.0,0.0,0.0,0.0,0.0,0.0,0.0,-36.12299346923828,0.575798749923706,0.057642363011837006,0.0,0.0,0.0,0.0,0.0,0.0,0.0,0.0,0.0,0.004824651405215263,-0.005314456764608622,0.017205586656928062,0.0,0.0,0.0,0.0,0.0,0.0,0.0,0.0,0.0
1606987635803787272,1351773,1606984035187865718,imu_link,-0.0020360476337373257,-0.004620646126568317,0.3100375235080719,-0.9507109522819519,0.0,0.0,0.0,0.0,0.0,0.0,0.0,0.0,0.0,-36.123165130615234,0.5757348537445068,0.05765611305832863,0.0,0.0,0.0,0.0,0.0,0.0,0.0,0.0,0.0,0.02260923571884632,0.01178700290620327,0.03488316759467125,0.0,0.0,0.0,0.0,0.0,0.0,0.0,0.0,0.0
1606987635803809513,1351774,1606984035188019218,imu_link,-0.0020360476337373257,-0.004620646126568317,0.3100375235080719,-0.9507109522819519,0.0,0.0,0.0,0.0,0.0,0.0,0.0,0.0,0.0,-36.123165130615234,0.5757348537445068,0.05765611305832863,0.0,0.0,0.0,0.0,0.0,0.0,0.0,0.0,0.0,0.02260923571884632,0.01178700290620327,0.03488316759467125,0.0,0.0,0.0,0.0,0.0,0.0,0.0,0.0,0.0
1606987635803839244,1351775,1606984035188120036,imu_link,-0.002036402467638254,-0.004622809588909149,0.3100396990776062,-0.9507102370262146,0.0,0.0,0.0,0.0,0.0,0.0,0.0,0.0,0.0,-36.12342834472656,0.5759832859039307,0.05761659890413284,0.0,0.0,0.0,0.0,0.0,0.0,0.0,0.0,0.0,0.014183223247528076,0.011090307496488094,0.047264426946640015,0.0,0.0,0.0,0.0,0.0,0.0,0.0,0.0,0.0
1606987635814781842,1351776,1606984035188208285,imu_link,-0.002036402467638254,-0.004622809588909149,0.3100396990776062,-0.9507102370262146,0.0,0.0,0.0,0.0,0.0,0.0,0.0,0.0,0.0,-36.12342834472656,0.5759832859039307,0.05761659890413284,0.0,0.0,0.0,0.0,0.0,0.0,0.0,0.0,0.0,0.014183223247528076,0.011090307496488094,0.047264426946640015,0.0,0.0,0.0,0.0,0.0,0.0,0.0,0.0,0.0
1606987635814819024,1351777,1606984035188285434,imu_link,-0.002037419006228447,-0.004622821230441332,0.31003740429878235,-0.9507109522819519,0.0,0.0,0.0,0.0,0.0,0.0,0.0,0.0,0.0,-36.12315368652344,0.5760204792022705,0.057728320360183716,0.0,0.0,0.0,0.0,0.0,0.0,0.0,0.0,0.0,-0.0063485498540103436,0.010326479561626911,0.04645124077796936,0.0,0.0,0.0,0.0,0.0,0.0,0.0,0.0,0.0
1606987635814829474,1351778,1606984035188386668,imu_link,-0.002037419006228447,-0.004622821230441332,0.31003740429878235,-0.9507109522819519,0.0,0.0,0.0,0.0,0.0,0.0,0.0,0.0,0.0,-36.12315368652344,0.5760204792022705,0.057728320360183716,0.0,0.0,0.0,0.0,0.0,0.0,0.0,0.0,0.0,-0.0063485498540103436,0.010326479561626911,0.04645124077796936,0.0,0.0,0.0,0.0,0.0,0.0,0.0,0.0,0.0
1606987635814836607,1351779,1606984035188469811,imu_link,-0.0020343747455626726,-0.004619629122316837,0.31003716588020325,-0.9507110118865967,0.0,0.0,0.0,0.0,0.0,0.0,0.0,0.0,0.0,-36.12312698364258,0.5755645632743835,0.05751018971204758,0.0,0.0,0.0,0.0,0.0,0.0,0.0,0.0,0.0,0.009129454381763935,0.007434582803398371,0.044245436787605286,0.0,0.0,0.0,0.0,0.0,0.0,0.0,0.0,0.0
1606987635814844496,1351780,1606984035188546553,imu_link,-0.0020343747455626726,-0.004619629122316837,0.31003716588020325,-0.9507110118865967,0.0,0.0,0.0,0.0,0.0,0.0,0.0,0.0,0.0,-36.12312698364258,0.5755645632743835,0.05751018971204758,0.0,0.0,0.0,0.0,0.0,0.0,0.0,0.0,0.0,0.009129454381763935,0.007434582803398371,0.044245436787605286,0.0,0.0,0.0,0.0,0.0,0.0,0.0,0.0,0.0
1606987635814850750,1351781,1606984035188631720,imu_link,-0.0020358399488031864,-0.004619781393557787,0.3100385069847107,-0.9507105946540833,0.0,0.0,0.0,0.0,0.0,0.0,0.0,0.0,0.0,-36.123287200927734,0.5756332874298096,0.05766361579298973,0.0,0.0,0.0,0.0,0.0,0.0,0.0,0.0,0.0,0.027120348066091537,0.0018211870919913054,0.05635050684213638,0.0,0.0,0.0,0.0,0.0,0.0,0.0,0.0,0.0
1606987635814866451,1351782,1606984035188713615,imu_link,-0.0020358399488031864,-0.004619781393557787,0.3100385069847107,-0.9507105946540833,0.0,0.0,0.0,0.0,0.0,0.0,0.0,0.0,0.0,-36.123287200927734,0.5756332874298096,0.05766361579298973,0.0,0.0,0.0,0.0,0.0,0.0,0.0,0.0,0.0,0.027120348066091537,0.0018211870919913054,0.05635050684213638,0.0,0.0,0.0,0.0,0.0,0.0,0.0,0.0,0.0
1606987635814881382,1351783,1606984035201144208,imu_link,-0.0020389873534440994,-0.00462509598582983,0.31003811955451965,-0.9507107138633728,0.0,0.0,0.0,0.0,0.0,0.0,0.0,0.0,0.0,-36.12324142456055,0.5763240456581116,0.057817935943603516,0.0,0.0,0.0,0.0,0.0,0.0,0.0,0.0,0.0,0.00792399886995554,-0.016124071553349495,0.04863094910979271,0.0,0.0,0.0,0.0,0.0,0.0,0.0,0.0,0.0
1606987635814905840,1351784,1606984035201282869,imu_link,-0.0020389873534440994,-0.00462509598582983,0.31003811955451965,-0.9507107138633728,0.0,0.0,0.0,0.0,0.0,0.0,0.0,0.0,0.0,-36.12324142456055,0.5763240456581116,0.057817935943603516,0.0,0.0,0.0,0.0,0.0,0.0,0.0,0.0,0.0,0.00792399886995554,-0.016124071553349495,0.04863094910979271,0.0,0.0,0.0,0.0,0.0,0.0,0.0,0.0,0.0
1606987635814955449,1351785,1606984035201378185,imu_link,-0.0020394870080053806,-0.0046264114789664745,0.3100387156009674,-0.9507104754447937,0.0,0.0,0.0,0.0,0.0,0.0,0.0,0.0,0.0,-36.12331008911133,0.5764852166175842,0.05782525986433029,0.0,0.0,0.0,0.0,0.0,0.0,0.0,0.0,0.0,0.014620654284954071,-0.007794681936502457,0.046118706464767456,0.0,0.0,0.0,0.0,0.0,0.0,0.0,0.0,0.0
1606987635814966799,1351786,1606984035201463452,imu_link,-0.0020394870080053806,-0.0046264114789664745,0.3100387156009674,-0.9507104754447937,0.0,0.0,0.0,0.0,0.0,0.0,0.0,0.0,0.0,-36.12331008911133,0.5764852166175842,0.05782525986433029,0.0,0.0,0.0,0.0,0.0,0.0,0.0,0.0,0.0,0.014620654284954071,-0.007794681936502457,0.046118706464767456,0.0,0.0,0.0,0.0,0.0,0.0,0.0,0.0,0.0
1606987635814983401,1351787,1606984035201554387,imu_link,-0.002041360829025507,-0.004628319758921862,0.3100382685661316,-0.950710654258728,0.0,0.0,0.0,0.0,0.0,0.0,0.0,0.0,0.0,-36.12325668334961,0.5767596364021301,0.05796189606189728,0.0,0.0,0.0,0.0,0.0,0.0,0.0,0.0,0.0,0.013051813468337059,0.0025551686994731426,0.05063321441411972,0.0,0.0,0.0,0.0,0.0,0.0,0.0,0.0,0.0
1606987635814990292,1351788,1606984035201638176,imu_link,-0.002041360829025507,-0.004628319758921862,0.3100382685661316,-0.950710654258728,0.0,0.0,0.0,0.0,0.0,0.0,0.0,0.0,0.0,-36.12325668334961,0.5767596364021301,0.05796189606189728,0.0,0.0,0.0,0.0,0.0,0.0,0.0,0.0,0.0,0.013051813468337059,0.0025551686994731426,0.05063321441411972,0.0,0.0,0.0,0.0,0.0,0.0,0.0,0.0,0.0
1606987635815000141,1351789,1606984035201738564,imu_link,-0.0020417377818375826,-0.004628283903002739,0.3100391924381256,-0.9507103562355042,0.0,0.0,0.0,0.0,0.0,0.0,0.0,0.0,0.0,-36.12336730957031,0.576769232749939,0.05800366401672363,0.0,0.0,0.0,0.0,0.0,0.0,0.0,0.0,0.0,-0.004708109889179468,0.00579156493768096,0.051284708082675934,0.0,0.0,0.0,0.0,0.0,0.0,0.0,0.0,0.0
1606987635815008869,1351790,1606984035201821796,imu_link,-0.0020417377818375826,-0.004628283903002739,0.3100391924381256,-0.9507103562355042,0.0,0.0,0.0,0.0,0.0,0.0,0.0,0.0,0.0,-36.12336730957031,0.576769232749939,0.05800366401672363,0.0,0.0,0.0,0.0,0.0,0.0,0.0,0.0,0.0,-0.004708109889179468,0.00579156493768096,0.051284708082675934,0.0,0.0,0.0,0.0,0.0,0.0,0.0,0.0,0.0
1606987635815034755,1351791,1606984035201898769,imu_link,-0.0020392604637891054,-0.0046285283751785755,0.3100409209728241,-0.9507097601890564,0.0,0.0,0.0,0.0,0.0,0.0,0.0,0.0,0.0,-36.12357711791992,0.5767078399658203,0.057724032551050186,0.0,0.0,0.0,0.0,0.0,0.0,0.0,0.0,0.0,0.0035221108701080084,0.0026338405441492796,0.03436492756009102,0.0,0.0,0.0,0.0,0.0,0.0,0.0,0.0,0.0
1606987635815044575,1351792,1606984035201987520,imu_link,-0.0020392604637891054,-0.0046285283751785755,0.3100409209728241,-0.9507097601890564,0.0,0.0,0.0,0.0,0.0,0.0,0.0,0.0,0.0,-36.12357711791992,0.5767078399658203,0.057724032551050186,0.0,0.0,0.0,0.0,0.0,0.0,0.0,0.0,0.0,0.0035221108701080084,0.0026338405441492796,0.03436492756009102,0.0,0.0,0.0,0.0,0.0,0.0,0.0,0.0,0.0
1606987635815061707,1351793,1606984035202116724,imu_link,-0.0020405659452080727,-0.0046309069730341434,0.31004124879837036,-0.9507096409797668,0.0,0.0,0.0,0.0,0.0,0.0,0.0,0.0,0.0,-36.123619079589844,0.5770134329795837,0.05778155103325844,0.0,0.0,0.0,0.0,0.0,0.0,0.0,0.0,0.0,-0.010330729186534882,-0.009278357960283756,0.022772734984755516,0.0,0.0,0.0,0.0,0.0,0.0,0.0,0.0,0.0
1606987635815105255,1351794,1606984035215009035,imu_link,-0.0020405659452080727,-0.0046309069730341434,0.31004124879837036,-0.9507096409797668,0.0,0.0,0.0,0.0,0.0,0.0,0.0,0.0,0.0,-36.123619079589844,0.5770134329795837,0.05778155103325844,0.0,0.0,0.0,0.0,0.0,0.0,0.0,0.0,0.0,-0.010330729186534882,-0.009278357960283756,0.022772734984755516,0.0,0.0,0.0,0.0,0.0,0.0,0.0,0.0,0.0
1606987635815116726,1351795,1606984035215137137,imu_link,-0.0020436570048332214,-0.004629886243492365,0.31004083156585693,-0.9507097601890564,0.0,0.0,0.0,0.0,0.0,0.0,0.0,0.0,0.0,-36.12356948852539,0.5770120620727539,0.058154843747615814,0.0,0.0,0.0,0.0,0.0,0.0,0.0,0.0,0.0,-0.015324654057621956,-0.01252200361341238,0.027666078880429268,0.0,0.0,0.0,0.0,0.0,0.0,0.0,0.0,0.0
1606987635815122294,1351796,1606984035215256724,imu_link,-0.0020436570048332214,-0.004629886243492365,0.31004083156585693,-0.9507097601890564,0.0,0.0,0.0,0.0,0.0,0.0,0.0,0.0,0.0,-36.12356948852539,0.5770120620727539,0.058154843747615814,0.0,0.0,0.0,0.0,0.0,0.0,0.0,0.0,0.0,-0.015324654057621956,-0.01252200361341238,0.027666078880429268,0.0,0.0,0.0,0.0,0.0,0.0,0.0,0.0,0.0
1606987635815133404,1351797,1606984035215344126,imu_link,-0.002044321270659566,-0.004629600793123245,0.31004199385643005,-0.9507094025611877,0.0,0.0,0.0,0.0,0.0,0.0,0.0,0.0,0.0,-36.12370300292969,0.577004611492157,0.05823665112257004,0.0,0.0,0.0,0.0,0.0,0.0,0.0,0.0,0.0,-0.0005061680567450821,0.0010211641201749444,0.03580521419644356,0.0,0.0,0.0,0.0,0.0,0.0,0.0,0.0,0.0
1606987635815173776,1351798,1606984035215439742,imu_link,-0.002044321270659566,-0.004629600793123245,0.31004199385643005,-0.9507094025611877,0.0,0.0,0.0,0.0,0.0,0.0,0.0,0.0,0.0,-36.12370300292969,0.577004611492157,0.05823665112257004,0.0,0.0,0.0,0.0,0.0,0.0,0.0,0.0,0.0,-0.0005061680567450821,0.0010211641201749444,0.03580521419644356,0.0,0.0,0.0,0.0,0.0,0.0,0.0,0.0,0.0
1606987635815189509,1351799,1606984035215542460,imu_link,-0.0020442642271518707,-0.0046315910294651985,0.310042142868042,-0.950709342956543,0.0,0.0,0.0,0.0,0.0,0.0,0.0,0.0,0.0,-36.12372589111328,0.5772194266319275,0.05815963074564934,0.0,0.0,0.0,0.0,0.0,0.0,0.0,0.0,0.0,0.004498505499213934,0.014810358174145222,0.039333220571279526,0.0,0.0,0.0,0.0,0.0,0.0,0.0,0.0,0.0
1606987635815204102,1351800,1606984035215626098,imu_link,-0.0020442642271518707,-0.0046315910294651985,0.310042142868042,-0.950709342956543,0.0,0.0,0.0,0.0,0.0,0.0,0.0,0.0,0.0,-36.12372589111328,0.5772194266319275,0.05815963074564934,0.0,0.0,0.0,0.0,0.0,0.0,0.0,0.0,0.0,0.004498505499213934,0.014810358174145222,0.039333220571279526,0.0,0.0,0.0,0.0,0.0,0.0,0.0,0.0,0.0
1606987635815218578,1351801,1606984035215702395,imu_link,-0.0020442933309823275,-0.004631595686078072,0.31004220247268677,-0.950709342956543,0.0,0.0,0.0,0.0,0.0,0.0,0.0,0.0,0.0,-36.12372970581055,0.5772210359573364,0.05816260725259781,0.0,0.0,0.0,0.0,0.0,0.0,0.0,0.0,0.0,0.0010314993560314178,-0.0011517682578414679,0.0523948073387146,0.0,0.0,0.0,0.0,0.0,0.0,0.0,0.0,0.0
1606987635834656652,1351802,1606984035215790263,imu_link,-0.0020442933309823275,-0.004631595686078072,0.31004220247268677,-0.950709342956543,0.0,0.0,0.0,0.0,0.0,0.0,0.0,0.0,0.0,-36.12372970581055,0.5772210359573364,0.05816260725259781,0.0,0.0,0.0,0.0,0.0,0.0,0.0,0.0,0.0,0.0010314993560314178,-0.0011517682578414679,0.0523948073387146,0.0,0.0,0.0,0.0,0.0,0.0,0.0,0.0,0.0
1606987635834675174,1351803,1606984035215875015,imu_link,-0.0020453447941690683,-0.004631926771253347,0.3100426495075226,-0.9507092237472534,0.0,0.0,0.0,0.0,0.0,0.0,0.0,0.0,0.0,-36.123783111572266,0.5772944688796997,0.05826512724161148,0.0,0.0,0.0,0.0,0.0,0.0,0.0,0.0,0.0,0.003433855250477791,-0.020612001419067383,0.06179007515311241,0.0,0.0,0.0,0.0,0.0,0.0,0.0,0.0,0.0
1606987635834687890,1351804,1606984035215957490,imu_link,-0.0020453447941690683,-0.004631926771253347,0.3100426495075226,-0.9507092237472534,0.0,0.0,0.0,0.0,0.0,0.0,0.0,0.0,0.0,-36.123783111572266,0.5772944688796997,0.05826512724161148,0.0,0.0,0.0,0.0,0.0,0.0,0.0,0.0,0.0,0.003433855250477791,-0.020612001419067383,0.06179007515311241,0.0,0.0,0.0,0.0,0.0,0.0,0.0,0.0,0.0
1606987635834701631,1351805,1606984035227945655,imu_link,-0.0020461194217205048,-0.004633742850273848,0.310043603181839,-0.9507088661193848,0.0,0.0,0.0,0.0,0.0,0.0,0.0,0.0,0.0,-36.123897552490234,0.5775198340415955,0.05828440934419632,0.0,0.0,0.0,0.0,0.0,0.0,0.0,0.0,0.0,0.016798192635178566,-0.02160293236374855,0.05498270317912102,0.0,0.0,0.0,0.0,0.0,0.0,0.0,0.0,0.0
1606987635834713086,1351806,1606984035228084456,imu_link,-0.0020461194217205048,-0.004633742850273848,0.310043603181839,-0.9507088661193848,0.0,0.0,0.0,0.0,0.0,0.0,0.0,0.0,0.0,-36.123897552490234,0.5775198340415955,0.05828440934419632,0.0,0.0,0.0,0.0,0.0,0.0,0.0,0.0,0.0,0.016798192635178566,-0.02160293236374855,0.05498270317912102,0.0,0.0,0.0,0.0,0.0,0.0,0.0,0.0,0.0
1606987635834774704,1351807,1606984035228267890,imu_link,-0.0020512137562036514,-0.004635498858988285,0.3100421130657196,-0.950709342956543,0.0,0.0,0.0,0.0,0.0,0.0,0.0,0.0,0.0,-36.12371826171875,0.5778920650482178,0.05877795070409775,0.0,0.0,0.0,0.0,0.0,0.0,0.0,0.0,0.0,0.001753379125148058,-0.009739652276039124,0.044692449271678925,0.0,0.0,0.0,0.0,0.0,0.0,0.0,0.0,0.0
1606987635834794429,1351808,1606984035228365331,imu_link,-0.0020512137562036514,-0.004635498858988285,0.3100421130657196,-0.950709342956543,0.0,0.0,0.0,0.0,0.0,0.0,0.0,0.0,0.0,-36.12371826171875,0.5778920650482178,0.05877795070409775,0.0,0.0,0.0,0.0,0.0,0.0,0.0,0.0,0.0,0.001753379125148058,-0.009739652276039124,0.044692449271678925,0.0,0.0,0.0,0.0,0.0,0.0,0.0,0.0,0.0
1606987635834804392,1351809,1606984035228450969,imu_link,-0.0020513536874204874,-0.004635040182620287,0.3100410997867584,-0.9507097005844116,0.0,0.0,0.0,0.0,0.0,0.0,0.0,0.0,0.0,-36.123600006103516,0.5778470635414124,0.05881010740995407,0.0,0.0,0.0,0.0,0.0,0.0,0.0,0.0,0.0,-0.019673317670822144,0.00018538208678364754,0.03239870071411133,0.0,0.0,0.0,0.0,0.0,0.0,0.0,0.0,0.0
1606987635834824360,1351810,1606984035228594100,imu_link,-0.0020513536874204874,-0.004635040182620287,0.3100410997867584,-0.9507097005844116,0.0,0.0,0.0,0.0,0.0,0.0,0.0,0.0,0.0,-36.123600006103516,0.5778470635414124,0.05881010740995407,0.0,0.0,0.0,0.0,0.0,0.0,0.0,0.0,0.0,-0.019673317670822144,0.00018538208678364754,0.03239870071411133,0.0,0.0,0.0,0.0,0.0,0.0,0.0,0.0,0.0
1606987635834873847,1351811,1606984035228690072,imu_link,-0.0020502686966210604,-0.004634260665625334,0.3100397288799286,-0.950710117816925,0.0,0.0,0.0,0.0,0.0,0.0,0.0,0.0,0.0,-36.12343215942383,0.5777234435081482,0.058720432221889496,0.0,0.0,0.0,0.0,0.0,0.0,0.0,0.0,0.0,-0.012835381552577019,-0.0009185198578052223,0.008727790787816048,0.0,0.0,0.0,0.0,0.0,0.0,0.0,0.0,0.0
1606987635834900169,1351812,1606984035228780301,imu_link,-0.0020502686966210604,-0.004634260665625334,0.3100397288799286,-0.950710117816925,0.0,0.0,0.0,0.0,0.0,0.0,0.0,0.0,0.0,-36.12343215942383,0.5777234435081482,0.058720432221889496,0.0,0.0,0.0,0.0,0.0,0.0,0.0,0.0,0.0,-0.012835381552577019,-0.0009185198578052223,0.008727790787816048,0.0,0.0,0.0,0.0,0.0,0.0,0.0,0.0,0.0
1606987635834938974,1351813,1606984035228856853,imu_link,-0.002051516203209758,-0.00463348813354969,0.3100387454032898,-0.9507104754447937,0.0,0.0,0.0,0.0,0.0,0.0,0.0,0.0,0.0,-36.12330627441406,0.5776835680007935,0.0588843859732151,0.0,0.0,0.0,0.0,0.0,0.0,0.0,0.0,0.0,0.013464069925248623,-0.0036367482971400023,0.010665738955140114,0.0,0.0,0.0,0.0,0.0,0.0,0.0,0.0,0.0
1606987635834947309,1351814,1606984035228940151,imu_link,-0.002051516203209758,-0.00463348813354969,0.3100387454032898,-0.9507104754447937,0.0,0.0,0.0,0.0,0.0,0.0,0.0,0.0,0.0,-36.12330627441406,0.5776835680007935,0.0588843859732151,0.0,0.0,0.0,0.0,0.0,0.0,0.0,0.0,0.0,0.013464069925248623,-0.0036367482971400023,0.010665738955140114,0.0,0.0,0.0,0.0,0.0,0.0,0.0,0.0,0.0
1606987635834958167,1351815,1606984035241367517,imu_link,-0.0020525313448160887,-0.004635111428797245,0.310036301612854,-0.9507112503051758,0.0,0.0,0.0,0.0,0.0,0.0,0.0,0.0,0.0,-36.123016357421875,0.5778963565826416,0.05893879383802414,0.0,0.0,0.0,0.0,0.0,0.0,0.0,0.0,0.0,0.01451773289591074,0.0008248179219663143,0.04564009606838226,0.0,0.0,0.0,0.0,0.0,0.0,0.0,0.0,0.0
1606987635834974256,1351816,1606984035241507927,imu_link,-0.0020525313448160887,-0.004635111428797245,0.310036301612854,-0.9507112503051758,0.0,0.0,0.0,0.0,0.0,0.0,0.0,0.0,0.0,-36.123016357421875,0.5778963565826416,0.05893879383802414,0.0,0.0,0.0,0.0,0.0,0.0,0.0,0.0,0.0,0.01451773289591074,0.0008248179219663143,0.04564009606838226,0.0,0.0,0.0,0.0,0.0,0.0,0.0,0.0,0.0
1606987635834986381,1351817,1606984035241683213,imu_link,-0.0020514584612101316,-0.004635977558791637,0.31003567576408386,-0.9507114887237549,0.0,0.0,0.0,0.0,0.0,0.0,0.0,0.0,0.0,-36.12294006347656,0.5779525637626648,0.058791521936655045,0.0,0.0,0.0,0.0,0.0,0.0,0.0,0.0,0.0,0.0006450802902691066,0.006071440409868956,0.05115514248609543,0.0,0.0,0.0,0.0,0.0,0.0,0.0,0.0,0.0
1606987635834993957,1351818,1606984035241786266,imu_link,-0.0020514584612101316,-0.004635977558791637,0.31003567576408386,-0.9507114887237549,0.0,0.0,0.0,0.0,0.0,0.0,0.0,0.0,0.0,-36.12294006347656,0.5779525637626648,0.058791521936655045,0.0,0.0,0.0,0.0,0.0,0.0,0.0,0.0,0.0,0.0006450802902691066,0.006071440409868956,0.05115514248609543,0.0,0.0,0.0,0.0,0.0,0.0,0.0,0.0,0.0
1606987635835006098,1351819,1606984035241873794,imu_link,-0.002052335999906063,-0.004635048098862171,0.3100402355194092,-0.9507099986076355,0.0,0.0,0.0,0.0,0.0,0.0,0.0,0.0,0.0,-36.12348937988281,0.5778828263282776,0.058917369693517685,0.0,0.0,0.0,0.0,0.0,0.0,0.0,0.0,0.0,0.007216665893793106,0.00785868801176548,0.04321497306227684,0.0,0.0,0.0,0.0,0.0,0.0,0.0,0.0,0.0
1606987635838318639,1351820,1606984035241960890,imu_link,-0.002052335999906063,-0.004635048098862171,0.3100402355194092,-0.9507099986076355,0.0,0.0,0.0,0.0,0.0,0.0,0.0,0.0,0.0,-36.12348937988281,0.5778828263282776,0.058917369693517685,0.0,0.0,0.0,0.0,0.0,0.0,0.0,0.0,0.0,0.007216665893793106,0.00785868801176548,0.04321497306227684,0.0,0.0,0.0,0.0,0.0,0.0,0.0,0.0,0.0
1606987635838336218,1351821,1606984035242072138,imu_link,-0.0020513301715254784,-0.00463319756090641,0.3100408613681793,-0.9507097601890564,0.0,0.0,0.0,0.0,0.0,0.0,0.0,0.0,0.0,-36.123565673828125,0.5776454210281372,0.05887315422296524,0.0,0.0,0.0,0.0,0.0,0.0,0.0,0.0,0.0,0.015209285542368889,0.021272912621498108,0.03923032805323601,0.0,0.0,0.0,0.0,0.0,0.0,0.0,0.0,0.0
1606987635838371916,1351822,1606984035242160247,imu_link,-0.0020513301715254784,-0.00463319756090641,0.3100408613681793,-0.9507097601890564,0.0,0.0,0.0,0.0,0.0,0.0,0.0,0.0,0.0,-36.123565673828125,0.5776454210281372,0.05887315422296524,0.0,0.0,0.0,0.0,0.0,0.0,0.0,0.0,0.0,0.015209285542368889,0.021272912621498108,0.03923032805323601,0.0,0.0,0.0,0.0,0.0,0.0,0.0,0.0,0.0
1606987635838387359,1351823,1606984035242237966,imu_link,-0.0020484072156250477,-0.004636706784367561,0.3100455701351166,-0.9507082104682922,0.0,0.0,0.0,0.0,0.0,0.0,0.0,0.0,0.0,-36.12413787841797,0.5779241919517517,0.05842716246843338,0.0,0.0,0.0,0.0,0.0,0.0,0.0,0.0,0.0,0.005714007653295994,0.024942448362708092,0.0510726124048233,0.0,0.0,0.0,0.0,0.0,0.0,0.0,0.0,0.0
1606987635838397371,1351824,1606984035242320593,imu_link,-0.0020484072156250477,-0.004636706784367561,0.3100455701351166,-0.9507082104682922,0.0,0.0,0.0,0.0,0.0,0.0,0.0,0.0,0.0,-36.12413787841797,0.5779241919517517,0.05842716246843338,0.0,0.0,0.0,0.0,0.0,0.0,0.0,0.0,0.0,0.005714007653295994,0.024942448362708092,0.0510726124048233,0.0,0.0,0.0,0.0,0.0,0.0,0.0,0.0,0.0
1606987635844881696,1351825,1606984035242399134,imu_link,-0.002049054251983762,-0.004633935168385506,0.31004974246025085,-0.9507068395614624,0.0,0.0,0.0,0.0,0.0,0.0,0.0,0.0,0.0,-36.124637603759766,0.5776454210281372,0.058593589812517166,0.0,0.0,0.0,0.0,0.0,0.0,0.0,0.0,0.0,-0.006490104831755161,0.020801737904548645,0.059069886803627014,0.0,0.0,0.0,0.0,0.0,0.0,0.0,0.0,0.0
1606987635844904230,1351826,1606984035255180915,imu_link,-0.002049054251983762,-0.004633935168385506,0.31004974246025085,-0.9507068395614624,0.0,0.0,0.0,0.0,0.0,0.0,0.0,0.0,0.0,-36.124637603759766,0.5776454210281372,0.058593589812517166,0.0,0.0,0.0,0.0,0.0,0.0,0.0,0.0,0.0,-0.006490104831755161,0.020801737904548645,0.059069886803627014,0.0,0.0,0.0,0.0,0.0,0.0,0.0,0.0,0.0
1606987635844916936,1351827,1606984035255316389,imu_link,-0.002046056790277362,-0.004633042961359024,0.31005504727363586,-0.9507051706314087,0.0,0.0,0.0,0.0,0.0,0.0,0.0,0.0,0.0,-36.12527847290039,0.5774421691894531,0.05829549953341484,0.0,0.0,0.0,0.0,0.0,0.0,0.0,0.0,0.0,-0.00872260332107544,0.016165219247341156,0.03128935396671295,0.0,0.0,0.0,0.0,0.0,0.0,0.0,0.0,0.0
1606987635844926299,1351828,1606984035255487901,imu_link,-0.002046056790277362,-0.004633042961359024,0.31005504727363586,-0.9507051706314087,0.0,0.0,0.0,0.0,0.0,0.0,0.0,0.0,0.0,-36.12527847290039,0.5774421691894531,0.05829549953341484,0.0,0.0,0.0,0.0,0.0,0.0,0.0,0.0,0.0,-0.00872260332107544,0.016165219247341156,0.03128935396671295,0.0,0.0,0.0,0.0,0.0,0.0,0.0,0.0,0.0
1606987635856463295,1351829,1606984035255568983,imu_link,-0.002047690562903881,-0.004634440876543522,0.310055136680603,-0.9507051110267639,0.0,0.0,0.0,0.0,0.0,0.0,0.0,0.0,0.0,-36.12529373168945,0.5776524543762207,0.05842377245426178,0.0,0.0,0.0,0.0,0.0,0.0,0.0,0.0,0.0,-0.0008473483612760901,0.005297105759382248,0.01278406847268343,0.0,0.0,0.0,0.0,0.0,0.0,0.0,0.0,0.0
1606987635856483499,1351830,1606984035255646919,imu_link,-0.002047690562903881,-0.004634440876543522,0.310055136680603,-0.9507051110267639,0.0,0.0,0.0,0.0,0.0,0.0,0.0,0.0,0.0,-36.12529373168945,0.5776524543762207,0.05842377245426178,0.0,0.0,0.0,0.0,0.0,0.0,0.0,0.0,0.0,-0.0008473483612760901,0.005297105759382248,0.01278406847268343,0.0,0.0,0.0,0.0,0.0,0.0,0.0,0.0,0.0
1606987635856496416,1351831,1606984035255745657,imu_link,-0.002047551330178976,-0.0046344841830432415,0.3100583255290985,-0.950704038143158,0.0,0.0,0.0,0.0,0.0,0.0,0.0,0.0,0.0,-36.125675201416016,0.5776523947715759,0.05840511620044708,0.0,0.0,0.0,0.0,0.0,0.0,0.0,0.0,0.0,0.020050883293151855,0.019336460158228874,0.01761174201965332,0.0,0.0,0.0,0.0,0.0,0.0,0.0,0.0,0.0
1606987635856503850,1351832,1606984035255865219,imu_link,-0.002047551330178976,-0.0046344841830432415,0.3100583255290985,-0.950704038143158,0.0,0.0,0.0,0.0,0.0,0.0,0.0,0.0,0.0,-36.125675201416016,0.5776523947715759,0.05840511620044708,0.0,0.0,0.0,0.0,0.0,0.0,0.0,0.0,0.0,0.020050883293151855,0.019336460158228874,0.01761174201965332,0.0,0.0,0.0,0.0,0.0,0.0,0.0,0.0,0.0
1606987635856520583,1351833,1606984035255954390,imu_link,-0.002048190450295806,-0.004634363576769829,0.31005778908729553,-0.9507042169570923,0.0,0.0,0.0,0.0,0.0,0.0,0.0,0.0,0.0,-36.125606536865234,0.57766193151474,0.05847937613725662,0.0,0.0,0.0,0.0,0.0,0.0,0.0,0.0,0.0,0.01415021438151598,0.021465782076120377,0.01437415461987257,0.0,0.0,0.0,0.0,0.0,0.0,0.0,0.0,0.0
1606987635856534366,1351834,1606984035256051565,imu_link,-0.002048190450295806,-0.004634363576769829,0.31005778908729553,-0.9507042169570923,0.0,0.0,0.0,0.0,0.0,0.0,0.0,0.0,0.0,-36.125606536865234,0.57766193151474,0.05847937613725662,0.0,0.0,0.0,0.0,0.0,0.0,0.0,0.0,0.0,0.01415021438151598,0.021465782076120377,0.01437415461987257,0.0,0.0,0.0,0.0,0.0,0.0,0.0,0.0,0.0
1606987635856545972,1351835,1606984035256137028,imu_link,-0.002043501241132617,-0.004639334976673126,0.3100547194480896,-0.9507052302360535,0.0,0.0,0.0,0.0,0.0,0.0,0.0,0.0,0.0,-36.125244140625,0.5780367851257324,0.05779371038079262,0.0,0.0,0.0,0.0,0.0,0.0,0.0,0.0,0.0,-0.002100939629599452,0.01425863616168499,0.023206660524010658,0.0,0.0,0.0,0.0,0.0,0.0,0.0,0.0,0.0
1606987635856553221,1351836,1606984035256223328,imu_link,-0.002043501241132617,-0.004639334976673126,0.3100547194480896,-0.9507052302360535,0.0,0.0,0.0,0.0,0.0,0.0,0.0,0.0,0.0,-36.125244140625,0.5780367851257324,0.05779371038079262,0.0,0.0,0.0,0.0,0.0,0.0,0.0,0.0,0.0,-0.002100939629599452,0.01425863616168499,0.023206660524010658,0.0,0.0,0.0,0.0,0.0,0.0,0.0,0.0,0.0
1606987635863590734,1351837,1606984035268643557,imu_link,-0.0020442113745957613,-0.0046395184472203255,0.31005528569221497,-0.9507049918174744,0.0,0.0,0.0,0.0,0.0,0.0,0.0,0.0,0.0,-36.12531280517578,0.5780820250511169,0.05786420404911041,0.0,0.0,0.0,0.0,0.0,0.0,0.0,0.0,0.0,-0.011690475046634674,0.01467334944754839,0.05169350281357765,0.0,0.0,0.0,0.0,0.0,0.0,0.0,0.0,0.0
1606987635863605518,1351838,1606984035268784999,imu_link,-0.0020442113745957613,-0.0046395184472203255,0.31005528569221497,-0.9507049918174744,0.0,0.0,0.0,0.0,0.0,0.0,0.0,0.0,0.0,-36.12531280517578,0.5780820250511169,0.05786420404911041,0.0,0.0,0.0,0.0,0.0,0.0,0.0,0.0,0.0,-0.011690475046634674,0.01467334944754839,0.05169350281357765,0.0,0.0,0.0,0.0,0.0,0.0,0.0,0.0,0.0
1606987635863618141,1351839,1606984035268986511,imu_link,-0.0020386327523738146,-0.004638008773326874,0.31004980206489563,-0.9507068395614624,0.0,0.0,0.0,0.0,0.0,0.0,0.0,0.0,0.0,-36.12464904785156,0.57771897315979,0.057313401252031326,0.0,0.0,0.0,0.0,0.0,0.0,0.0,0.0,0.0,-0.01919327676296234,0.009486950002610683,0.04498152434825897,0.0,0.0,0.0,0.0,0.0,0.0,0.0,0.0,0.0
1606987635863626037,1351840,1606984035269084868,imu_link,-0.0020386327523738146,-0.004638008773326874,0.31004980206489563,-0.9507068395614624,0.0,0.0,0.0,0.0,0.0,0.0,0.0,0.0,0.0,-36.12464904785156,0.57771897315979,0.057313401252031326,0.0,0.0,0.0,0.0,0.0,0.0,0.0,0.0,0.0,-0.01919327676296234,0.009486950002610683,0.04498152434825897,0.0,0.0,0.0,0.0,0.0,0.0,0.0,0.0,0.0
1606987635863633763,1351841,1606984035269169289,imu_link,-0.002037670463323593,-0.004639916587620974,0.3100513815879822,-0.9507063031196594,0.0,0.0,0.0,0.0,0.0,0.0,0.0,0.0,0.0,-36.12484359741211,0.5778927803039551,0.057139817625284195,0.0,0.0,0.0,0.0,0.0,0.0,0.0,0.0,0.0,-0.012824890203773975,0.01292483601719141,0.01968470588326454,0.0,0.0,0.0,0.0,0.0,0.0,0.0,0.0,0.0
1606987635863639947,1351842,1606984035269288224,imu_link,-0.002037670463323593,-0.004639916587620974,0.3100513815879822,-0.9507063031196594,0.0,0.0,0.0,0.0,0.0,0.0,0.0,0.0,0.0,-36.12484359741211,0.5778927803039551,0.057139817625284195,0.0,0.0,0.0,0.0,0.0,0.0,0.0,0.0,0.0,-0.012824890203773975,0.01292483601719141,0.01968470588326454,0.0,0.0,0.0,0.0,0.0,0.0,0.0,0.0,0.0
1606987635863649065,1351843,1606984035269393999,imu_link,-0.0020348981488496065,-0.00463838642463088,0.3100535571575165,-0.9507055878639221,0.0,0.0,0.0,0.0,0.0,0.0,0.0,0.0,0.0,-36.12510299682617,0.5776275992393494,0.0568908229470253,0.0,0.0,0.0,0.0,0.0,0.0,0.0,0.0,0.0,0.002510984428226948,0.012809943407773972,0.03027423471212387,0.0,0.0,0.0,0.0,0.0,0.0,0.0,0.0,0.0
1606987635863666194,1351844,1606984035269473899,imu_link,-0.0020348981488496065,-0.00463838642463088,0.3100535571575165,-0.9507055878639221,0.0,0.0,0.0,0.0,0.0,0.0,0.0,0.0,0.0,-36.12510299682617,0.5776275992393494,0.0568908229470253,0.0,0.0,0.0,0.0,0.0,0.0,0.0,0.0,0.0,0.002510984428226948,0.012809943407773972,0.03027423471212387,0.0,0.0,0.0,0.0,0.0,0.0,0.0,0.0,0.0
1606987635877984651,1351845,1606984035269551157,imu_link,-0.0020342899952083826,-0.00463842274621129,0.31005266308784485,-0.950705885887146,0.0,0.0,0.0,0.0,0.0,0.0,0.0,0.0,0.0,-36.125,0.5776098966598511,0.05682382360100746,0.0,0.0,0.0,0.0,0.0,0.0,0.0,0.0,0.0,0.003904349636286497,0.01498481910675764,0.05789261311292648,0.0,0.0,0.0,0.0,0.0,0.0,0.0,0.0,0.0
1606987635878004745,1351846,1606984035269631543,imu_link,-0.0020342899952083826,-0.00463842274621129,0.31005266308784485,-0.950705885887146,0.0,0.0,0.0,0.0,0.0,0.0,0.0,0.0,0.0,-36.125,0.5776098966598511,0.05682382360100746,0.0,0.0,0.0,0.0,0.0,0.0,0.0,0.0,0.0,0.003904349636286497,0.01498481910675764,0.05789261311292648,0.0,0.0,0.0,0.0,0.0,0.0,0.0,0.0,0.0
1606987635878032318,1351847,1606984035269712636,imu_link,-0.002031927462667227,-0.004639256279915571,0.31005460023880005,-0.9507052898406982,0.0,0.0,0.0,0.0,0.0,0.0,0.0,0.0,0.0,-36.1252326965332,0.5776169300079346,0.056535638868808746,0.0,0.0,0.0,0.0,0.0,0.0,0.0,0.0,0.0,0.004714955110102892,0.018035119399428368,0.06633258610963821,0.0,0.0,0.0,0.0,0.0,0.0,0.0,0.0,0.0
1606987635878042600,1351848,1606984035281578748,imu_link,-0.002031927462667227,-0.004639256279915571,0.31005460023880005,-0.9507052898406982,0.0,0.0,0.0,0.0,0.0,0.0,0.0,0.0,0.0,-36.1252326965332,0.5776169300079346,0.056535638868808746,0.0,0.0,0.0,0.0,0.0,0.0,0.0,0.0,0.0,0.004714955110102892,0.018035119399428368,0.06633258610963821,0.0,0.0,0.0,0.0,0.0,0.0,0.0,0.0,0.0
1606987635878054443,1351849,1606984035281719634,imu_link,-0.0020329596009105444,-0.004640620201826096,0.3100554049015045,-0.9507050514221191,0.0,0.0,0.0,0.0,0.0,0.0,0.0,0.0,0.0,-36.125328063964844,0.577802300453186,0.056599147617816925,0.0,0.0,0.0,0.0,0.0,0.0,0.0,0.0,0.0,0.009164152666926384,0.008550640195608139,0.031330808997154236,0.0,0.0,0.0,0.0,0.0,0.0,0.0,0.0,0.0
1606987635878065755,1351850,1606984035281877655,imu_link,-0.0020329596009105444,-0.004640620201826096,0.3100554049015045,-0.9507050514221191,0.0,0.0,0.0,0.0,0.0,0.0,0.0,0.0,0.0,-36.125328063964844,0.577802300453186,0.056599147617816925,0.0,0.0,0.0,0.0,0.0,0.0,0.0,0.0,0.0,0.009164152666926384,0.008550640195608139,0.031330808997154236,0.0,0.0,0.0,0.0,0.0,0.0,0.0,0.0,0.0
1606987635878072709,1351851,1606984035281981139,imu_link,-0.0020324336364865303,-0.004641693085432053,0.3100489377975464,-0.9507071375846863,0.0,0.0,0.0,0.0,0.0,0.0,0.0,0.0,0.0,-36.12454605102539,0.5779001116752625,0.05650763958692551,0.0,0.0,0.0,0.0,0.0,0.0,0.0,0.0,0.0,-0.0004915230674669147,-0.008407180197536945,0.022619931027293205,0.0,0.0,0.0,0.0,0.0,0.0,0.0,0.0,0.0
1606987635878082989,1351852,1606984035282060638,imu_link,-0.0020324336364865303,-0.004641693085432053,0.3100489377975464,-0.9507071375846863,0.0,0.0,0.0,0.0,0.0,0.0,0.0,0.0,0.0,-36.12454605102539,0.5779001116752625,0.05650763958692551,0.0,0.0,0.0,0.0,0.0,0.0,0.0,0.0,0.0,-0.0004915230674669147,-0.008407180197536945,0.022619931027293205,0.0,0.0,0.0,0.0,0.0,0.0,0.0,0.0,0.0
1606987635878096367,1351853,1606984035282247115,imu_link,-0.0020318033639341593,-0.004641576670110226,0.3100513219833374,-0.9507063627243042,0.0,0.0,0.0,0.0,0.0,0.0,0.0,0.0,0.0,-36.124839782714844,0.5778651833534241,0.05644165724515915,0.0,0.0,0.0,0.0,0.0,0.0,0.0,0.0,0.0,-0.003405415453016758,-0.004663604777306318,0.065205879509449,0.0,0.0,0.0,0.0,0.0,0.0,0.0,0.0,0.0
1606987635885094200,1351854,1606984035282334341,imu_link,-0.0020318033639341593,-0.004641576670110226,0.3100513219833374,-0.9507063627243042,0.0,0.0,0.0,0.0,0.0,0.0,0.0,0.0,0.0,-36.124839782714844,0.5778651833534241,0.05644165724515915,0.0,0.0,0.0,0.0,0.0,0.0,0.0,0.0,0.0,-0.003405415453016758,-0.004663604777306318,0.065205879509449,0.0,0.0,0.0,0.0,0.0,0.0,0.0,0.0,0.0
1606987635885115466,1351855,1606984035282417193,imu_link,-0.0020313463173806667,-0.004638946149498224,0.310044527053833,-0.9507085680961609,0.0,0.0,0.0,0.0,0.0,0.0,0.0,0.0,0.0,-36.1240234375,0.5775619149208069,0.056489456444978714,0.0,0.0,0.0,0.0,0.0,0.0,0.0,0.0,0.0,0.014719086699187756,0.004261923488229513,0.07538149505853653,0.0,0.0,0.0,0.0,0.0,0.0,0.0,0.0,0.0
1606987635885132852,1351856,1606984035282494462,imu_link,-0.0020313463173806667,-0.004638946149498224,0.310044527053833,-0.9507085680961609,0.0,0.0,0.0,0.0,0.0,0.0,0.0,0.0,0.0,-36.1240234375,0.5775619149208069,0.056489456444978714,0.0,0.0,0.0,0.0,0.0,0.0,0.0,0.0,0.0,0.014719086699187756,0.004261923488229513,0.07538149505853653,0.0,0.0,0.0,0.0,0.0,0.0,0.0,0.0,0.0
1606987635885140806,1351857,1606984035282577995,imu_link,-0.0020309460815042257,-0.0046386439353227615,0.3100440800189972,-0.9507087469100952,0.0,0.0,0.0,0.0,0.0,0.0,0.0,0.0,0.0,-36.123966217041016,0.5775148272514343,0.05645687133073807,0.0,0.0,0.0,0.0,0.0,0.0,0.0,0.0,0.0,0.021111827343702316,-0.01815791055560112,0.04332850128412247,0.0,0.0,0.0,0.0,0.0,0.0,0.0,0.0,0.0
1606987635885156049,1351858,1606984035295284582,imu_link,-0.0020309460815042257,-0.0046386439353227615,0.3100440800189972,-0.9507087469100952,0.0,0.0,0.0,0.0,0.0,0.0,0.0,0.0,0.0,-36.123966217041016,0.5775148272514343,0.05645687133073807,0.0,0.0,0.0,0.0,0.0,0.0,0.0,0.0,0.0,0.021111827343702316,-0.01815791055560112,0.04332850128412247,0.0,0.0,0.0,0.0,0.0,0.0,0.0,0.0,0.0
1606987635885172038,1351859,1606984035295428149,imu_link,-0.0020357519388198853,-0.0046418290585279465,0.31004929542541504,-0.9507070183753967,0.0,0.0,0.0,0.0,0.0,0.0,0.0,0.0,0.0,-36.12459182739258,0.5780328512191772,0.05686413124203682,0.0,0.0,0.0,0.0,0.0,0.0,0.0,0.0,0.0,0.012196924537420273,-0.01291076373308897,0.0279292743653059,0.0,0.0,0.0,0.0,0.0,0.0,0.0,0.0,0.0
1606987635885190235,1351860,1606984035295607459,imu_link,-0.0020357519388198853,-0.0046418290585279465,0.31004929542541504,-0.9507070183753967,0.0,0.0,0.0,0.0,0.0,0.0,0.0,0.0,0.0,-36.12459182739258,0.5780328512191772,0.05686413124203682,0.0,0.0,0.0,0.0,0.0,0.0,0.0,0.0,0.0,0.012196924537420273,-0.01291076373308897,0.0279292743653059,0.0,0.0,0.0,0.0,0.0,0.0,0.0,0.0,0.0
1606987635885199471,1351861,1606984035295694481,imu_link,-0.002033916534855962,-0.004641510080546141,0.31005001068115234,-0.9507067799568176,0.0,0.0,0.0,0.0,0.0,0.0,0.0,0.0,0.0,-36.12467575073242,0.5779329538345337,0.056675057858228683,0.0,0.0,0.0,0.0,0.0,0.0,0.0,0.0,0.0,0.007099733222275972,0.01035494077950716,0.028199074789881706,0.0,0.0,0.0,0.0,0.0,0.0,0.0,0.0,0.0
1606987635885212346,1351862,1606984035295802872,imu_link,-0.002033916534855962,-0.004641510080546141,0.31005001068115234,-0.9507067799568176,0.0,0.0,0.0,0.0,0.0,0.0,0.0,0.0,0.0,-36.12467575073242,0.5779329538345337,0.056675057858228683,0.0,0.0,0.0,0.0,0.0,0.0,0.0,0.0,0.0,0.007099733222275972,0.01035494077950716,0.028199074789881706,0.0,0.0,0.0,0.0,0.0,0.0,0.0,0.0,0.0
1606987635886259538,1351863,1606984035295907744,imu_link,-0.0020326038356870413,-0.004645374603569508,0.3100557029247284,-0.9507048726081848,0.0,0.0,0.0,0.0,0.0,0.0,0.0,0.0,0.0,-36.1253662109375,0.5783076286315918,0.05639124661684036,0.0,0.0,0.0,0.0,0.0,0.0,0.0,0.0,0.0,-0.0098124910145998,0.0008070244221016765,0.050984445959329605,0.0,0.0,0.0,0.0,0.0,0.0,0.0,0.0,0.0
1606987635886277972,1351864,1606984035296019448,imu_link,-0.0020326038356870413,-0.004645374603569508,0.3100557029247284,-0.9507048726081848,0.0,0.0,0.0,0.0,0.0,0.0,0.0,0.0,0.0,-36.1253662109375,0.5783076286315918,0.05639124661684036,0.0,0.0,0.0,0.0,0.0,0.0,0.0,0.0,0.0,-0.0098124910145998,0.0008070244221016765,0.050984445959329605,0.0,0.0,0.0,0.0,0.0,0.0,0.0,0.0,0.0
1606987635886285125,1351865,1606984035296097328,imu_link,-0.002033878117799759,-0.00464519253000617,0.31005603075027466,-0.95070481300354,0.0,0.0,0.0,0.0,0.0,0.0,0.0,0.0,0.0,-36.125404357910156,0.5783330798149109,0.056536369025707245,0.0,0.0,0.0,0.0,0.0,0.0,0.0,0.0,0.0,-0.006004473194479942,-0.015469393692910671,0.058811791241168976,0.0,0.0,0.0,0.0,0.0,0.0,0.0,0.0,0.0
1606987635886301146,1351866,1606984035296180711,imu_link,-0.002033878117799759,-0.00464519253000617,0.31005603075027466,-0.95070481300354,0.0,0.0,0.0,0.0,0.0,0.0,0.0,0.0,0.0,-36.125404357910156,0.5783330798149109,0.056536369025707245,0.0,0.0,0.0,0.0,0.0,0.0,0.0,0.0,0.0,-0.006004473194479942,-0.015469393692910671,0.058811791241168976,0.0,0.0,0.0,0.0,0.0,0.0,0.0,0.0,0.0
1606987635886309471,1351867,1606984035296258521,imu_link,-0.0020358131732791662,-0.004640477243810892,0.3100498616695404,-0.9507068395614624,0.0,0.0,0.0,0.0,0.0,0.0,0.0,0.0,0.0,-36.124656677246094,0.577887773513794,0.05691848322749138,0.0,0.0,0.0,0.0,0.0,0.0,0.0,0.0,0.0,0.0009483617031946778,-0.0036721026990562677,0.03489183261990547,0.0,0.0,0.0,0.0,0.0,0.0,0.0,0.0,0.0
1606987635906945330,1351868,1606984035296331325,imu_link,-0.0020358131732791662,-0.004640477243810892,0.3100498616695404,-0.9507068395614624,0.0,0.0,0.0,0.0,0.0,0.0,0.0,0.0,0.0,-36.124656677246094,0.577887773513794,0.05691848322749138,0.0,0.0,0.0,0.0,0.0,0.0,0.0,0.0,0.0,0.0009483617031946778,-0.0036721026990562677,0.03489183261990547,0.0,0.0,0.0,0.0,0.0,0.0,0.0,0.0,0.0
1606987635906990737,1351869,1606984035308806571,imu_link,-0.002034407574683428,-0.00464125070720911,0.31005004048347473,-0.9507067799568176,0.0,0.0,0.0,0.0,0.0,0.0,0.0,0.0,0.0,-36.12467956542969,0.5779221057891846,0.056737758219242096,0.0,0.0,0.0,0.0,0.0,0.0,0.0,0.0,0.0,-0.0037009252700954676,0.013094657100737095,0.030609047040343285,0.0,0.0,0.0,0.0,0.0,0.0,0.0,0.0,0.0
1606987635907003266,1351870,1606984035308943202,imu_link,-0.002034407574683428,-0.00464125070720911,0.31005004048347473,-0.9507067799568176,0.0,0.0,0.0,0.0,0.0,0.0,0.0,0.0,0.0,-36.12467956542969,0.5779221057891846,0.056737758219242096,0.0,0.0,0.0,0.0,0.0,0.0,0.0,0.0,0.0,-0.0037009252700954676,0.013094657100737095,0.030609047040343285,0.0,0.0,0.0,0.0,0.0,0.0,0.0,0.0,0.0
1606987635907016050,1351871,1606984035309129985,imu_link,-0.002033107914030552,-0.0046417126432061195,0.31004372239112854,-0.9507088661193848,0.0,0.0,0.0,0.0,0.0,0.0,0.0,0.0,0.0,-36.123924255371094,0.5779259204864502,0.05658359080553055,0.0,0.0,0.0,0.0,0.0,0.0,0.0,0.0,0.0,0.0027369530871510506,0.015137070789933205,0.023691702634096146,0.0,0.0,0.0,0.0,0.0,0.0,0.0,0.0,0.0
1606987635907047541,1351872,1606984035309228142,imu_link,-0.002033107914030552,-0.0046417126432061195,0.31004372239112854,-0.9507088661193848,0.0,0.0,0.0,0.0,0.0,0.0,0.0,0.0,0.0,-36.123924255371094,0.5779259204864502,0.05658359080553055,0.0,0.0,0.0,0.0,0.0,0.0,0.0,0.0,0.0,0.0027369530871510506,0.015137070789933205,0.023691702634096146,0.0,0.0,0.0,0.0,0.0,0.0,0.0,0.0,0.0
1606987635907064508,1351873,1606984035309317383,imu_link,-0.0020336105953902006,-0.004641861189156771,0.31004539132118225,-0.9507083296775818,0.0,0.0,0.0,0.0,0.0,0.0,0.0,0.0,0.0,-36.12411880493164,0.5779600739479065,0.05663205683231354,0.0,0.0,0.0,0.0,0.0,0.0,0.0,0.0,0.0,0.0042128730565309525,0.023878643289208412,0.029552850872278214,0.0,0.0,0.0,0.0,0.0,0.0,0.0,0.0,0.0
1606987635907083494,1351874,1606984035309399564,imu_link,-0.0020336105953902006,-0.004641861189156771,0.31004539132118225,-0.9507083296775818,0.0,0.0,0.0,0.0,0.0,0.0,0.0,0.0,0.0,-36.12411880493164,0.5779600739479065,0.05663205683231354,0.0,0.0,0.0,0.0,0.0,0.0,0.0,0.0,0.0,0.0042128730565309525,0.023878643289208412,0.029552850872278214,0.0,0.0,0.0,0.0,0.0,0.0,0.0,0.0,0.0
1606987635907096328,1351875,1606984035309537964,imu_link,-0.002029516501352191,-0.004643999505788088,0.3100510835647583,-0.9507064819335938,0.0,0.0,0.0,0.0,0.0,0.0,0.0,0.0,0.0,-36.124813079833984,0.5780478715896606,0.05610658600926399,0.0,0.0,0.0,0.0,0.0,0.0,0.0,0.0,0.0,-0.0020896324422210455,0.010484260506927967,0.050025779753923416,0.0,0.0,0.0,0.0,0.0,0.0,0.0,0.0,0.0
1606987635907106126,1351876,1606984035309628473,imu_link,-0.002029516501352191,-0.004643999505788088,0.3100510835647583,-0.9507064819335938,0.0,0.0,0.0,0.0,0.0,0.0,0.0,0.0,0.0,-36.124813079833984,0.5780478715896606,0.05610658600926399,0.0,0.0,0.0,0.0,0.0,0.0,0.0,0.0,0.0,-0.0020896324422210455,0.010484260506927967,0.050025779753923416,0.0,0.0,0.0,0.0,0.0,0.0,0.0,0.0,0.0
1606987635909900546,1351877,1606984035309705321,imu_link,-0.0020299197640269995,-0.0046429322101175785,0.31005215644836426,-0.9507061243057251,0.0,0.0,0.0,0.0,0.0,0.0,0.0,0.0,0.0,-36.12493896484375,0.5779459476470947,0.05618778616189957,0.0,0.0,0.0,0.0,0.0,0.0,0.0,0.0,0.0,-0.007488211151212454,-0.009738833643496037,0.05010463297367096,0.0,0.0,0.0,0.0,0.0,0.0,0.0,0.0,0.0
1606987635909919687,1351878,1606984035309777999,imu_link,-0.0020299197640269995,-0.0046429322101175785,0.31005215644836426,-0.9507061243057251,0.0,0.0,0.0,0.0,0.0,0.0,0.0,0.0,0.0,-36.12493896484375,0.5779459476470947,0.05618778616189957,0.0,0.0,0.0,0.0,0.0,0.0,0.0,0.0,0.0,-0.007488211151212454,-0.009738833643496037,0.05010463297367096,0.0,0.0,0.0,0.0,0.0,0.0,0.0,0.0,0.0
1606987635909926160,1351879,1606984035309854306,imu_link,-0.0020312161650508642,-0.004642213694751263,0.3100571036338806,-0.9507045149803162,0.0,0.0,0.0,0.0,0.0,0.0,0.0,0.0,0.0,-36.12553787231445,0.5779140591621399,0.05635155364871025,0.0,0.0,0.0,0.0,0.0,0.0,0.0,0.0,0.0,-0.0172103364020586,-0.007067901082336903,0.03545587509870529,0.0,0.0,0.0,0.0,0.0,0.0,0.0,0.0,0.0
1606987635909935680,1351880,1606984035322751178,imu_link,-0.0020312161650508642,-0.004642213694751263,0.3100571036338806,-0.9507045149803162,0.0,0.0,0.0,0.0,0.0,0.0,0.0,0.0,0.0,-36.12553787231445,0.5779140591621399,0.05635155364871025,0.0,0.0,0.0,0.0,0.0,0.0,0.0,0.0,0.0,-0.0172103364020586,-0.007067901082336903,0.03545587509870529,0.0,0.0,0.0,0.0,0.0,0.0,0.0,0.0,0.0
1606987635910783670,1351881,1606984035322884470,imu_link,-0.0020310168620198965,-0.004642156884074211,0.3100571632385254,-0.9507044553756714,0.0,0.0,0.0,0.0,0.0,0.0,0.0,0.0,0.0,-36.125545501708984,0.5779008269309998,0.0563318096101284,0.0,0.0,0.0,0.0,0.0,0.0,0.0,0.0,0.0,-0.010363457724452019,-0.007613848894834518,0.02699251100420952,0.0,0.0,0.0,0.0,0.0,0.0,0.0,0.0,0.0
1606987635910803982,1351882,1606984035323074621,imu_link,-0.0020310168620198965,-0.004642156884074211,0.3100571632385254,-0.9507044553756714,0.0,0.0,0.0,0.0,0.0,0.0,0.0,0.0,0.0,-36.125545501708984,0.5779008269309998,0.0563318096101284,0.0,0.0,0.0,0.0,0.0,0.0,0.0,0.0,0.0,-0.010363457724452019,-0.007613848894834518,0.02699251100420952,0.0,0.0,0.0,0.0,0.0,0.0,0.0,0.0,0.0
1606987635910821061,1351883,1606984035323156949,imu_link,-0.00203189835883677,-0.004641053266823292,0.31006428599357605,-0.9507021307945251,0.0,0.0,0.0,0.0,0.0,0.0,0.0,0.0,0.0,-36.12640380859375,0.5778123736381531,0.05646273493766785,0.0,0.0,0.0,0.0,0.0,0.0,0.0,0.0,0.0,0.004990804009139538,-0.006852444261312485,0.031534723937511444,0.0,0.0,0.0,0.0,0.0,0.0,0.0,0.0,0.0
1606987635910839048,1351884,1606984035323230314,imu_link,-0.00203189835883677,-0.004641053266823292,0.31006428599357605,-0.9507021307945251,0.0,0.0,0.0,0.0,0.0,0.0,0.0,0.0,0.0,-36.12640380859375,0.5778123736381531,0.05646273493766785,0.0,0.0,0.0,0.0,0.0,0.0,0.0,0.0,0.0,0.004990804009139538,-0.006852444261312485,0.031534723937511444,0.0,0.0,0.0,0.0,0.0,0.0,0.0,0.0,0.0
1606987635910858460,1351885,1606984035323295353,imu_link,-0.002032628981396556,-0.004639849066734314,0.31006383895874023,-0.9507023096084595,0.0,0.0,0.0,0.0,0.0,0.0,0.0,0.0,0.0,-36.126346588134766,0.577707052230835,0.0565853975713253,0.0,0.0,0.0,0.0,0.0,0.0,0.0,0.0,0.0,-0.008730958215892315,-0.010383482091128826,0.0329115130007267,0.0,0.0,0.0,0.0,0.0,0.0,0.0,0.0,0.0
1606987635910870831,1351886,1606984035323395769,imu_link,-0.002032628981396556,-0.004639849066734314,0.31006383895874023,-0.9507023096084595,0.0,0.0,0.0,0.0,0.0,0.0,0.0,0.0,0.0,-36.126346588134766,0.577707052230835,0.0565853975713253,0.0,0.0,0.0,0.0,0.0,0.0,0.0,0.0,0.0,-0.008730958215892315,-0.010383482091128826,0.0329115130007267,0.0,0.0,0.0,0.0,0.0,0.0,0.0,0.0,0.0
1606987635910880457,1351887,1606984035323469200,imu_link,-0.0020343000069260597,-0.004639847204089165,0.3100678622722626,-0.9507009983062744,0.0,0.0,0.0,0.0,0.0,0.0,0.0,0.0,0.0,-36.126827239990234,0.577766478061676,0.05676506459712982,0.0,0.0,0.0,0.0,0.0,0.0,0.0,0.0,0.0,-0.009220854379236698,-0.015924088656902313,0.05315485969185829,0.0,0.0,0.0,0.0,0.0,0.0,0.0,0.0,0.0
1606987635910888182,1351888,1606984035323539024,imu_link,-0.0020343000069260597,-0.004639847204089165,0.3100678622722626,-0.9507009983062744,0.0,0.0,0.0,0.0,0.0,0.0,0.0,0.0,0.0,-36.126827239990234,0.577766478061676,0.05676506459712982,0.0,0.0,0.0,0.0,0.0,0.0,0.0,0.0,0.0,-0.009220854379236698,-0.015924088656902313,0.05315485969185829,0.0,0.0,0.0,0.0,0.0,0.0,0.0,0.0,0.0
1606987635910907191,1351889,1606984035323612892,imu_link,-0.002035654615610838,-0.004638113081455231,0.3100687861442566,-0.9507007002830505,0.0,0.0,0.0,0.0,0.0,0.0,0.0,0.0,0.0,-36.12693786621094,0.5776256918907166,0.056973714381456375,0.0,0.0,0.0,0.0,0.0,0.0,0.0,0.0,0.0,-0.009596776217222214,-0.010900824330747128,0.08911202102899551,0.0,0.0,0.0,0.0,0.0,0.0,0.0,0.0,0.0
1606987635920902358,1351890,1606984035323712618,imu_link,-0.002035654615610838,-0.004638113081455231,0.3100687861442566,-0.9507007002830505,0.0,0.0,0.0,0.0,0.0,0.0,0.0,0.0,0.0,-36.12693786621094,0.5776256918907166,0.056973714381456375,0.0,0.0,0.0,0.0,0.0,0.0,0.0,0.0,0.0,-0.009596776217222214,-0.010900824330747128,0.08911202102899551,0.0,0.0,0.0,0.0,0.0,0.0,0.0,0.0,0.0
1606987635920920038,1351891,1606984035332527965,imu_link,-0.002036020625382662,-0.004636327736079693,0.31006431579589844,-0.9507021903991699,0.0,0.0,0.0,0.0,0.0,0.0,0.0,0.0,0.0,-36.126399993896484,0.5774439573287964,0.0570797473192215,0.0,0.0,0.0,0.0,0.0,0.0,0.0,0.0,0.0,-0.022024448961019516,-0.012501987628638744,0.05779307335615158,0.0,0.0,0.0,0.0,0.0,0.0,0.0,0.0,0.0
1606987635920925769,1351892,1606984035332869134,imu_link,-0.002036020625382662,-0.004636327736079693,0.31006431579589844,-0.9507021903991699,0.0,0.0,0.0,0.0,0.0,0.0,0.0,0.0,0.0,-36.126399993896484,0.5774439573287964,0.0570797473192215,0.0,0.0,0.0,0.0,0.0,0.0,0.0,0.0,0.0,-0.022024448961019516,-0.012501987628638744,0.05779307335615158,0.0,0.0,0.0,0.0,0.0,0.0,0.0,0.0,0.0
1606987635920932338,1351893,1606984035332990079,imu_link,-0.0020359770860522985,-0.004636003170162439,0.3100650906562805,-0.950701892375946,0.0,0.0,0.0,0.0,0.0,0.0,0.0,0.0,0.0,-36.126495361328125,0.5774070620536804,0.05708605796098709,0.0,0.0,0.0,0.0,0.0,0.0,0.0,0.0,0.0,-0.0033829091116786003,-0.0094576645642519,0.02087617665529251,0.0,0.0,0.0,0.0,0.0,0.0,0.0,0.0,0.0
1606987635920961680,1351894,1606984035333079075,imu_link,-0.0020359770860522985,-0.004636003170162439,0.3100650906562805,-0.950701892375946,0.0,0.0,0.0,0.0,0.0,0.0,0.0,0.0,0.0,-36.126495361328125,0.5774070620536804,0.05708605796098709,0.0,0.0,0.0,0.0,0.0,0.0,0.0,0.0,0.0,-0.0033829091116786003,-0.0094576645642519,0.02087617665529251,0.0,0.0,0.0,0.0,0.0,0.0,0.0,0.0,0.0
1606987635923040930,1351895,1606984035333195244,imu_link,-0.0020376278553158045,-0.004635504446923733,0.3100632429122925,-0.9507024884223938,0.0,0.0,0.0,0.0,0.0,0.0,0.0,0.0,0.0,-36.12627029418945,0.5774112939834595,0.05728474631905556,0.0,0.0,0.0,0.0,0.0,0.0,0.0,0.0,0.0,-0.01753758266568184,0.00301567604765296,0.045619942247867584,0.0,0.0,0.0,0.0,0.0,0.0,0.0,0.0,0.0
1606987635923056552,1351896,1606984035333287903,imu_link,-0.0020376278553158045,-0.004635504446923733,0.3100632429122925,-0.9507024884223938,0.0,0.0,0.0,0.0,0.0,0.0,0.0,0.0,0.0,-36.12627029418945,0.5774112939834595,0.05728474631905556,0.0,0.0,0.0,0.0,0.0,0.0,0.0,0.0,0.0,-0.01753758266568184,0.00301567604765296,0.045619942247867584,0.0,0.0,0.0,0.0,0.0,0.0,0.0,0.0,0.0
1606987635923065043,1351897,1606984035333365744,imu_link,-0.002036452293395996,-0.00463832076638937,0.31006360054016113,-0.9507023692131042,0.0,0.0,0.0,0.0,0.0,0.0,0.0,0.0,0.0,-36.126312255859375,0.5776763558387756,0.05705638974905014,0.0,0.0,0.0,0.0,0.0,0.0,0.0,0.0,0.0,-0.023297810927033424,0.005739537999033928,0.04267502203583717,0.0,0.0,0.0,0.0,0.0,0.0,0.0,0.0,0.0
1606987635923072594,1351898,1606984035333460503,imu_link,-0.002036452293395996,-0.00463832076638937,0.31006360054016113,-0.9507023692131042,0.0,0.0,0.0,0.0,0.0,0.0,0.0,0.0,0.0,-36.126312255859375,0.5776763558387756,0.05705638974905014,0.0,0.0,0.0,0.0,0.0,0.0,0.0,0.0,0.0,-0.023297810927033424,0.005739537999033928,0.04267502203583717,0.0,0.0,0.0,0.0,0.0,0.0,0.0,0.0,0.0
1606987635934283113,1351899,1606984035345492093,imu_link,-0.002034568227827549,-0.004635576158761978,0.3100581467151642,-0.9507041573524475,0.0,0.0,0.0,0.0,0.0,0.0,0.0,0.0,0.0,-36.12565994262695,0.5773101449012756,0.05695195496082306,0.0,0.0,0.0,0.0,0.0,0.0,0.0,0.0,0.0,0.0033898530527949333,-0.002305711852386594,0.04731632396578789,0.0,0.0,0.0,0.0,0.0,0.0,0.0,0.0,0.0
1606987635934317047,1351900,1606984035345631019,imu_link,-0.002034568227827549,-0.004635576158761978,0.3100581467151642,-0.9507041573524475,0.0,0.0,0.0,0.0,0.0,0.0,0.0,0.0,0.0,-36.12565994262695,0.5773101449012756,0.05695195496082306,0.0,0.0,0.0,0.0,0.0,0.0,0.0,0.0,0.0,0.0033898530527949333,-0.002305711852386594,0.04731632396578789,0.0,0.0,0.0,0.0,0.0,0.0,0.0,0.0,0.0
1606987635934325245,1351901,1606984035345861768,imu_link,-0.002035032492130995,-0.004635015036910772,0.3100586235523224,-0.950704038143158,0.0,0.0,0.0,0.0,0.0,0.0,0.0,0.0,0.0,-36.12571716308594,0.5772655010223389,0.057022176682949066,0.0,0.0,0.0,0.0,0.0,0.0,0.0,0.0,0.0,0.014943462796509266,-0.004646182991564274,0.08109577000141144,0.0,0.0,0.0,0.0,0.0,0.0,0.0,0.0,0.0
1606987635934342506,1351902,1606984035345963559,imu_link,-0.002035032492130995,-0.004635015036910772,0.3100586235523224,-0.950704038143158,0.0,0.0,0.0,0.0,0.0,0.0,0.0,0.0,0.0,-36.12571716308594,0.5772655010223389,0.057022176682949066,0.0,0.0,0.0,0.0,0.0,0.0,0.0,0.0,0.0,0.014943462796509266,-0.004646182991564274,0.08109577000141144,0.0,0.0,0.0,0.0,0.0,0.0,0.0,0.0,0.0
1606987635934350171,1351903,1606984035346041900,imu_link,-0.0020369940903037786,-0.004635149147361517,0.31005623936653137,-0.9507046937942505,0.0,0.0,0.0,0.0,0.0,0.0,0.0,0.0,0.0,-36.12542724609375,0.5773496031761169,0.057232566177845,0.0,0.0,0.0,0.0,0.0,0.0,0.0,0.0,0.0,0.02585068717598915,-0.009584671817719936,0.0618891678750515,0.0,0.0,0.0,0.0,0.0,0.0,0.0,0.0,0.0
1606987635934361006,1351904,1606984035346180932,imu_link,-0.0020369940903037786,-0.004635149147361517,0.31005623936653137,-0.9507046937942505,0.0,0.0,0.0,0.0,0.0,0.0,0.0,0.0,0.0,-36.12542724609375,0.5773496031761169,0.057232566177845,0.0,0.0,0.0,0.0,0.0,0.0,0.0,0.0,0.0,0.02585068717598915,-0.009584671817719936,0.0618891678750515,0.0,0.0,0.0,0.0,0.0,0.0,0.0,0.0,0.0
1606987635934372865,1351905,1606984035346263768,imu_link,-0.0020374166779220104,-0.004634044598788023,0.31005656719207764,-0.9507046937942505,0.0,0.0,0.0,0.0,0.0,0.0,0.0,0.0,0.0,-36.125465393066406,0.5772443413734436,0.05731766298413277,0.0,0.0,0.0,0.0,0.0,0.0,0.0,0.0,0.0,-0.00013111380394548178,-0.012374469079077244,0.03369465842843056,0.0,0.0,0.0,0.0,0.0,0.0,0.0,0.0,0.0
1606987635934384337,1351906,1606984035346356012,imu_link,-0.0020374166779220104,-0.004634044598788023,0.31005656719207764,-0.9507046937942505,0.0,0.0,0.0,0.0,0.0,0.0,0.0,0.0,0.0,-36.125465393066406,0.5772443413734436,0.05731766298413277,0.0,0.0,0.0,0.0,0.0,0.0,0.0,0.0,0.0,-0.00013111380394548178,-0.012374469079077244,0.03369465842843056,0.0,0.0,0.0,0.0,0.0,0.0,0.0,0.0,0.0
1606987635967288625,1351907,1606984035346445935,imu_link,-0.0020388381090015173,-0.0046355766244232655,0.31005844473838806,-0.9507040977478027,0.0,0.0,0.0,0.0,0.0,0.0,0.0,0.0,0.0,-36.12569046020508,0.5774618983268738,0.05741696059703827,0.0,0.0,0.0,0.0,0.0,0.0,0.0,0.0,0.0,-0.030224943533539772,-0.01173911988735199,0.03642643243074417,0.0,0.0,0.0,0.0,0.0,0.0,0.0,0.0,0.0
1606987635967312874,1351908,1606984035346519245,imu_link,-0.0020388381090015173,-0.0046355766244232655,0.31005844473838806,-0.9507040977478027,0.0,0.0,0.0,0.0,0.0,0.0,0.0,0.0,0.0,-36.12569046020508,0.5774618983268738,0.05741696059703827,0.0,0.0,0.0,0.0,0.0,0.0,0.0,0.0,0.0,-0.030224943533539772,-0.01173911988735199,0.03642643243074417,0.0,0.0,0.0,0.0,0.0,0.0,0.0,0.0,0.0
1606987635967336928,1351909,1606984035358845130,imu_link,-0.0020388083066791296,-0.004633720498532057,0.3100578784942627,-0.9507042765617371,0.0,0.0,0.0,0.0,0.0,0.0,0.0,0.0,0.0,-36.12561798095703,0.5772585868835449,0.057480014860630035,0.0,0.0,0.0,0.0,0.0,0.0,0.0,0.0,0.0,-0.012175288051366806,-0.011349956505000591,0.03641250357031822,0.0,0.0,0.0,0.0,0.0,0.0,0.0,0.0,0.0
1606987635967351917,1351910,1606984035359022877,imu_link,-0.0020388083066791296,-0.004633720498532057,0.3100578784942627,-0.9507042765617371,0.0,0.0,0.0,0.0,0.0,0.0,0.0,0.0,0.0,-36.12561798095703,0.5772585868835449,0.057480014860630035,0.0,0.0,0.0,0.0,0.0,0.0,0.0,0.0,0.0,-0.012175288051366806,-0.011349956505000591,0.03641250357031822,0.0,0.0,0.0,0.0,0.0,0.0,0.0,0.0,0.0
1606987635967391811,1351911,1606984035359199892,imu_link,-0.002038351260125637,-0.004631648771464825,0.31005942821502686,-0.9507037401199341,0.0,0.0,0.0,0.0,0.0,0.0,0.0,0.0,0.0,-36.12580871582031,0.5770167112350464,0.057502880692481995,0.0,0.0,0.0,0.0,0.0,0.0,0.0,0.0,0.0,0.008664802648127079,-0.005423916038125753,0.04160446673631668,0.0,0.0,0.0,0.0,0.0,0.0,0.0,0.0,0.0
1606987635967409865,1351912,1606984035359293824,imu_link,-0.002038351260125637,-0.004631648771464825,0.31005942821502686,-0.9507037401199341,0.0,0.0,0.0,0.0,0.0,0.0,0.0,0.0,0.0,-36.12580871582031,0.5770167112350464,0.057502880692481995,0.0,0.0,0.0,0.0,0.0,0.0,0.0,0.0,0.0,0.008664802648127079,-0.005423916038125753,0.04160446673631668,0.0,0.0,0.0,0.0,0.0,0.0,0.0,0.0,0.0
1606987635967424005,1351913,1606984035359380129,imu_link,-0.0020394320599734783,-0.00463120499625802,0.31005895137786865,-0.9507039189338684,0.0,0.0,0.0,0.0,0.0,0.0,0.0,0.0,0.0,-36.12575149536133,0.5770067572593689,0.05763668939471245,0.0,0.0,0.0,0.0,0.0,0.0,0.0,0.0,0.0,0.012145740911364555,0.007484414614737034,0.04680049791932106,0.0,0.0,0.0,0.0,0.0,0.0,0.0,0.0,0.0
1606987635967439396,1351914,1606984035359469069,imu_link,-0.0020394320599734783,-0.00463120499625802,0.31005895137786865,-0.9507039189338684,0.0,0.0,0.0,0.0,0.0,0.0,0.0,0.0,0.0,-36.12575149536133,0.5770067572593689,0.05763668939471245,0.0,0.0,0.0,0.0,0.0,0.0,0.0,0.0,0.0,0.012145740911364555,0.007484414614737034,0.04680049791932106,0.0,0.0,0.0,0.0,0.0,0.0,0.0,0.0,0.0
1606987635967463699,1351915,1606984035359569362,imu_link,-0.0020380117930471897,-0.004632923752069473,0.31006139516830444,-0.9507030844688416,0.0,0.0,0.0,0.0,0.0,0.0,0.0,0.0,0.0,-36.12604522705078,0.577143669128418,0.05741939693689346,0.0,0.0,0.0,0.0,0.0,0.0,0.0,0.0,0.0,0.014672578312456608,0.006931619718670845,0.03762408718466759,0.0,0.0,0.0,0.0,0.0,0.0,0.0,0.0,0.0
1606987635967483446,1351916,1606984035359649261,imu_link,-0.0020380117930471897,-0.004632923752069473,0.31006139516830444,-0.9507030844688416,0.0,0.0,0.0,0.0,0.0,0.0,0.0,0.0,0.0,-36.12604522705078,0.577143669128418,0.05741939693689346,0.0,0.0,0.0,0.0,0.0,0.0,0.0,0.0,0.0,0.014672578312456608,0.006931619718670845,0.03762408718466759,0.0,0.0,0.0,0.0,0.0,0.0,0.0,0.0,0.0
1606987635967502707,1351917,1606984035359726119,imu_link,-0.002038107020780444,-0.004634799435734749,0.3100612461566925,-0.9507031440734863,0.0,0.0,0.0,0.0,0.0,0.0,0.0,0.0,0.0,-36.12602996826172,0.577351450920105,0.05736321210861206,0.0,0.0,0.0,0.0,0.0,0.0,0.0,0.0,0.0,0.010425166226923466,-0.00807498674839735,0.027750134468078613,0.0,0.0,0.0,0.0,0.0,0.0,0.0,0.0,0.0
1606987635967523352,1351918,1606984035359809111,imu_link,-0.002038107020780444,-0.004634799435734749,0.3100612461566925,-0.9507031440734863,0.0,0.0,0.0,0.0,0.0,0.0,0.0,0.0,0.0,-36.12602996826172,0.577351450920105,0.05736321210861206,0.0,0.0,0.0,0.0,0.0,0.0,0.0,0.0,0.0,0.010425166226923466,-0.00807498674839735,0.027750134468078613,0.0,0.0,0.0,0.0,0.0,0.0,0.0,0.0,0.0
1606987635967536221,1351919,1606984035359898989,imu_link,-0.002039179438725114,-0.004636089783161879,0.3100675642490387,-0.9507010579109192,0.0,0.0,0.0,0.0,0.0,0.0,0.0,0.0,0.0,-36.126792907714844,0.5775303840637207,0.05743036046624184,0.0,0.0,0.0,0.0,0.0,0.0,0.0,0.0,0.0,0.004893014207482338,-0.009630165994167328,0.025341225787997246,0.0,0.0,0.0,0.0,0.0,0.0,0.0,0.0,0.0
1606987635967546499,1351920,1606984035372849536,imu_link,-0.002039179438725114,-0.004636089783161879,0.3100675642490387,-0.9507010579109192,0.0,0.0,0.0,0.0,0.0,0.0,0.0,0.0,0.0,-36.126792907714844,0.5775303840637207,0.05743036046624184,0.0,0.0,0.0,0.0,0.0,0.0,0.0,0.0,0.0,0.004893014207482338,-0.009630165994167328,0.025341225787997246,0.0,0.0,0.0,0.0,0.0,0.0,0.0,0.0,0.0
1606987635967584222,1351921,1606984035372989420,imu_link,-0.002039461862295866,-0.004633738659322262,0.3100675642490387,-0.9507010579109192,0.0,0.0,0.0,0.0,0.0,0.0,0.0,0.0,0.0,-36.12678909301758,0.5772842764854431,0.057544682174921036,0.0,0.0,0.0,0.0,0.0,0.0,0.0,0.0,0.0,0.004075017292052507,0.0057152980007231236,0.03490916267037392,0.0,0.0,0.0,0.0,0.0,0.0,0.0,0.0,0.0
1606987635967935989,1351922,1606984035373181098,imu_link,-0.002039461862295866,-0.004633738659322262,0.3100675642490387,-0.9507010579109192,0.0,0.0,0.0,0.0,0.0,0.0,0.0,0.0,0.0,-36.12678909301758,0.5772842764854431,0.057544682174921036,0.0,0.0,0.0,0.0,0.0,0.0,0.0,0.0,0.0,0.004075017292052507,0.0057152980007231236,0.03490916267037392,0.0,0.0,0.0,0.0,0.0,0.0,0.0,0.0,0.0
1606987635967950558,1351923,1606984035373279341,imu_link,-0.0020402963273227215,-0.004633553791791201,0.3100692331790924,-0.950700581073761,0.0,0.0,0.0,0.0,0.0,0.0,0.0,0.0,0.0,-36.12698745727539,0.5772939324378967,0.057641152292490005,0.0,0.0,0.0,0.0,0.0,0.0,0.0,0.0,0.0,0.014011066406965256,0.007937820628285408,0.05206247419118881,0.0,0.0,0.0,0.0,0.0,0.0,0.0,0.0,0.0
1606987635967973688,1351924,1606984035373358414,imu_link,-0.0020402963273227215,-0.004633553791791201,0.3100692331790924,-0.950700581073761,0.0,0.0,0.0,0.0,0.0,0.0,0.0,0.0,0.0,-36.12698745727539,0.5772939324378967,0.057641152292490005,0.0,0.0,0.0,0.0,0.0,0.0,0.0,0.0,0.0,0.014011066406965256,0.007937820628285408,0.05206247419118881,0.0,0.0,0.0,0.0,0.0,0.0,0.0,0.0,0.0
1606987635967991464,1351925,1606984035373432966,imu_link,-0.002042873529717326,-0.004635299555957317,0.3100697100162506,-0.9507004022598267,0.0,0.0,0.0,0.0,0.0,0.0,0.0,0.0,0.0,-36.127044677734375,0.5775757431983948,0.05785960331559181,0.0,0.0,0.0,0.0,0.0,0.0,0.0,0.0,0.0,0.011916444636881351,0.0016801882302388549,0.05920350179076195,0.0,0.0,0.0,0.0,0.0,0.0,0.0,0.0,0.0
1606987635973654627,1351926,1606984035373531569,imu_link,-0.002042873529717326,-0.004635299555957317,0.3100697100162506,-0.9507004022598267,0.0,0.0,0.0,0.0,0.0,0.0,0.0,0.0,0.0,-36.127044677734375,0.5775757431983948,0.05785960331559181,0.0,0.0,0.0,0.0,0.0,0.0,0.0,0.0,0.0,0.011916444636881351,0.0016801882302388549,0.05920350179076195,0.0,0.0,0.0,0.0,0.0,0.0,0.0,0.0,0.0
1606987635973672055,1351927,1606984035373620250,imu_link,-0.002042439067736268,-0.004634911194443703,0.31007125973701477,-0.9506998658180237,0.0,0.0,0.0,0.0,0.0,0.0,0.0,0.0,0.0,-36.12723159790039,0.577518105506897,0.057825133204460144,0.0,0.0,0.0,0.0,0.0,0.0,0.0,0.0,0.0,-0.004053234122693539,-0.00298201572149992,0.038819700479507446,0.0,0.0,0.0,0.0,0.0,0.0,0.0,0.0,0.0
1606987635973707080,1351928,1606984035373703978,imu_link,-0.002042439067736268,-0.004634911194443703,0.31007125973701477,-0.9506998658180237,0.0,0.0,0.0,0.0,0.0,0.0,0.0,0.0,0.0,-36.12723159790039,0.577518105506897,0.057825133204460144,0.0,0.0,0.0,0.0,0.0,0.0,0.0,0.0,0.0,-0.004053234122693539,-0.00298201572149992,0.038819700479507446,0.0,0.0,0.0,0.0,0.0,0.0,0.0,0.0,0.0
1606987635973721724,1351929,1606984035373780350,imu_link,-0.00204211613163352,-0.004633679520338774,0.31006988883018494,-0.9507003426551819,0.0,0.0,0.0,0.0,0.0,0.0,0.0,0.0,0.0,-36.12706756591797,0.5773723721504211,0.057834550738334656,0.0,0.0,0.0,0.0,0.0,0.0,0.0,0.0,0.0,-0.011981112882494926,-0.0032003168016672134,0.026921501383185387,0.0,0.0,0.0,0.0,0.0,0.0,0.0,0.0,0.0
1606987635973739132,1351930,1606984035373863833,imu_link,-0.00204211613163352,-0.004633679520338774,0.31006988883018494,-0.9507003426551819,0.0,0.0,0.0,0.0,0.0,0.0,0.0,0.0,0.0,-36.12706756591797,0.5773723721504211,0.057834550738334656,0.0,0.0,0.0,0.0,0.0,0.0,0.0,0.0,0.0,-0.011981112882494926,-0.0032003168016672134,0.026921501383185387,0.0,0.0,0.0,0.0,0.0,0.0,0.0,0.0,0.0
1606987635977470404,1351931,1606984035386169828,imu_link,-0.0020415596663951874,-0.004631874151527882,0.3100704848766327,-0.9507001042366028,0.0,0.0,0.0,0.0,0.0,0.0,0.0,0.0,0.0,-36.12714385986328,0.5771558880805969,0.057837698608636856,0.0,0.0,0.0,0.0,0.0,0.0,0.0,0.0,0.0,-0.003633061656728387,0.0010873081628233194,0.026232611387968063,0.0,0.0,0.0,0.0,0.0,0.0,0.0,0.0,0.0
1606987635977529585,1351932,1606984035386312679,imu_link,-0.0020415596663951874,-0.004631874151527882,0.3100704848766327,-0.9507001042366028,0.0,0.0,0.0,0.0,0.0,0.0,0.0,0.0,0.0,-36.12714385986328,0.5771558880805969,0.057837698608636856,0.0,0.0,0.0,0.0,0.0,0.0,0.0,0.0,0.0,-0.003633061656728387,0.0010873081628233194,0.026232611387968063,0.0,0.0,0.0,0.0,0.0,0.0,0.0,0.0,0.0
1606987635977559141,1351933,1606984035386497075,imu_link,-0.0020396276377141476,-0.004634693264961243,0.3100714385509491,-0.9506998062133789,0.0,0.0,0.0,0.0,0.0,0.0,0.0,0.0,0.0,-36.12725830078125,0.5773944854736328,0.05752645805478096,0.0,0.0,0.0,0.0,0.0,0.0,0.0,0.0,0.0,0.02917671948671341,0.008325841277837753,0.028937431052327156,0.0,0.0,0.0,0.0,0.0,0.0,0.0,0.0,0.0
1606987635977602719,1351934,1606984035386593038,imu_link,-0.0020396276377141476,-0.004634693264961243,0.3100714385509491,-0.9506998062133789,0.0,0.0,0.0,0.0,0.0,0.0,0.0,0.0,0.0,-36.12725830078125,0.5773944854736328,0.05752645805478096,0.0,0.0,0.0,0.0,0.0,0.0,0.0,0.0,0.0,0.02917671948671341,0.008325841277837753,0.028937431052327156,0.0,0.0,0.0,0.0,0.0,0.0,0.0,0.0,0.0
1606987635977658952,1351935,1606984035386675203,imu_link,-0.002041009720414877,-0.004639722872525454,0.3100724518299103,-0.9506994485855103,0.0,0.0,0.0,0.0,0.0,0.0,0.0,0.0,0.0,-36.12738037109375,0.5779916048049927,0.057497695088386536,0.0,0.0,0.0,0.0,0.0,0.0,0.0,0.0,0.0,0.026649093255400658,0.014957619830965996,0.0608171746134758,0.0,0.0,0.0,0.0,0.0,0.0,0.0,0.0,0.0
1606987635977709115,1351936,1606984035386803840,imu_link,-0.002041009720414877,-0.004639722872525454,0.3100724518299103,-0.9506994485855103,0.0,0.0,0.0,0.0,0.0,0.0,0.0,0.0,0.0,-36.12738037109375,0.5779916048049927,0.057497695088386536,0.0,0.0,0.0,0.0,0.0,0.0,0.0,0.0,0.0,0.026649093255400658,0.014957619830965996,0.0608171746134758,0.0,0.0,0.0,0.0,0.0,0.0,0.0,0.0,0.0
1606987635977739894,1351937,1606984035386889935,imu_link,-0.0020426379051059484,-0.0046419487334787846,0.31007251143455505,-0.9506993889808655,0.0,0.0,0.0,0.0,0.0,0.0,0.0,0.0,0.0,-36.12738800048828,0.5782918930053711,0.057595960795879364,0.0,0.0,0.0,0.0,0.0,0.0,0.0,0.0,0.0,0.0165579654276371,0.006039279978722334,0.06948720663785934,0.0,0.0,0.0,0.0,0.0,0.0,0.0,0.0,0.0
1606987635977779814,1351938,1606984035387022005,imu_link,-0.0020426379051059484,-0.0046419487334787846,0.31007251143455505,-0.9506993889808655,0.0,0.0,0.0,0.0,0.0,0.0,0.0,0.0,0.0,-36.12738800048828,0.5782918930053711,0.057595960795879364,0.0,0.0,0.0,0.0,0.0,0.0,0.0,0.0,0.0,0.0165579654276371,0.006039279978722334,0.06948720663785934,0.0,0.0,0.0,0.0,0.0,0.0,0.0,0.0,0.0
1606987635977795925,1351939,1606984035387109864,imu_link,-0.0020409177523106337,-0.004646183457225561,0.3100700378417969,-0.9507001638412476,0.0,0.0,0.0,0.0,0.0,0.0,0.0,0.0,0.0,-36.1270866394043,0.5786920189857483,0.05725957453250885,0.0,0.0,0.0,0.0,0.0,0.0,0.0,0.0,0.0,0.017816301435232162,0.0068315123207867146,0.0315697006881237,0.0,0.0,0.0,0.0,0.0,0.0,0.0,0.0,0.0
1606987635977808317,1351940,1606984035387186822,imu_link,-0.0020409177523106337,-0.004646183457225561,0.3100700378417969,-0.9507001638412476,0.0,0.0,0.0,0.0,0.0,0.0,0.0,0.0,0.0,-36.1270866394043,0.5786920189857483,0.05725957453250885,0.0,0.0,0.0,0.0,0.0,0.0,0.0,0.0,0.0,0.017816301435232162,0.0068315123207867146,0.0315697006881237,0.0,0.0,0.0,0.0,0.0,0.0,0.0,0.0,0.0
1606987635977825445,1351941,1606984035387273988,imu_link,-0.0020415501203387976,-0.004645033273845911,0.31007203459739685,-0.9506995677947998,0.0,0.0,0.0,0.0,0.0,0.0,0.0,0.0,0.0,-36.1273307800293,0.5785893201828003,0.05736813694238663,0.0,0.0,0.0,0.0,0.0,0.0,0.0,0.0,0.0,-0.018101418390870094,0.001310874242335558,0.01589280553162098,0.0,0.0,0.0,0.0,0.0,0.0,0.0,0.0,0.0
1606987635987877068,1351942,1606984035399112797,imu_link,-0.0020415501203387976,-0.004645033273845911,0.31007203459739685,-0.9506995677947998,0.0,0.0,0.0,0.0,0.0,0.0,0.0,0.0,0.0,-36.1273307800293,0.5785893201828003,0.05736813694238663,0.0,0.0,0.0,0.0,0.0,0.0,0.0,0.0,0.0,-0.018101418390870094,0.001310874242335558,0.01589280553162098,0.0,0.0,0.0,0.0,0.0,0.0,0.0,0.0,0.0
1606987635990224680,1351943,1606984035399246537,imu_link,-0.0020390464924275875,-0.004641716834157705,0.31007063388824463,-0.9506999850273132,0.0,0.0,0.0,0.0,0.0,0.0,0.0,0.0,0.0,-36.12716293334961,0.5781389474868774,0.05721406266093254,0.0,0.0,0.0,0.0,0.0,0.0,0.0,0.0,0.0,-0.03211579844355583,-0.0071301949210464954,0.039733704179525375,0.0,0.0,0.0,0.0,0.0,0.0,0.0,0.0,0.0
1606987635990235431,1351944,1606984035399411238,imu_link,-0.0020390464924275875,-0.004641716834157705,0.31007063388824463,-0.9506999850273132,0.0,0.0,0.0,0.0,0.0,0.0,0.0,0.0,0.0,-36.12716293334961,0.5781389474868774,0.05721406266093254,0.0,0.0,0.0,0.0,0.0,0.0,0.0,0.0,0.0,-0.03211579844355583,-0.0071301949210464954,0.039733704179525375,0.0,0.0,0.0,0.0,0.0,0.0,0.0,0.0,0.0
1606987635990241475,1351945,1606984035399521408,imu_link,-0.0020386390388011932,-0.004642977844923735,0.31007227301597595,-0.9506994485855103,0.0,0.0,0.0,0.0,0.0,0.0,0.0,0.0,0.0,-36.127357482910156,0.5782619118690491,0.05712386965751648,0.0,0.0,0.0,0.0,0.0,0.0,0.0,0.0,0.0,-0.010419048368930817,-0.02015134133398533,0.04245385527610779,0.0,0.0,0.0,0.0,0.0,0.0,0.0,0.0,0.0
1606987635990246489,1351946,1606984035399636183,imu_link,-0.0020386390388011932,-0.004642977844923735,0.31007227301597595,-0.9506994485855103,0.0,0.0,0.0,0.0,0.0,0.0,0.0,0.0,0.0,-36.127357482910156,0.5782619118690491,0.05712386965751648,0.0,0.0,0.0,0.0,0.0,0.0,0.0,0.0,0.0,-0.010419048368930817,-0.02015134133398533,0.04245385527610779,0.0,0.0,0.0,0.0,0.0,0.0,0.0,0.0,0.0
1606987635990776618,1351947,1606984035399743933,imu_link,-0.002041343366727233,-0.004639947786927223,0.31007325649261475,-0.9506991505622864,0.0,0.0,0.0,0.0,0.0,0.0,0.0,0.0,0.0,-36.127479553222656,0.5780279636383057,0.05752556398510933,0.0,0.0,0.0,0.0,0.0,0.0,0.0,0.0,0.0,0.01870485208928585,-0.020760858431458473,0.024513285607099533,0.0,0.0,0.0,0.0,0.0,0.0,0.0,0.0,0.0
1606987635990788880,1351948,1606984035399831596,imu_link,-0.002041343366727233,-0.004639947786927223,0.31007325649261475,-0.9506991505622864,0.0,0.0,0.0,0.0,0.0,0.0,0.0,0.0,0.0,-36.127479553222656,0.5780279636383057,0.05752556398510933,0.0,0.0,0.0,0.0,0.0,0.0,0.0,0.0,0.0,0.01870485208928585,-0.020760858431458473,0.024513285607099533,0.0,0.0,0.0,0.0,0.0,0.0,0.0,0.0,0.0
1606987635990797518,1351949,1606984035399927006,imu_link,-0.002041850471869111,-0.004638567566871643,0.31007400155067444,-0.9506989121437073,0.0,0.0,0.0,0.0,0.0,0.0,0.0,0.0,0.0,-36.127567291259766,0.5778957009315491,0.05762940272688866,0.0,0.0,0.0,0.0,0.0,0.0,0.0,0.0,0.0,0.007386050187051296,-0.0012550540268421173,0.027490539476275444,0.0,0.0,0.0,0.0,0.0,0.0,0.0,0.0,0.0
1606987635990807218,1351950,1606984035400011522,imu_link,-0.002041850471869111,-0.004638567566871643,0.31007400155067444,-0.9506989121437073,0.0,0.0,0.0,0.0,0.0,0.0,0.0,0.0,0.0,-36.127567291259766,0.5778957009315491,0.05762940272688866,0.0,0.0,0.0,0.0,0.0,0.0,0.0,0.0,0.0,0.007386050187051296,-0.0012550540268421173,0.027490539476275444,0.0,0.0,0.0,0.0,0.0,0.0,0.0,0.0,0.0
1606987635990814648,1351951,1606984035400094228,imu_link,-0.002042121486738324,-0.004638439975678921,0.31007811427116394,-0.9506976008415222,0.0,0.0,0.0,0.0,0.0,0.0,0.0,0.0,0.0,-36.12805938720703,0.5778917074203491,0.05766098201274872,0.0,0.0,0.0,0.0,0.0,0.0,0.0,0.0,0.0,-0.011855972930788994,-0.007442521397024393,0.029559193179011345,0.0,0.0,0.0,0.0,0.0,0.0,0.0,0.0,0.0
1606987636015198845,1351952,1606984035412915601,imu_link,-0.002042121486738324,-0.004638439975678921,0.31007811427116394,-0.9506976008415222,0.0,0.0,0.0,0.0,0.0,0.0,0.0,0.0,0.0,-36.12805938720703,0.5778917074203491,0.05766098201274872,0.0,0.0,0.0,0.0,0.0,0.0,0.0,0.0,0.0,-0.011855972930788994,-0.007442521397024393,0.029559193179011345,0.0,0.0,0.0,0.0,0.0,0.0,0.0,0.0,0.0
1606987636015238489,1351953,1606984035413057610,imu_link,-0.002043120563030243,-0.004637854639440775,0.31007689237594604,-0.9506980180740356,0.0,0.0,0.0,0.0,0.0,0.0,0.0,0.0,0.0,-36.12791442871094,0.577863335609436,0.057791367173194885,0.0,0.0,0.0,0.0,0.0,0.0,0.0,0.0,0.0,-0.011941199190914631,-0.00028936986927874386,0.022061552852392197,0.0,0.0,0.0,0.0,0.0,0.0,0.0,0.0,0.0
1606987636015252564,1351954,1606984035413234298,imu_link,-0.002043120563030243,-0.004637854639440775,0.31007689237594604,-0.9506980180740356,0.0,0.0,0.0,0.0,0.0,0.0,0.0,0.0,0.0,-36.12791442871094,0.577863335609436,0.057791367173194885,0.0,0.0,0.0,0.0,0.0,0.0,0.0,0.0,0.0,-0.011941199190914631,-0.00028936986927874386,0.022061552852392197,0.0,0.0,0.0,0.0,0.0,0.0,0.0,0.0,0.0
1606987636015265590,1351955,1606984035413329288,imu_link,-0.002041248371824622,-0.004634508863091469,0.31007784605026245,-0.9506977200508118,0.0,0.0,0.0,0.0,0.0,0.0,0.0,0.0,0.0,-36.128028869628906,0.5774323344230652,0.05770568922162056,0.0,0.0,0.0,0.0,0.0,0.0,0.0,0.0,0.0,-0.010761058889329433,0.02514559216797352,0.030098294839262962,0.0,0.0,0.0,0.0,0.0,0.0,0.0,0.0,0.0
1606987636015291901,1351956,1606984035413406692,imu_link,-0.002041248371824622,-0.004634508863091469,0.31007784605026245,-0.9506977200508118,0.0,0.0,0.0,0.0,0.0,0.0,0.0,0.0,0.0,-36.128028869628906,0.5774323344230652,0.05770568922162056,0.0,0.0,0.0,0.0,0.0,0.0,0.0,0.0,0.0,-0.010761058889329433,0.02514559216797352,0.030098294839262962,0.0,0.0,0.0,0.0,0.0,0.0,0.0,0.0,0.0
1606987636015307329,1351957,1606984035413486206,imu_link,-0.0020408581476658583,-0.004632099065929651,0.3100782632827759,-0.9506976008415222,0.0,0.0,0.0,0.0,0.0,0.0,0.0,0.0,0.0,-36.12807846069336,0.5771559476852417,0.057748567312955856,0.0,0.0,0.0,0.0,0.0,0.0,0.0,0.0,0.0,0.0014740627957507968,0.01019242312759161,0.019622663035988808,0.0,0.0,0.0,0.0,0.0,0.0,0.0,0.0,0.0
1606987636015314963,1351958,1606984035413591350,imu_link,-0.0020408581476658583,-0.004632099065929651,0.3100782632827759,-0.9506976008415222,0.0,0.0,0.0,0.0,0.0,0.0,0.0,0.0,0.0,-36.12807846069336,0.5771559476852417,0.057748567312955856,0.0,0.0,0.0,0.0,0.0,0.0,0.0,0.0,0.0,0.0014740627957507968,0.01019242312759161,0.019622663035988808,0.0,0.0,0.0,0.0,0.0,0.0,0.0,0.0,0.0
1606987636015319644,1351959,1606984035413669897,imu_link,-0.0020386171527206898,-0.00462932325899601,0.3100777864456177,-0.9506977796554565,0.0,0.0,0.0,0.0,0.0,0.0,0.0,0.0,0.0,-36.128021240234375,0.5767739415168762,0.057603344321250916,0.0,0.0,0.0,0.0,0.0,0.0,0.0,0.0,0.0,0.021198641508817673,0.008672181516885757,0.009966044686734676,0.0,0.0,0.0,0.0,0.0,0.0,0.0,0.0,0.0
1606987636015326262,1351960,1606984035413746815,imu_link,-0.0020386171527206898,-0.00462932325899601,0.3100777864456177,-0.9506977796554565,0.0,0.0,0.0,0.0,0.0,0.0,0.0,0.0,0.0,-36.128021240234375,0.5767739415168762,0.057603344321250916,0.0,0.0,0.0,0.0,0.0,0.0,0.0,0.0,0.0,0.021198641508817673,0.008672181516885757,0.009966044686734676,0.0,0.0,0.0,0.0,0.0,0.0,0.0,0.0,0.0
1606987636015652453,1351961,1606984035413827742,imu_link,-0.0020383698865771294,-0.004628777503967285,0.3100794851779938,-0.9506972432136536,0.0,0.0,0.0,0.0,0.0,0.0,0.0,0.0,0.0,-36.12822341918945,0.5767057538032532,0.05759476497769356,0.0,0.0,0.0,0.0,0.0,0.0,0.0,0.0,0.0,0.01910158060491085,0.011837131343781948,0.02458328939974308,0.0,0.0,0.0,0.0,0.0,0.0,0.0,0.0,0.0
1606987636015675872,1351962,1606984035413914097,imu_link,-0.0020383698865771294,-0.004628777503967285,0.3100794851779938,-0.9506972432136536,0.0,0.0,0.0,0.0,0.0,0.0,0.0,0.0,0.0,-36.12822341918945,0.5767057538032532,0.05759476497769356,0.0,0.0,0.0,0.0,0.0,0.0,0.0,0.0,0.0,0.01910158060491085,0.011837131343781948,0.02458328939974308,0.0,0.0,0.0,0.0,0.0,0.0,0.0,0.0,0.0
1606987636015684771,1351963,1606984035426272274,imu_link,-0.0020390276331454515,-0.004631676245480776,0.3100859224796295,-0.9506950974464417,0.0,0.0,0.0,0.0,0.0,0.0,0.0,0.0,0.0,-36.12900161743164,0.5770453810691833,0.057559508830308914,0.0,0.0,0.0,0.0,0.0,0.0,0.0,0.0,0.0,-0.004759082105010748,-0.0019349047215655446,0.032028678804636,0.0,0.0,0.0,0.0,0.0,0.0,0.0,0.0,0.0
1606987636015696339,1351964,1606984035426371701,imu_link,-0.0020390276331454515,-0.004631676245480776,0.3100859224796295,-0.9506950974464417,0.0,0.0,0.0,0.0,0.0,0.0,0.0,0.0,0.0,-36.12900161743164,0.5770453810691833,0.057559508830308914,0.0,0.0,0.0,0.0,0.0,0.0,0.0,0.0,0.0,-0.004759082105010748,-0.0019349047215655446,0.032028678804636,0.0,0.0,0.0,0.0,0.0,0.0,0.0,0.0,0.0
1606987636015703766,1351965,1606984035426490556,imu_link,-0.0020395792089402676,-0.004631522111594677,0.31008440256118774,-0.9506955742835999,0.0,0.0,0.0,0.0,0.0,0.0,0.0,0.0,0.0,-36.12881851196289,0.5770480036735535,0.05762600153684616,0.0,0.0,0.0,0.0,0.0,0.0,0.0,0.0,0.0,-0.012958966195583344,0.0018900848226621747,0.0387871153652668,0.0,0.0,0.0,0.0,0.0,0.0,0.0,0.0,0.0
1606987636015711066,1351966,1606984035426563094,imu_link,-0.0020395792089402676,-0.004631522111594677,0.31008440256118774,-0.9506955742835999,0.0,0.0,0.0,0.0,0.0,0.0,0.0,0.0,0.0,-36.12881851196289,0.5770480036735535,0.05762600153684616,0.0,0.0,0.0,0.0,0.0,0.0,0.0,0.0,0.0,-0.012958966195583344,0.0018900848226621747,0.0387871153652668,0.0,0.0,0.0,0.0,0.0,0.0,0.0,0.0,0.0
1606987636015722498,1351967,1606984035426616875,imu_link,-0.002036645309999585,-0.004629767965525389,0.3100913166999817,-0.9506933689117432,0.0,0.0,0.0,0.0,0.0,0.0,0.0,0.0,0.0,-36.12965774536133,0.5767531394958496,0.05736450105905533,0.0,0.0,0.0,0.0,0.0,0.0,0.0,0.0,0.0,0.008035065606236458,0.0074752685613930225,0.06164005026221275,0.0,0.0,0.0,0.0,0.0,0.0,0.0,0.0,0.0
1606987636015730656,1351968,1606984035426668257,imu_link,-0.002036645309999585,-0.004629767965525389,0.3100913166999817,-0.9506933689117432,0.0,0.0,0.0,0.0,0.0,0.0,0.0,0.0,0.0,-36.12965774536133,0.5767531394958496,0.05736450105905533,0.0,0.0,0.0,0.0,0.0,0.0,0.0,0.0,0.0,0.008035065606236458,0.0074752685613930225,0.06164005026221275,0.0,0.0,0.0,0.0,0.0,0.0,0.0,0.0,0.0
1606987636015738953,1351969,1606984035426734651,imu_link,-0.002037425059825182,-0.004626086447387934,0.3100925385951996,-0.9506929516792297,0.0,0.0,0.0,0.0,0.0,0.0,0.0,0.0,0.0,-36.129798889160156,0.5763797760009766,0.05757953226566315,0.0,0.0,0.0,0.0,0.0,0.0,0.0,0.0,0.0,0.021501949056982994,0.007839459925889969,0.08694000542163849,0.0,0.0,0.0,0.0,0.0,0.0,0.0,0.0,0.0
1606987636017221289,1351970,1606984035426794519,imu_link,-0.002037425059825182,-0.004626086447387934,0.3100925385951996,-0.9506929516792297,0.0,0.0,0.0,0.0,0.0,0.0,0.0,0.0,0.0,-36.129798889160156,0.5763797760009766,0.05757953226566315,0.0,0.0,0.0,0.0,0.0,0.0,0.0,0.0,0.0,0.021501949056982994,0.007839459925889969,0.08694000542163849,0.0,0.0,0.0,0.0,0.0,0.0,0.0,0.0,0.0
1606987636017231307,1351971,1606984035426852413,imu_link,-0.0020374648738652468,-0.004629553761333227,0.31008803844451904,-0.9506944417953491,0.0,0.0,0.0,0.0,0.0,0.0,0.0,0.0,0.0,-36.12925338745117,0.5767587423324585,0.0574633851647377,0.0,0.0,0.0,0.0,0.0,0.0,0.0,0.0,0.0,0.0002399550867266953,-0.0028110945131629705,0.07298127561807632,0.0,0.0,0.0,0.0,0.0,0.0,0.0,0.0,0.0
1606987636017253323,1351972,1606984035426907835,imu_link,-0.0020374648738652468,-0.004629553761333227,0.31008803844451904,-0.9506944417953491,0.0,0.0,0.0,0.0,0.0,0.0,0.0,0.0,0.0,-36.12925338745117,0.5767587423324585,0.0574633851647377,0.0,0.0,0.0,0.0,0.0,0.0,0.0,0.0,0.0,0.0002399550867266953,-0.0028110945131629705,0.07298127561807632,0.0,0.0,0.0,0.0,0.0,0.0,0.0,0.0,0.0
1606987636017261765,1351973,1606984035426984947,imu_link,-0.002037702826783061,-0.004630029667168856,0.31009042263031006,-0.9506936073303223,0.0,0.0,0.0,0.0,0.0,0.0,0.0,0.0,0.0,-36.129547119140625,0.5768191814422607,0.057470954954624176,0.0,0.0,0.0,0.0,0.0,0.0,0.0,0.0,0.0,-0.020678985863924026,-0.0026390862185508013,0.05257730931043625,0.0,0.0,0.0,0.0,0.0,0.0,0.0,0.0,0.0
1606987636027018481,1351974,1606984035440105109,imu_link,-0.002037702826783061,-0.004630029667168856,0.31009042263031006,-0.9506936073303223,0.0,0.0,0.0,0.0,0.0,0.0,0.0,0.0,0.0,-36.129547119140625,0.5768191814422607,0.057470954954624176,0.0,0.0,0.0,0.0,0.0,0.0,0.0,0.0,0.0,-0.020678985863924026,-0.0026390862185508013,0.05257730931043625,0.0,0.0,0.0,0.0,0.0,0.0,0.0,0.0,0.0
1606987636033598976,1351975,1606984035440226732,imu_link,-0.002037006663158536,-0.004627445247024298,0.31008338928222656,-0.9506959319114685,0.0,0.0,0.0,0.0,0.0,0.0,0.0,0.0,0.0,-36.12869644165039,0.5765124559402466,0.05749121308326721,0.0,0.0,0.0,0.0,0.0,0.0,0.0,0.0,0.0,-0.0049997479654848576,-0.0039105224423110485,0.05519326031208038,0.0,0.0,0.0,0.0,0.0,0.0,0.0,0.0,0.0
1606987636033621324,1351976,1606984035440406455,imu_link,-0.002037006663158536,-0.004627445247024298,0.31008338928222656,-0.9506959319114685,0.0,0.0,0.0,0.0,0.0,0.0,0.0,0.0,0.0,-36.12869644165039,0.5765124559402466,0.05749121308326721,0.0,0.0,0.0,0.0,0.0,0.0,0.0,0.0,0.0,-0.0049997479654848576,-0.0039105224423110485,0.05519326031208038,0.0,0.0,0.0,0.0,0.0,0.0,0.0,0.0,0.0
1606987636033645298,1351977,1606984035440508540,imu_link,-0.002037006663158536,-0.004627445247024298,0.31008338928222656,-0.9506959319114685,0.0,0.0,0.0,0.0,0.0,0.0,0.0,0.0,0.0,-36.12869644165039,0.5765124559402466,0.05749121308326721,0.0,0.0,0.0,0.0,0.0,0.0,0.0,0.0,0.0,0.006367751397192478,-0.01685384288430214,0.0434267483651638,0.0,0.0,0.0,0.0,0.0,0.0,0.0,0.0,0.0
1606987636033668289,1351978,1606984035440597885,imu_link,-0.002037006663158536,-0.004627445247024298,0.31008338928222656,-0.9506959319114685,0.0,0.0,0.0,0.0,0.0,0.0,0.0,0.0,0.0,-36.12869644165039,0.5765124559402466,0.05749121308326721,0.0,0.0,0.0,0.0,0.0,0.0,0.0,0.0,0.0,0.006367751397192478,-0.01685384288430214,0.0434267483651638,0.0,0.0,0.0,0.0,0.0,0.0,0.0,0.0,0.0
1606987636033677034,1351979,1606984035440668497,imu_link,-0.002041120547801256,-0.004625902511179447,0.3100845515727997,-0.9506955742835999,0.0,0.0,0.0,0.0,0.0,0.0,0.0,0.0,0.0,-36.12883758544922,0.576490581035614,0.05799352377653122,0.0,0.0,0.0,0.0,0.0,0.0,0.0,0.0,0.0,0.005151578225195408,-0.017895890399813652,0.026698853820562363,0.0,0.0,0.0,0.0,0.0,0.0,0.0,0.0,0.0
1606987636033693215,1351980,1606984035440791662,imu_link,-0.002041120547801256,-0.004625902511179447,0.3100845515727997,-0.9506955742835999,0.0,0.0,0.0,0.0,0.0,0.0,0.0,0.0,0.0,-36.12883758544922,0.576490581035614,0.05799352377653122,0.0,0.0,0.0,0.0,0.0,0.0,0.0,0.0,0.0,0.005151578225195408,-0.017895890399813652,0.026698853820562363,0.0,0.0,0.0,0.0,0.0,0.0,0.0,0.0,0.0
1606987636033714326,1351981,1606984035440873705,imu_link,-0.002040344523265958,-0.0046258606016635895,0.3100849986076355,-0.9506954550743103,0.0,0.0,0.0,0.0,0.0,0.0,0.0,0.0,0.0,-36.12889099121094,0.5764585137367249,0.05791020765900612,0.0,0.0,0.0,0.0,0.0,0.0,0.0,0.0,0.0,0.0012559046735987067,-0.014132224023342133,0.03907902166247368,0.0,0.0,0.0,0.0,0.0,0.0,0.0,0.0,0.0
1606987636033726685,1351982,1606984035440948024,imu_link,-0.002040344523265958,-0.0046258606016635895,0.3100849986076355,-0.9506954550743103,0.0,0.0,0.0,0.0,0.0,0.0,0.0,0.0,0.0,-36.12889099121094,0.5764585137367249,0.05791020765900612,0.0,0.0,0.0,0.0,0.0,0.0,0.0,0.0,0.0,0.0012559046735987067,-0.014132224023342133,0.03907902166247368,0.0,0.0,0.0,0.0,0.0,0.0,0.0,0.0,0.0
1606987636033772904,1351983,1606984035441021831,imu_link,-0.0020430616568773985,-0.004627744201570749,0.3100854158401489,-0.950695276260376,0.0,0.0,0.0,0.0,0.0,0.0,0.0,0.0,0.0,-36.128936767578125,0.5767602920532227,0.05813903361558914,0.0,0.0,0.0,0.0,0.0,0.0,0.0,0.0,0.0,-0.009051091969013214,0.006435996852815151,0.04802818223834038,0.0,0.0,0.0,0.0,0.0,0.0,0.0,0.0,0.0
1606987636033780679,1351984,1606984035441100778,imu_link,-0.0020430616568773985,-0.004627744201570749,0.3100854158401489,-0.950695276260376,0.0,0.0,0.0,0.0,0.0,0.0,0.0,0.0,0.0,-36.128936767578125,0.5767602920532227,0.05813903361558914,0.0,0.0,0.0,0.0,0.0,0.0,0.0,0.0,0.0,-0.009051091969013214,0.006435996852815151,0.04802818223834038,0.0,0.0,0.0,0.0,0.0,0.0,0.0,0.0,0.0
1606987636042204791,1351985,1606984035453579400,imu_link,-0.002044213004410267,-0.0046278368681669235,0.3100849390029907,-0.9506954550743103,0.0,0.0,0.0,0.0,0.0,0.0,0.0,0.0,0.0,-36.12887954711914,0.5768112540245056,0.05826146528124809,0.0,0.0,0.0,0.0,0.0,0.0,0.0,0.0,0.0,-0.003040480660274625,0.026520580053329468,0.03598553314805031,0.0,0.0,0.0,0.0,0.0,0.0,0.0,0.0,0.0
1606987636042218162,1351986,1606984035453709532,imu_link,-0.002044213004410267,-0.0046278368681669235,0.3100849390029907,-0.9506954550743103,0.0,0.0,0.0,0.0,0.0,0.0,0.0,0.0,0.0,-36.12887954711914,0.5768112540245056,0.05826146528124809,0.0,0.0,0.0,0.0,0.0,0.0,0.0,0.0,0.0,-0.003040480660274625,0.026520580053329468,0.03598553314805031,0.0,0.0,0.0,0.0,0.0,0.0,0.0,0.0,0.0
1606987636042229067,1351987,1606984035453871691,imu_link,-0.002041463740170002,-0.004629235249012709,0.3100964426994324,-0.9506916403770447,0.0,0.0,0.0,0.0,0.0,0.0,0.0,0.0,0.0,-36.130271911621094,0.5768665671348572,0.05790526792407036,0.0,0.0,0.0,0.0,0.0,0.0,0.0,0.0,0.0,0.00760385999456048,0.013765587471425533,0.034757185727357864,0.0,0.0,0.0,0.0,0.0,0.0,0.0,0.0,0.0
1606987636042241313,1351988,1606984035453966848,imu_link,-0.002041463740170002,-0.004629235249012709,0.3100964426994324,-0.9506916403770447,0.0,0.0,0.0,0.0,0.0,0.0,0.0,0.0,0.0,-36.130271911621094,0.5768665671348572,0.05790526792407036,0.0,0.0,0.0,0.0,0.0,0.0,0.0,0.0,0.0,0.00760385999456048,0.013765587471425533,0.034757185727357864,0.0,0.0,0.0,0.0,0.0,0.0,0.0,0.0,0.0
1606987636042272173,1351989,1606984035454044250,imu_link,-0.002041227649897337,-0.0046291532926261425,0.31009721755981445,-0.9506914019584656,0.0,0.0,0.0,0.0,0.0,0.0,0.0,0.0,0.0,-36.13036346435547,0.5768493413925171,0.05788198858499527,0.0,0.0,0.0,0.0,0.0,0.0,0.0,0.0,0.0,-0.009060405194759369,-0.0016448358073830605,0.03702934458851814,0.0,0.0,0.0,0.0,0.0,0.0,0.0,0.0,0.0
1606987636042278367,1351990,1606984035454135140,imu_link,-0.002041227649897337,-0.0046291532926261425,0.31009721755981445,-0.9506914019584656,0.0,0.0,0.0,0.0,0.0,0.0,0.0,0.0,0.0,-36.13036346435547,0.5768493413925171,0.05788198858499527,0.0,0.0,0.0,0.0,0.0,0.0,0.0,0.0,0.0,-0.009060405194759369,-0.0016448358073830605,0.03702934458851814,0.0,0.0,0.0,0.0,0.0,0.0,0.0,0.0,0.0
1606987636042315772,1351991,1606984035454205119,imu_link,-0.002041053958237171,-0.004627917893230915,0.3101074695587158,-0.9506880640983582,0.0,0.0,0.0,0.0,0.0,0.0,0.0,0.0,0.0,-36.13159942626953,0.5767091512680054,0.057900745421648026,0.0,0.0,0.0,0.0,0.0,0.0,0.0,0.0,0.0,-0.0194536205381155,0.011064362712204456,0.04509866610169411,0.0,0.0,0.0,0.0,0.0,0.0,0.0,0.0,0.0
1606987636042355247,1351992,1606984035454280112,imu_link,-0.002041053958237171,-0.004627917893230915,0.3101074695587158,-0.9506880640983582,0.0,0.0,0.0,0.0,0.0,0.0,0.0,0.0,0.0,-36.13159942626953,0.5767091512680054,0.057900745421648026,0.0,0.0,0.0,0.0,0.0,0.0,0.0,0.0,0.0,-0.0194536205381155,0.011064362712204456,0.04509866610169411,0.0,0.0,0.0,0.0,0.0,0.0,0.0,0.0,0.0
1606987636053763417,1351993,1606984035454355971,imu_link,-0.002043678192421794,-0.004629172384738922,0.31010833382606506,-0.9506877660751343,0.0,0.0,0.0,0.0,0.0,0.0,0.0,0.0,0.0,-36.1317024230957,0.5769392251968384,0.058141548186540604,0.0,0.0,0.0,0.0,0.0,0.0,0.0,0.0,0.0,-0.0046700709499418736,0.02391095645725727,0.057789187878370285,0.0,0.0,0.0,0.0,0.0,0.0,0.0,0.0,0.0
1606987636053785993,1351994,1606984035454422021,imu_link,-0.002043678192421794,-0.004629172384738922,0.31010833382606506,-0.9506877660751343,0.0,0.0,0.0,0.0,0.0,0.0,0.0,0.0,0.0,-36.1317024230957,0.5769392251968384,0.058141548186540604,0.0,0.0,0.0,0.0,0.0,0.0,0.0,0.0,0.0,-0.0046700709499418736,0.02391095645725727,0.057789187878370285,0.0,0.0,0.0,0.0,0.0,0.0,0.0,0.0,0.0
1606987636053797892,1351995,1606984035454496212,imu_link,-0.0020390069112181664,-0.004627615679055452,0.3101074695587158,-0.9506880640983582,0.0,0.0,0.0,0.0,0.0,0.0,0.0,0.0,0.0,-36.13159942626953,0.5766034722328186,0.05768847465515137,0.0,0.0,0.0,0.0,0.0,0.0,0.0,0.0,0.0,0.00817383173853159,0.020810650661587715,0.05131629481911659,0.0,0.0,0.0,0.0,0.0,0.0,0.0,0.0,0.0
1606987636061793763,1351996,1606984035466632590,imu_link,-0.0020390069112181664,-0.004627615679055452,0.3101074695587158,-0.9506880640983582,0.0,0.0,0.0,0.0,0.0,0.0,0.0,0.0,0.0,-36.13159942626953,0.5766034722328186,0.05768847465515137,0.0,0.0,0.0,0.0,0.0,0.0,0.0,0.0,0.0,0.00817383173853159,0.020810650661587715,0.05131629481911659,0.0,0.0,0.0,0.0,0.0,0.0,0.0,0.0,0.0
1606987636061822273,1351997,1606984035466743420,imu_link,-0.0020379803609102964,-0.004629796836525202,0.3101048469543457,-0.9506889581680298,0.0,0.0,0.0,0.0,0.0,0.0,0.0,0.0,0.0,-36.131282806396484,0.576804518699646,0.05750071257352829,0.0,0.0,0.0,0.0,0.0,0.0,0.0,0.0,0.0,0.0319015271961689,0.019020408391952515,0.046142783015966415,0.0,0.0,0.0,0.0,0.0,0.0,0.0,0.0,0.0
1606987636061837774,1351998,1606984035466898602,imu_link,-0.0020379803609102964,-0.004629796836525202,0.3101048469543457,-0.9506889581680298,0.0,0.0,0.0,0.0,0.0,0.0,0.0,0.0,0.0,-36.131282806396484,0.576804518699646,0.05750071257352829,0.0,0.0,0.0,0.0,0.0,0.0,0.0,0.0,0.0,0.0319015271961689,0.019020408391952515,0.046142783015966415,0.0,0.0,0.0,0.0,0.0,0.0,0.0,0.0,0.0
1606987636061897209,1351999,1606984035467020306,imu_link,-0.0020365111995488405,-0.004631223157048225,0.31010356545448303,-0.9506893157958984,0.0,0.0,0.0,0.0,0.0,0.0,0.0,0.0,0.0,-36.13113021850586,0.5769076347351074,0.05729074403643608,0.0,0.0,0.0,0.0,0.0,0.0,0.0,0.0,0.0,0.027079561725258827,0.0016074632294476032,0.039467182010412216,0.0,0.0,0.0,0.0,0.0,0.0,0.0,0.0,0.0
1606987636061921819,1352000,1606984035467102117,imu_link,-0.0020365111995488405,-0.004631223157048225,0.31010356545448303,-0.9506893157958984,0.0,0.0,0.0,0.0,0.0,0.0,0.0,0.0,0.0,-36.13113021850586,0.5769076347351074,0.05729074403643608,0.0,0.0,0.0,0.0,0.0,0.0,0.0,0.0,0.0,0.027079561725258827,0.0016074632294476032,0.039467182010412216,0.0,0.0,0.0,0.0,0.0,0.0,0.0,0.0,0.0
1606987636061958086,1352001,1606984035467188637,imu_link,-0.0020355123560875654,-0.004633358214050531,0.310103178024292,-0.9506894946098328,0.0,0.0,0.0,0.0,0.0,0.0,0.0,0.0,0.0,-36.13108825683594,0.5771046876907349,0.057106293737888336,0.0,0.0,0.0,0.0,0.0,0.0,0.0,0.0,0.0,0.012506559491157532,-0.009393506683409214,0.048655055463314056,0.0,0.0,0.0,0.0,0.0,0.0,0.0,0.0,0.0
1606987636061983917,1352002,1606984035467259780,imu_link,-0.0020355123560875654,-0.004633358214050531,0.310103178024292,-0.9506894946098328,0.0,0.0,0.0,0.0,0.0,0.0,0.0,0.0,0.0,-36.13108825683594,0.5771046876907349,0.057106293737888336,0.0,0.0,0.0,0.0,0.0,0.0,0.0,0.0,0.0,0.012506559491157532,-0.009393506683409214,0.048655055463314056,0.0,0.0,0.0,0.0,0.0,0.0,0.0,0.0,0.0
1606987636061995695,1352003,1606984035467355989,imu_link,-0.002036971738561988,-0.0046317544765770435,0.3101029098033905,-0.9506895542144775,0.0,0.0,0.0,0.0,0.0,0.0,0.0,0.0,0.0,-36.13105010986328,0.5769818425178528,0.05732244625687599,0.0,0.0,0.0,0.0,0.0,0.0,0.0,0.0,0.0,0.022127535194158554,-0.004374553449451923,0.05375874415040016,0.0,0.0,0.0,0.0,0.0,0.0,0.0,0.0,0.0
1606987636062005675,1352004,1606984035467435493,imu_link,-0.002036971738561988,-0.0046317544765770435,0.3101029098033905,-0.9506895542144775,0.0,0.0,0.0,0.0,0.0,0.0,0.0,0.0,0.0,-36.13105010986328,0.5769818425178528,0.05732244625687599,0.0,0.0,0.0,0.0,0.0,0.0,0.0,0.0,0.0,0.022127535194158554,-0.004374553449451923,0.05375874415040016,0.0,0.0,0.0,0.0,0.0,0.0,0.0,0.0,0.0
1606987636062024268,1352005,1606984035467517723,imu_link,-0.0020359319169074297,-0.004630058538168669,0.3101052939891815,-0.9506887793540955,0.0,0.0,0.0,0.0,0.0,0.0,0.0,0.0,0.0,-36.131343841552734,0.5767602920532227,0.05726797133684158,0.0,0.0,0.0,0.0,0.0,0.0,0.0,0.0,0.0,0.015051193535327911,-0.0033462962601333857,0.05216043069958687,0.0,0.0,0.0,0.0,0.0,0.0,0.0,0.0,0.0
1606987636067368617,1352006,1606984035480225879,imu_link,-0.0020359319169074297,-0.004630058538168669,0.3101052939891815,-0.9506887793540955,0.0,0.0,0.0,0.0,0.0,0.0,0.0,0.0,0.0,-36.131343841552734,0.5767602920532227,0.05726797133684158,0.0,0.0,0.0,0.0,0.0,0.0,0.0,0.0,0.0,0.015051193535327911,-0.0033462962601333857,0.05216043069958687,0.0,0.0,0.0,0.0,0.0,0.0,0.0,0.0,0.0
1606987636068494236,1352007,1606984035480354208,imu_link,-0.0020370555575937033,-0.004631621763110161,0.3101055920124054,-0.9506886601448059,0.0,0.0,0.0,0.0,0.0,0.0,0.0,0.0,0.0,-36.13137435913086,0.5769704580307007,0.05733465403318405,0.0,0.0,0.0,0.0,0.0,0.0,0.0,0.0,0.0,-0.005414710845798254,0.0011062760604545474,0.050457362085580826,0.0,0.0,0.0,0.0,0.0,0.0,0.0,0.0,0.0
1606987636068519036,1352008,1606984035480528014,imu_link,-0.0020370555575937033,-0.004631621763110161,0.3101055920124054,-0.9506886601448059,0.0,0.0,0.0,0.0,0.0,0.0,0.0,0.0,0.0,-36.13137435913086,0.5769704580307007,0.05733465403318405,0.0,0.0,0.0,0.0,0.0,0.0,0.0,0.0,0.0,-0.005414710845798254,0.0011062760604545474,0.050457362085580826,0.0,0.0,0.0,0.0,0.0,0.0,0.0,0.0,0.0
1606987636068532797,1352009,1606984035480653665,imu_link,-0.0020360108464956284,-0.004632612224668264,0.3101055920124054,-0.9506886601448059,0.0,0.0,0.0,0.0,0.0,0.0,0.0,0.0,0.0,-36.131378173828125,0.5770412683486938,0.05718563497066498,0.0,0.0,0.0,0.0,0.0,0.0,0.0,0.0,0.0,-0.0213465616106987,-0.0001420108019374311,0.028426408767700195,0.0,0.0,0.0,0.0,0.0,0.0,0.0,0.0,0.0
1606987636068542113,1352010,1606984035480741183,imu_link,-0.0020360108464956284,-0.004632612224668264,0.3101055920124054,-0.9506886601448059,0.0,0.0,0.0,0.0,0.0,0.0,0.0,0.0,0.0,-36.131378173828125,0.5770412683486938,0.05718563497066498,0.0,0.0,0.0,0.0,0.0,0.0,0.0,0.0,0.0,-0.0213465616106987,-0.0001420108019374311,0.028426408767700195,0.0,0.0,0.0,0.0,0.0,0.0,0.0,0.0,0.0
1606987636068557288,1352011,1606984035480818130,imu_link,-0.0020368543919175863,-0.004631007555872202,0.3101103603839874,-0.9506871104240417,0.0,0.0,0.0,0.0,0.0,0.0,0.0,0.0,0.0,-36.13195037841797,0.5768967270851135,0.05733167752623558,0.0,0.0,0.0,0.0,0.0,0.0,0.0,0.0,0.0,-0.02370789647102356,-0.0007962344097904861,0.0374932736158371,0.0,0.0,0.0,0.0,0.0,0.0,0.0,0.0,0.0
1606987636068583951,1352012,1606984035480915399,imu_link,-0.0020368543919175863,-0.004631007555872202,0.3101103603839874,-0.9506871104240417,0.0,0.0,0.0,0.0,0.0,0.0,0.0,0.0,0.0,-36.13195037841797,0.5768967270851135,0.05733167752623558,0.0,0.0,0.0,0.0,0.0,0.0,0.0,0.0,0.0,-0.02370789647102356,-0.0007962344097904861,0.0374932736158371,0.0,0.0,0.0,0.0,0.0,0.0,0.0,0.0,0.0
1606987636068596418,1352013,1606984035481003487,imu_link,-0.00203867070376873,-0.004629623610526323,0.31010961532592773,-0.9506873488426208,0.0,0.0,0.0,0.0,0.0,0.0,0.0,0.0,0.0,-36.131858825683594,0.5768105387687683,0.057579170912504196,0.0,0.0,0.0,0.0,0.0,0.0,0.0,0.0,0.0,-0.013457146473228931,0.008932744152843952,0.05021880194544792,0.0,0.0,0.0,0.0,0.0,0.0,0.0,0.0,0.0
1606987636068613459,1352014,1606984035481092525,imu_link,-0.00203867070376873,-0.004629623610526323,0.31010961532592773,-0.9506873488426208,0.0,0.0,0.0,0.0,0.0,0.0,0.0,0.0,0.0,-36.131858825683594,0.5768105387687683,0.057579170912504196,0.0,0.0,0.0,0.0,0.0,0.0,0.0,0.0,0.0,-0.013457146473228931,0.008932744152843952,0.05021880194544792,0.0,0.0,0.0,0.0,0.0,0.0,0.0,0.0,0.0
1606987636069318723,1352015,1606984035481163774,imu_link,-0.002035681623965502,-0.004627974703907967,0.31011345982551575,-0.9506861567497253,0.0,0.0,0.0,0.0,0.0,0.0,0.0,0.0,0.0,-36.13232421875,0.5765247941017151,0.05730981379747391,0.0,0.0,0.0,0.0,0.0,0.0,0.0,0.0,0.0,-0.005820038728415966,0.02297367714345455,0.05438081547617912,0.0,0.0,0.0,0.0,0.0,0.0,0.0,0.0,0.0
1606987636069331590,1352016,1606984035481235848,imu_link,-0.002035681623965502,-0.004627974703907967,0.31011345982551575,-0.9506861567497253,0.0,0.0,0.0,0.0,0.0,0.0,0.0,0.0,0.0,-36.13232421875,0.5765247941017151,0.05730981379747391,0.0,0.0,0.0,0.0,0.0,0.0,0.0,0.0,0.0,-0.005820038728415966,0.02297367714345455,0.05438081547617912,0.0,0.0,0.0,0.0,0.0,0.0,0.0,0.0,0.0
1606987636085045587,1352017,1606984035493777916,imu_link,-0.002034973818808794,-0.0046270499005913734,0.3101120889186859,-0.9506866335868835,0.0,0.0,0.0,0.0,0.0,0.0,0.0,0.0,0.0,-36.13215637207031,0.5763989090919495,0.05726640298962593,0.0,0.0,0.0,0.0,0.0,0.0,0.0,0.0,0.0,0.008934207260608673,0.018287988379597664,0.07036958634853363,0.0,0.0,0.0,0.0,0.0,0.0,0.0,0.0,0.0
1606987636085066348,1352018,1606984035493911954,imu_link,-0.002034973818808794,-0.0046270499005913734,0.3101120889186859,-0.9506866335868835,0.0,0.0,0.0,0.0,0.0,0.0,0.0,0.0,0.0,-36.13215637207031,0.5763989090919495,0.05726640298962593,0.0,0.0,0.0,0.0,0.0,0.0,0.0,0.0,0.0,0.008934207260608673,0.018287988379597664,0.07036958634853363,0.0,0.0,0.0,0.0,0.0,0.0,0.0,0.0,0.0
1606987636085074301,1352019,1606984035494080063,imu_link,-0.0020314163994044065,-0.004628532100468874,0.3101103603839874,-0.9506871700286865,0.0,0.0,0.0,0.0,0.0,0.0,0.0,0.0,0.0,-36.131954193115234,0.5764337778091431,0.05682719871401787,0.0,0.0,0.0,0.0,0.0,0.0,0.0,0.0,0.0,0.0029434883035719395,0.003981610294431448,0.07141851633787155,0.0,0.0,0.0,0.0,0.0,0.0,0.0,0.0,0.0
1606987636085084116,1352020,1606984035494166882,imu_link,-0.0020314163994044065,-0.004628532100468874,0.3101103603839874,-0.9506871700286865,0.0,0.0,0.0,0.0,0.0,0.0,0.0,0.0,0.0,-36.131954193115234,0.5764337778091431,0.05682719871401787,0.0,0.0,0.0,0.0,0.0,0.0,0.0,0.0,0.0,0.0029434883035719395,0.003981610294431448,0.07141851633787155,0.0,0.0,0.0,0.0,0.0,0.0,0.0,0.0,0.0
1606987636085148259,1352021,1606984035494234942,imu_link,-0.0020307789091020823,-0.004627445247024298,0.31011003255844116,-0.9506872892379761,0.0,0.0,0.0,0.0,0.0,0.0,0.0,0.0,0.0,-36.13191223144531,0.5762927532196045,0.05679656192660332,0.0,0.0,0.0,0.0,0.0,0.0,0.0,0.0,0.0,-0.003753294236958027,-0.009255286306142807,0.05354968085885048,0.0,0.0,0.0,0.0,0.0,0.0,0.0,0.0,0.0
1606987636085457152,1352022,1606984035494309817,imu_link,-0.0020307789091020823,-0.004627445247024298,0.31011003255844116,-0.9506872892379761,0.0,0.0,0.0,0.0,0.0,0.0,0.0,0.0,0.0,-36.13191223144531,0.5762927532196045,0.05679656192660332,0.0,0.0,0.0,0.0,0.0,0.0,0.0,0.0,0.0,-0.003753294236958027,-0.009255286306142807,0.05354968085885048,0.0,0.0,0.0,0.0,0.0,0.0,0.0,0.0,0.0
1606987636085474435,1352023,1606984035494405951,imu_link,-0.002033272758126259,-0.0046263993717730045,0.31010979413986206,-0.9506872892379761,0.0,0.0,0.0,0.0,0.0,0.0,0.0,0.0,0.0,-36.13188171386719,0.5762673616409302,0.05710557475686073,0.0,0.0,0.0,0.0,0.0,0.0,0.0,0.0,0.0,-0.0077412123791873455,-0.01511827390640974,0.04988272115588188,0.0,0.0,0.0,0.0,0.0,0.0,0.0,0.0,0.0
1606987636085481766,1352024,1606984035494475560,imu_link,-0.002033272758126259,-0.0046263993717730045,0.31010979413986206,-0.9506872892379761,0.0,0.0,0.0,0.0,0.0,0.0,0.0,0.0,0.0,-36.13188171386719,0.5762673616409302,0.05710557475686073,0.0,0.0,0.0,0.0,0.0,0.0,0.0,0.0,0.0,-0.0077412123791873455,-0.01511827390640974,0.04988272115588188,0.0,0.0,0.0,0.0,0.0,0.0,0.0,0.0,0.0
1606987636085494763,1352025,1606984035494547782,imu_link,-0.002032472752034664,-0.004625633358955383,0.3101113438606262,-0.9506868720054626,0.0,0.0,0.0,0.0,0.0,0.0,0.0,0.0,0.0,-36.1320686340332,0.5761556029319763,0.05704471096396446,0.0,0.0,0.0,0.0,0.0,0.0,0.0,0.0,0.0,-0.020209677517414093,-0.007756632287055254,0.04247692599892616,0.0,0.0,0.0,0.0,0.0,0.0,0.0,0.0,0.0
1606987636088827254,1352026,1606984035494622880,imu_link,-0.002032472752034664,-0.004625633358955383,0.3101113438606262,-0.9506868720054626,0.0,0.0,0.0,0.0,0.0,0.0,0.0,0.0,0.0,-36.1320686340332,0.5761556029319763,0.05704471096396446,0.0,0.0,0.0,0.0,0.0,0.0,0.0,0.0,0.0,-0.020209677517414093,-0.007756632287055254,0.04247692599892616,0.0,0.0,0.0,0.0,0.0,0.0,0.0,0.0,0.0
1606987636088840631,1352027,1606984035494687170,imu_link,-0.0020318422466516495,-0.004621329717338085,0.3101078271865845,-0.9506880044937134,0.0,0.0,0.0,0.0,0.0,0.0,0.0,0.0,0.0,-36.13164520263672,0.5756641030311584,0.05713106691837311,0.0,0.0,0.0,0.0,0.0,0.0,0.0,0.0,0.0,-0.016785306856036186,-0.006502723321318626,0.027348926290869713,0.0,0.0,0.0,0.0,0.0,0.0,0.0,0.0,0.0
1606987636094522555,1352028,1606984035507544646,imu_link,-0.0020318422466516495,-0.004621329717338085,0.3101078271865845,-0.9506880044937134,0.0,0.0,0.0,0.0,0.0,0.0,0.0,0.0,0.0,-36.13164520263672,0.5756641030311584,0.05713106691837311,0.0,0.0,0.0,0.0,0.0,0.0,0.0,0.0,0.0,-0.016785306856036186,-0.006502723321318626,0.027348926290869713,0.0,0.0,0.0,0.0,0.0,0.0,0.0,0.0,0.0
1606987636096767997,1352029,1606984035507683387,imu_link,-0.002031122101470828,-0.0046214815229177475,0.31010788679122925,-0.9506880044937134,0.0,0.0,0.0,0.0,0.0,0.0,0.0,0.0,0.0,-36.131649017333984,0.5756550431251526,0.05704719200730324,0.0,0.0,0.0,0.0,0.0,0.0,0.0,0.0,0.0,-0.00254804571159184,-0.01328531838953495,0.03829486668109894,0.0,0.0,0.0,0.0,0.0,0.0,0.0,0.0,0.0
1606987636096796430,1352030,1606984035507861900,imu_link,-0.002031122101470828,-0.0046214815229177475,0.31010788679122925,-0.9506880044937134,0.0,0.0,0.0,0.0,0.0,0.0,0.0,0.0,0.0,-36.131649017333984,0.5756550431251526,0.05704719200730324,0.0,0.0,0.0,0.0,0.0,0.0,0.0,0.0,0.0,-0.00254804571159184,-0.01328531838953495,0.03829486668109894,0.0,0.0,0.0,0.0,0.0,0.0,0.0,0.0,0.0
1606987636096872242,1352031,1606984035507950330,imu_link,-0.0020328995306044817,-0.00461971340700984,0.31010761857032776,-0.9506881237030029,0.0,0.0,0.0,0.0,0.0,0.0,0.0,0.0,0.0,-36.13161849975586,0.5755256414413452,0.057303838431835175,0.0,0.0,0.0,0.0,0.0,0.0,0.0,0.0,0.0,0.007503285072743893,-0.006012082565575838,0.052598144859075546,0.0,0.0,0.0,0.0,0.0,0.0,0.0,0.0,0.0
1606987636096905751,1352032,1606984035508025965,imu_link,-0.0020328995306044817,-0.00461971340700984,0.31010761857032776,-0.9506881237030029,0.0,0.0,0.0,0.0,0.0,0.0,0.0,0.0,0.0,-36.13161849975586,0.5755256414413452,0.057303838431835175,0.0,0.0,0.0,0.0,0.0,0.0,0.0,0.0,0.0,0.007503285072743893,-0.006012082565575838,0.052598144859075546,0.0,0.0,0.0,0.0,0.0,0.0,0.0,0.0,0.0
1606987636096930271,1352033,1606984035508117898,imu_link,-0.002034449717029929,-0.0046190074644982815,0.310107558965683,-0.9506881237030029,0.0,0.0,0.0,0.0,0.0,0.0,0.0,0.0,0.0,-36.13161087036133,0.5755038261413574,0.057497844099998474,0.0,0.0,0.0,0.0,0.0,0.0,0.0,0.0,0.0,0.014209117740392685,0.0072367554530501366,0.05955526977777481,0.0,0.0,0.0,0.0,0.0,0.0,0.0,0.0,0.0
1606987636096954856,1352034,1606984035508261184,imu_link,-0.002034449717029929,-0.0046190074644982815,0.310107558965683,-0.9506881237030029,0.0,0.0,0.0,0.0,0.0,0.0,0.0,0.0,0.0,-36.13161087036133,0.5755038261413574,0.057497844099998474,0.0,0.0,0.0,0.0,0.0,0.0,0.0,0.0,0.0,0.014209117740392685,0.0072367554530501366,0.05955526977777481,0.0,0.0,0.0,0.0,0.0,0.0,0.0,0.0,0.0
1606987636096977176,1352035,1606984035508352145,imu_link,-0.0020364378578960896,-0.004619510378688574,0.31010520458221436,-0.9506888389587402,0.0,0.0,0.0,0.0,0.0,0.0,0.0,0.0,0.0,-36.131324768066406,0.5756289958953857,0.05769799277186394,0.0,0.0,0.0,0.0,0.0,0.0,0.0,0.0,0.0,0.018498659133911133,-0.015779869630932808,0.033219631761312485,0.0,0.0,0.0,0.0,0.0,0.0,0.0,0.0,0.0
1606987636096985754,1352036,1606984035508428537,imu_link,-0.0020364378578960896,-0.004619510378688574,0.31010520458221436,-0.9506888389587402,0.0,0.0,0.0,0.0,0.0,0.0,0.0,0.0,0.0,-36.131324768066406,0.5756289958953857,0.05769799277186394,0.0,0.0,0.0,0.0,0.0,0.0,0.0,0.0,0.0,0.018498659133911133,-0.015779869630932808,0.033219631761312485,0.0,0.0,0.0,0.0,0.0,0.0,0.0,0.0,0.0
1606987636096994437,1352037,1606984035508512240,imu_link,-0.002037545433267951,-0.004620544146746397,0.3101072311401367,-0.9506881833076477,0.0,0.0,0.0,0.0,0.0,0.0,0.0,0.0,0.0,-36.131568908691406,0.5757811665534973,0.057780709117650986,0.0,0.0,0.0,0.0,0.0,0.0,0.0,0.0,0.0,0.0250591691583395,-0.031360190361738205,0.02735297940671444,0.0,0.0,0.0,0.0,0.0,0.0,0.0,0.0,0.0
1606987636097005717,1352038,1606984035508596781,imu_link,-0.002037545433267951,-0.004620544146746397,0.3101072311401367,-0.9506881833076477,0.0,0.0,0.0,0.0,0.0,0.0,0.0,0.0,0.0,-36.131568908691406,0.5757811665534973,0.057780709117650986,0.0,0.0,0.0,0.0,0.0,0.0,0.0,0.0,0.0,0.0250591691583395,-0.031360190361738205,0.02735297940671444,0.0,0.0,0.0,0.0,0.0,0.0,0.0,0.0,0.0
1606987636108103933,1352039,1606984035521074744,imu_link,-0.0020428202114999294,-0.004622658248990774,0.31010645627975464,-0.9506884217262268,0.0,0.0,0.0,0.0,0.0,0.0,0.0,0.0,0.0,-36.131473541259766,0.5761988759040833,0.058280713856220245,0.0,0.0,0.0,0.0,0.0,0.0,0.0,0.0,0.0,0.017786091193556786,-0.018097611144185066,0.031471770256757736,0.0,0.0,0.0,0.0,0.0,0.0,0.0,0.0,0.0
1606987636111678915,1352040,1606984035521215384,imu_link,-0.0020428202114999294,-0.004622658248990774,0.31010645627975464,-0.9506884217262268,0.0,0.0,0.0,0.0,0.0,0.0,0.0,0.0,0.0,-36.131473541259766,0.5761988759040833,0.058280713856220245,0.0,0.0,0.0,0.0,0.0,0.0,0.0,0.0,0.0,0.017786091193556786,-0.018097611144185066,0.031471770256757736,0.0,0.0,0.0,0.0,0.0,0.0,0.0,0.0,0.0
1606987636111710210,1352041,1606984035521396092,imu_link,-0.0020440833177417517,-0.004622012842446566,0.3101063668727875,-0.9506884217262268,0.0,0.0,0.0,0.0,0.0,0.0,0.0,0.0,0.0,-36.13146209716797,0.5761734247207642,0.05844131484627724,0.0,0.0,0.0,0.0,0.0,0.0,0.0,0.0,0.0,-0.009680267423391342,-0.0072667584754526615,0.011558834463357925,0.0,0.0,0.0,0.0,0.0,0.0,0.0,0.0,0.0
1606987636111721318,1352042,1606984035521488632,imu_link,-0.0020440833177417517,-0.004622012842446566,0.3101063668727875,-0.9506884217262268,0.0,0.0,0.0,0.0,0.0,0.0,0.0,0.0,0.0,-36.13146209716797,0.5761734247207642,0.05844131484627724,0.0,0.0,0.0,0.0,0.0,0.0,0.0,0.0,0.0,-0.009680267423391342,-0.0072667584754526615,0.011558834463357925,0.0,0.0,0.0,0.0,0.0,0.0,0.0,0.0,0.0
1606987636111729161,1352043,1606984035521587791,imu_link,-0.0020448360592126846,-0.004621833097189665,0.3101039528846741,-0.9506892561912537,0.0,0.0,0.0,0.0,0.0,0.0,0.0,0.0,0.0,-36.131168365478516,0.5761805176734924,0.05853116139769554,0.0,0.0,0.0,0.0,0.0,0.0,0.0,0.0,0.0,-0.012158084660768509,-0.01622227020561695,0.023495135828852654,0.0,0.0,0.0,0.0,0.0,0.0,0.0,0.0,0.0
1606987636111740556,1352044,1606984035521694563,imu_link,-0.0020448360592126846,-0.004621833097189665,0.3101039528846741,-0.9506892561912537,0.0,0.0,0.0,0.0,0.0,0.0,0.0,0.0,0.0,-36.131168365478516,0.5761805176734924,0.05853116139769554,0.0,0.0,0.0,0.0,0.0,0.0,0.0,0.0,0.0,-0.012158084660768509,-0.01622227020561695,0.023495135828852654,0.0,0.0,0.0,0.0,0.0,0.0,0.0,0.0,0.0
1606987636111759448,1352045,1606984035521815944,imu_link,-0.0020443738903850317,-0.004622938111424446,0.3101048767566681,-0.9506889581680298,0.0,0.0,0.0,0.0,0.0,0.0,0.0,0.0,0.0,-36.13127899169922,0.5762845277786255,0.05844099074602127,0.0,0.0,0.0,0.0,0.0,0.0,0.0,0.0,0.0,0.00016695816884748638,-0.010350002907216549,0.035741567611694336,0.0,0.0,0.0,0.0,0.0,0.0,0.0,0.0,0.0
1606987636111794383,1352046,1606984035521902209,imu_link,-0.0020443738903850317,-0.004622938111424446,0.3101048767566681,-0.9506889581680298,0.0,0.0,0.0,0.0,0.0,0.0,0.0,0.0,0.0,-36.13127899169922,0.5762845277786255,0.05844099074602127,0.0,0.0,0.0,0.0,0.0,0.0,0.0,0.0,0.0,0.00016695816884748638,-0.010350002907216549,0.035741567611694336,0.0,0.0,0.0,0.0,0.0,0.0,0.0,0.0,0.0
1606987636111806670,1352047,1606984035521978956,imu_link,-0.0020452099852263927,-0.004622031468898058,0.31010180711746216,-0.950689971446991,0.0,0.0,0.0,0.0,0.0,0.0,0.0,0.0,0.0,-36.13091278076172,0.5762152671813965,0.05856616795063019,0.0,0.0,0.0,0.0,0.0,0.0,0.0,0.0,0.0,0.007358819246292114,0.007325158454477787,0.04287533834576607,0.0,0.0,0.0,0.0,0.0,0.0,0.0,0.0,0.0
1606987636111815835,1352048,1606984035522063226,imu_link,-0.0020452099852263927,-0.004622031468898058,0.31010180711746216,-0.950689971446991,0.0,0.0,0.0,0.0,0.0,0.0,0.0,0.0,0.0,-36.13091278076172,0.5762152671813965,0.05856616795063019,0.0,0.0,0.0,0.0,0.0,0.0,0.0,0.0,0.0,0.007358819246292114,0.007325158454477787,0.04287533834576607,0.0,0.0,0.0,0.0,0.0,0.0,0.0,0.0,0.0
1606987636111825333,1352049,1606984035522149616,imu_link,-0.002044040709733963,-0.004622101783752441,0.310101717710495,-0.9506900310516357,0.0,0.0,0.0,0.0,0.0,0.0,0.0,0.0,0.0,-36.13090133666992,0.5761814117431641,0.058436326682567596,0.0,0.0,0.0,0.0,0.0,0.0,0.0,0.0,0.0,-0.0004582496185321361,-0.006634450517594814,0.045718878507614136,0.0,0.0,0.0,0.0,0.0,0.0,0.0,0.0,0.0
1606987636120889627,1352050,1606984035533986450,imu_link,-0.002044040709733963,-0.004622101783752441,0.310101717710495,-0.9506900310516357,0.0,0.0,0.0,0.0,0.0,0.0,0.0,0.0,0.0,-36.13090133666992,0.5761814117431641,0.058436326682567596,0.0,0.0,0.0,0.0,0.0,0.0,0.0,0.0,0.0,-0.0004582496185321361,-0.006634450517594814,0.045718878507614136,0.0,0.0,0.0,0.0,0.0,0.0,0.0,0.0,0.0
1606987636123135621,1352051,1606984035534125427,imu_link,-0.002043552463874221,-0.0046211420558393,0.310101181268692,-0.9506902098655701,0.0,0.0,0.0,0.0,0.0,0.0,0.0,0.0,0.0,-36.13083267211914,0.5760594606399536,0.05841756984591484,0.0,0.0,0.0,0.0,0.0,0.0,0.0,0.0,0.0,-0.019946614280343056,-0.0036039671394973993,0.05671178176999092,0.0,0.0,0.0,0.0,0.0,0.0,0.0,0.0,0.0
1606987636123171143,1352052,1606984035534309252,imu_link,-0.002043552463874221,-0.0046211420558393,0.310101181268692,-0.9506902098655701,0.0,0.0,0.0,0.0,0.0,0.0,0.0,0.0,0.0,-36.13083267211914,0.5760594606399536,0.05841756984591484,0.0,0.0,0.0,0.0,0.0,0.0,0.0,0.0,0.0,-0.019946614280343056,-0.0036039671394973993,0.05671178176999092,0.0,0.0,0.0,0.0,0.0,0.0,0.0,0.0,0.0
1606987636123221465,1352053,1606984035534389428,imu_link,-0.0020436702761799097,-0.004619224462658167,0.3101019561290741,-0.950689971446991,0.0,0.0,0.0,0.0,0.0,0.0,0.0,0.0,0.0,-36.13093185424805,0.5758548378944397,0.0584980808198452,0.0,0.0,0.0,0.0,0.0,0.0,0.0,0.0,0.0,-0.003952157683670521,0.006376700475811958,0.07333513349294662,0.0,0.0,0.0,0.0,0.0,0.0,0.0,0.0,0.0
1606987636123239359,1352054,1606984035534462753,imu_link,-0.0020436702761799097,-0.004619224462658167,0.3101019561290741,-0.950689971446991,0.0,0.0,0.0,0.0,0.0,0.0,0.0,0.0,0.0,-36.13093185424805,0.5758548378944397,0.0584980808198452,0.0,0.0,0.0,0.0,0.0,0.0,0.0,0.0,0.0,-0.003952157683670521,0.006376700475811958,0.07333513349294662,0.0,0.0,0.0,0.0,0.0,0.0,0.0,0.0,0.0
1606987636123270120,1352055,1606984035534580640,imu_link,-0.0020421864464879036,-0.0046203723177313805,0.31009939312934875,-0.950690746307373,0.0,0.0,0.0,0.0,0.0,0.0,0.0,0.0,0.0,-36.130619049072266,0.5759268999099731,0.05829717591404915,0.0,0.0,0.0,0.0,0.0,0.0,0.0,0.0,0.0,0.013466733507812023,-0.002999061718583107,0.07573717832565308,0.0,0.0,0.0,0.0,0.0,0.0,0.0,0.0,0.0
1606987636123302587,1352056,1606984035534701009,imu_link,-0.0020421864464879036,-0.0046203723177313805,0.31009939312934875,-0.950690746307373,0.0,0.0,0.0,0.0,0.0,0.0,0.0,0.0,0.0,-36.130619049072266,0.5759268999099731,0.05829717591404915,0.0,0.0,0.0,0.0,0.0,0.0,0.0,0.0,0.0,0.013466733507812023,-0.002999061718583107,0.07573717832565308,0.0,0.0,0.0,0.0,0.0,0.0,0.0,0.0,0.0
1606987636123323451,1352057,1606984035534777752,imu_link,-0.002042691223323345,-0.004619073122739792,0.3100987672805786,-0.9506909847259521,0.0,0.0,0.0,0.0,0.0,0.0,0.0,0.0,0.0,-36.13054275512695,0.575803279876709,0.05839871987700462,0.0,0.0,0.0,0.0,0.0,0.0,0.0,0.0,0.0,-0.012224337086081505,-0.004638673737645149,0.07055370509624481,0.0,0.0,0.0,0.0,0.0,0.0,0.0,0.0,0.0
1606987636123349041,1352058,1606984035534874250,imu_link,-0.002042691223323345,-0.004619073122739792,0.3100987672805786,-0.9506909847259521,0.0,0.0,0.0,0.0,0.0,0.0,0.0,0.0,0.0,-36.13054275512695,0.575803279876709,0.05839871987700462,0.0,0.0,0.0,0.0,0.0,0.0,0.0,0.0,0.0,-0.012224337086081505,-0.004638673737645149,0.07055370509624481,0.0,0.0,0.0,0.0,0.0,0.0,0.0,0.0,0.0
1606987636123365753,1352059,1606984035534996939,imu_link,-0.0020428712014108896,-0.00461822934448719,0.3100987374782562,-0.9506909847259521,0.0,0.0,0.0,0.0,0.0,0.0,0.0,0.0,0.0,-36.13053894042969,0.5757177472114563,0.05844833329319954,0.0,0.0,0.0,0.0,0.0,0.0,0.0,0.0,0.0,-0.016623198986053467,-0.0008915193611755967,0.057198405265808105,0.0,0.0,0.0,0.0,0.0,0.0,0.0,0.0,0.0
1606987636149502133,1352060,1606984035547714616,imu_link,-0.0020428712014108896,-0.00461822934448719,0.3100987374782562,-0.9506909847259521,0.0,0.0,0.0,0.0,0.0,0.0,0.0,0.0,0.0,-36.13053894042969,0.5757177472114563,0.05844833329319954,0.0,0.0,0.0,0.0,0.0,0.0,0.0,0.0,0.0,-0.016623198986053467,-0.0008915193611755967,0.057198405265808105,0.0,0.0,0.0,0.0,0.0,0.0,0.0,0.0,0.0
1606987636149529183,1352061,1606984035547852756,imu_link,-0.0020445736590772867,-0.004618124570697546,0.3100980222225189,-0.9506912231445312,0.0,0.0,0.0,0.0,0.0,0.0,0.0,0.0,0.0,-36.130455017089844,0.5757668018341064,0.058637965470552444,0.0,0.0,0.0,0.0,0.0,0.0,0.0,0.0,0.0,0.0046009160578250885,0.010326829738914967,0.04590784013271332,0.0,0.0,0.0,0.0,0.0,0.0,0.0,0.0,0.0
1606987636149562626,1352062,1606984035548032262,imu_link,-0.0020445736590772867,-0.004618124570697546,0.3100980222225189,-0.9506912231445312,0.0,0.0,0.0,0.0,0.0,0.0,0.0,0.0,0.0,-36.130455017089844,0.5757668018341064,0.058637965470552444,0.0,0.0,0.0,0.0,0.0,0.0,0.0,0.0,0.0,0.0046009160578250885,0.010326829738914967,0.04590784013271332,0.0,0.0,0.0,0.0,0.0,0.0,0.0,0.0,0.0
1606987636149572023,1352063,1606984035548187411,imu_link,-0.0020441540982574224,-0.004619264975190163,0.31010138988494873,-0.9506901502609253,0.0,0.0,0.0,0.0,0.0,0.0,0.0,0.0,0.0,-36.130859375,0.5758762955665588,0.05854969844222069,0.0,0.0,0.0,0.0,0.0,0.0,0.0,0.0,0.0,-0.004955126903951168,-0.0009760506800375879,0.05204354599118233,0.0,0.0,0.0,0.0,0.0,0.0,0.0,0.0,0.0
1606987636149580583,1352064,1606984035548278251,imu_link,-0.0020441540982574224,-0.004619264975190163,0.31010138988494873,-0.9506901502609253,0.0,0.0,0.0,0.0,0.0,0.0,0.0,0.0,0.0,-36.130859375,0.5758762955665588,0.05854969844222069,0.0,0.0,0.0,0.0,0.0,0.0,0.0,0.0,0.0,-0.004955126903951168,-0.0009760506800375879,0.05204354599118233,0.0,0.0,0.0,0.0,0.0,0.0,0.0,0.0,0.0
1606987636149590841,1352065,1606984035548351510,imu_link,-0.0020447494462132454,-0.0046182540245354176,0.3101007342338562,-0.9506903290748596,0.0,0.0,0.0,0.0,0.0,0.0,0.0,0.0,0.0,-36.13078308105469,0.5757873058319092,0.05865087732672691,0.0,0.0,0.0,0.0,0.0,0.0,0.0,0.0,0.0,-0.009142831899225712,-0.013456858694553375,0.04550318047404289,0.0,0.0,0.0,0.0,0.0,0.0,0.0,0.0,0.0
1606987636149600538,1352066,1606984035548458132,imu_link,-0.0020447494462132454,-0.0046182540245354176,0.3101007342338562,-0.9506903290748596,0.0,0.0,0.0,0.0,0.0,0.0,0.0,0.0,0.0,-36.13078308105469,0.5757873058319092,0.05865087732672691,0.0,0.0,0.0,0.0,0.0,0.0,0.0,0.0,0.0,-0.009142831899225712,-0.013456858694553375,0.04550318047404289,0.0,0.0,0.0,0.0,0.0,0.0,0.0,0.0,0.0
1606987636149639396,1352067,1606984035548535962,imu_link,-0.0020456912461668253,-0.00462010083720088,0.310093492269516,-0.9506927132606506,0.0,0.0,0.0,0.0,0.0,0.0,0.0,0.0,0.0,-36.129905700683594,0.5760214924812317,0.05869224667549133,0.0,0.0,0.0,0.0,0.0,0.0,0.0,0.0,0.0,0.010846336372196674,-0.0020249441731721163,0.03477037325501442,0.0,0.0,0.0,0.0,0.0,0.0,0.0,0.0,0.0
1606987636149655681,1352068,1606984035548612324,imu_link,-0.0020456912461668253,-0.00462010083720088,0.310093492269516,-0.9506927132606506,0.0,0.0,0.0,0.0,0.0,0.0,0.0,0.0,0.0,-36.129905700683594,0.5760214924812317,0.05869224667549133,0.0,0.0,0.0,0.0,0.0,0.0,0.0,0.0,0.0,0.010846336372196674,-0.0020249441731721163,0.03477037325501442,0.0,0.0,0.0,0.0,0.0,0.0,0.0,0.0,0.0
1606987636149692724,1352069,1606984035548693923,imu_link,-0.0020468607544898987,-0.00462084636092186,0.31009387969970703,-0.9506925344467163,0.0,0.0,0.0,0.0,0.0,0.0,0.0,0.0,0.0,-36.12995529174805,0.5761443376541138,0.058792922645807266,0.0,0.0,0.0,0.0,0.0,0.0,0.0,0.0,0.0,0.006755209062248468,-0.011120123788714409,0.014813409186899662,0.0,0.0,0.0,0.0,0.0,0.0,0.0,0.0,0.0
1606987636149714684,1352070,1606984035548780097,imu_link,-0.0020468607544898987,-0.00462084636092186,0.31009387969970703,-0.9506925344467163,0.0,0.0,0.0,0.0,0.0,0.0,0.0,0.0,0.0,-36.12995529174805,0.5761443376541138,0.058792922645807266,0.0,0.0,0.0,0.0,0.0,0.0,0.0,0.0,0.0,0.006755209062248468,-0.011120123788714409,0.014813409186899662,0.0,0.0,0.0,0.0,0.0,0.0,0.0,0.0,0.0
