%time,field.header.seq,field.header.stamp,field.header.frame_id,field.orientation.x,field.orientation.y,field.orientation.z,field.orientation.w,field.orientation_covariance0,field.orientation_covariance1,field.orientation_covariance2,field.orientation_covariance3,field.orientation_covariance4,field.orientation_covariance5,field.orientation_covariance6,field.orientation_covariance7,field.orientation_covariance8,field.angular_velocity.x,field.angular_velocity.y,field.angular_velocity.z,field.angular_velocity_covariance0,field.angular_velocity_covariance1,field.angular_velocity_covariance2,field.angular_velocity_covariance3,field.angular_velocity_covariance4,field.angular_velocity_covariance5,field.angular_velocity_covariance6,field.angular_velocity_covariance7,field.angular_velocity_covariance8,field.linear_acceleration.x,field.linear_acceleration.y,field.linear_acceleration.z,field.linear_acceleration_covariance0,field.linear_acceleration_covariance1,field.linear_acceleration_covariance2,field.linear_acceleration_covariance3,field.linear_acceleration_covariance4,field.linear_acceleration_covariance5,field.linear_acceleration_covariance6,field.linear_acceleration_covariance7,field.linear_acceleration_covariance8
1606987223948741280,1022270,1606983623303924256,imu_link,0.0016981540247797966,0.005647824611514807,-0.8738034963607788,0.48624348640441895,0.0,0.0,0.0,0.0,0.0,0.0,0.0,0.0,0.0,-121.81293487548828,0.4847361445426941,-0.47092151641845703,0.0,0.0,0.0,0.0,0.0,0.0,0.0,0.0,0.0,0.00021307992574293166,0.002854739548638463,0.0202388484030962,0.0,0.0,0.0,0.0,0.0,0.0,0.0,0.0,0.0
1606987223948789815,1022271,1606983623304098006,imu_link,0.0016975377220660448,0.005646963138133287,-0.8738032579421997,0.48624387383461,0.0,0.0,0.0,0.0,0.0,0.0,0.0,0.0,0.0,-121.81288146972656,0.4846266508102417,-0.4708693325519562,0.0,0.0,0.0,0.0,0.0,0.0,0.0,0.0,0.0,0.013776170089840889,0.02912568673491478,0.0024331440217792988,0.0,0.0,0.0,0.0,0.0,0.0,0.0,0.0,0.0
1606987223948813841,1022272,1606983623304252906,imu_link,0.0016975377220660448,0.005646963138133287,-0.8738032579421997,0.48624387383461,0.0,0.0,0.0,0.0,0.0,0.0,0.0,0.0,0.0,-121.81288146972656,0.4846266508102417,-0.4708693325519562,0.0,0.0,0.0,0.0,0.0,0.0,0.0,0.0,0.0,0.013776170089840889,0.02912568673491478,0.0024331440217792988,0.0,0.0,0.0,0.0,0.0,0.0,0.0,0.0,0.0
1606987223948840687,1022273,1606983623304408653,imu_link,0.001700665568932891,0.005648599471896887,-0.8738028407096863,0.48624464869499207,0.0,0.0,0.0,0.0,0.0,0.0,0.0,0.0,0.0,-121.8127670288086,0.48503151535987854,-0.47085854411125183,0.0,0.0,0.0,0.0,0.0,0.0,0.0,0.0,0.0,0.010726753622293472,0.02403748780488968,0.04506839066743851,0.0,0.0,0.0,0.0,0.0,0.0,0.0,0.0,0.0
1606987223948853837,1022274,1606983623304580263,imu_link,0.001700665568932891,0.005648599471896887,-0.8738028407096863,0.48624464869499207,0.0,0.0,0.0,0.0,0.0,0.0,0.0,0.0,0.0,-121.8127670288086,0.48503151535987854,-0.47085854411125183,0.0,0.0,0.0,0.0,0.0,0.0,0.0,0.0,0.0,0.010726753622293472,0.02403748780488968,0.04506839066743851,0.0,0.0,0.0,0.0,0.0,0.0,0.0,0.0,0.0
1606987223948874769,1022275,1606983623304759630,imu_link,0.0016986975679174066,0.00565250962972641,-0.8738067746162415,0.48623761534690857,0.0,0.0,0.0,0.0,0.0,0.0,0.0,0.0,0.0,-121.8136978149414,0.4850485324859619,-0.4713636636734009,0.0,0.0,0.0,0.0,0.0,0.0,0.0,0.0,0.0,-0.0060707624070346355,0.015659209340810776,0.059433501213788986,0.0,0.0,0.0,0.0,0.0,0.0,0.0,0.0,0.0
1606987223948889965,1022276,1606983623304899330,imu_link,0.0016986975679174066,0.00565250962972641,-0.8738067746162415,0.48623761534690857,0.0,0.0,0.0,0.0,0.0,0.0,0.0,0.0,0.0,-121.8136978149414,0.4850485324859619,-0.4713636636734009,0.0,0.0,0.0,0.0,0.0,0.0,0.0,0.0,0.0,-0.0060707624070346355,0.015659209340810776,0.059433501213788986,0.0,0.0,0.0,0.0,0.0,0.0,0.0,0.0,0.0
1606987223948903346,1022277,1606983623305039045,imu_link,0.0016979565843939781,0.005652066320180893,-0.8738064765930176,0.48623815178871155,0.0,0.0,0.0,0.0,0.0,0.0,0.0,0.0,0.0,-121.81362915039062,0.48494991660118103,-0.4713601768016815,0.0,0.0,0.0,0.0,0.0,0.0,0.0,0.0,0.0,-0.009528795257210732,0.009626020677387714,0.039963141083717346,0.0,0.0,0.0,0.0,0.0,0.0,0.0,0.0,0.0
1606987223948909890,1022278,1606983623305173134,imu_link,0.0016979565843939781,0.005652066320180893,-0.8738064765930176,0.48623815178871155,0.0,0.0,0.0,0.0,0.0,0.0,0.0,0.0,0.0,-121.81362915039062,0.48494991660118103,-0.4713601768016815,0.0,0.0,0.0,0.0,0.0,0.0,0.0,0.0,0.0,-0.009528795257210732,0.009626020677387714,0.039963141083717346,0.0,0.0,0.0,0.0,0.0,0.0,0.0,0.0,0.0
1606987223948923000,1022279,1606983623305306396,imu_link,0.0016963487723842263,0.005652234889566898,-0.8738112449645996,0.4862295091152191,0.0,0.0,0.0,0.0,0.0,0.0,0.0,0.0,0.0,-121.81476593017578,0.4847935736179352,-0.47147154808044434,0.0,0.0,0.0,0.0,0.0,0.0,0.0,0.0,0.0,0.0017107274616137147,0.005100182723253965,0.03794284537434578,0.0,0.0,0.0,0.0,0.0,0.0,0.0,0.0,0.0
1606987223948954844,1022280,1606983623317783863,imu_link,0.0016963487723842263,0.005652234889566898,-0.8738112449645996,0.4862295091152191,0.0,0.0,0.0,0.0,0.0,0.0,0.0,0.0,0.0,-121.81476593017578,0.4847935736179352,-0.47147154808044434,0.0,0.0,0.0,0.0,0.0,0.0,0.0,0.0,0.0,0.0017107274616137147,0.005100182723253965,0.03794284537434578,0.0,0.0,0.0,0.0,0.0,0.0,0.0,0.0,0.0
1606987223948993375,1022281,1606983623317957250,imu_link,0.0016962526133283973,0.005652921739965677,-0.8738113641738892,0.4862293004989624,0.0,0.0,0.0,0.0,0.0,0.0,0.0,0.0,0.0,-121.81478881835938,0.4848221242427826,-0.4715457260608673,0.0,0.0,0.0,0.0,0.0,0.0,0.0,0.0,0.0,-0.009592202492058277,0.00021144610946066678,0.018118897452950478,0.0,0.0,0.0,0.0,0.0,0.0,0.0,0.0,0.0
1606987223949006605,1022282,1606983623318107001,imu_link,0.0016962526133283973,0.005652921739965677,-0.8738113641738892,0.4862293004989624,0.0,0.0,0.0,0.0,0.0,0.0,0.0,0.0,0.0,-121.81478881835938,0.4848221242427826,-0.4715457260608673,0.0,0.0,0.0,0.0,0.0,0.0,0.0,0.0,0.0,-0.009592202492058277,0.00021144610946066678,0.018118897452950478,0.0,0.0,0.0,0.0,0.0,0.0,0.0,0.0,0.0
1606987223949027120,1022283,1606983623318247205,imu_link,0.0016945283859968185,0.0056520369835197926,-0.8738142251968384,0.4862242341041565,0.0,0.0,0.0,0.0,0.0,0.0,0.0,0.0,0.0,-121.81546020507812,0.48459741473197937,-0.4715559780597687,0.0,0.0,0.0,0.0,0.0,0.0,0.0,0.0,0.0,-0.0126119926571846,-0.017116891220211983,0.024385664612054825,0.0,0.0,0.0,0.0,0.0,0.0,0.0,0.0,0.0
1606987223949038487,1022284,1606983623318390319,imu_link,0.0016945283859968185,0.0056520369835197926,-0.8738142251968384,0.4862242341041565,0.0,0.0,0.0,0.0,0.0,0.0,0.0,0.0,0.0,-121.81546020507812,0.48459741473197937,-0.4715559780597687,0.0,0.0,0.0,0.0,0.0,0.0,0.0,0.0,0.0,-0.0126119926571846,-0.017116891220211983,0.024385664612054825,0.0,0.0,0.0,0.0,0.0,0.0,0.0,0.0,0.0
1606987223949050811,1022285,1606983623318543176,imu_link,0.0016955548198893666,0.005652852822095156,-0.873813807964325,0.4862249493598938,0.0,0.0,0.0,0.0,0.0,0.0,0.0,0.0,0.0,-121.81536865234375,0.4847460687160492,-0.47158002853393555,0.0,0.0,0.0,0.0,0.0,0.0,0.0,0.0,0.0,-0.01056640688329935,-0.0226698387414217,0.03810158744454384,0.0,0.0,0.0,0.0,0.0,0.0,0.0,0.0,0.0
1606987223949058526,1022286,1606983623318709659,imu_link,0.0016955548198893666,0.005652852822095156,-0.873813807964325,0.4862249493598938,0.0,0.0,0.0,0.0,0.0,0.0,0.0,0.0,0.0,-121.81536865234375,0.4847460687160492,-0.47158002853393555,0.0,0.0,0.0,0.0,0.0,0.0,0.0,0.0,0.0,-0.01056640688329935,-0.0226698387414217,0.03810158744454384,0.0,0.0,0.0,0.0,0.0,0.0,0.0,0.0,0.0
1606987224008010271,1022287,1606983623318846343,imu_link,0.0016957510961219668,0.005647449754178524,-0.8738160729408264,0.48622095584869385,0.0,0.0,0.0,0.0,0.0,0.0,0.0,0.0,0.0,-121.81588745117188,0.48446252942085266,-0.4710303544998169,0.0,0.0,0.0,0.0,0.0,0.0,0.0,0.0,0.0,-0.02320406399667263,0.005100732669234276,0.014707863330841064,0.0,0.0,0.0,0.0,0.0,0.0,0.0,0.0,0.0
1606987224008054551,1022288,1606983623319033846,imu_link,0.0016957510961219668,0.005647449754178524,-0.8738160729408264,0.48622095584869385,0.0,0.0,0.0,0.0,0.0,0.0,0.0,0.0,0.0,-121.81588745117188,0.48446252942085266,-0.4710303544998169,0.0,0.0,0.0,0.0,0.0,0.0,0.0,0.0,0.0,-0.02320406399667263,0.005100732669234276,0.014707863330841064,0.0,0.0,0.0,0.0,0.0,0.0,0.0,0.0,0.0
1606987224008078002,1022289,1606983623319188499,imu_link,0.0016978633357211947,0.0056478846818208694,-0.8738151788711548,0.4862223267555237,0.0,0.0,0.0,0.0,0.0,0.0,0.0,0.0,0.0,-121.81570434570312,0.48469895124435425,-0.47095543146133423,0.0,0.0,0.0,0.0,0.0,0.0,0.0,0.0,0.0,-0.014887276105582714,0.009449495002627373,0.007017990108579397,0.0,0.0,0.0,0.0,0.0,0.0,0.0,0.0,0.0
1606987224008126179,1022290,1606983623319343713,imu_link,0.0016978633357211947,0.0056478846818208694,-0.8738151788711548,0.4862223267555237,0.0,0.0,0.0,0.0,0.0,0.0,0.0,0.0,0.0,-121.81570434570312,0.48469895124435425,-0.47095543146133423,0.0,0.0,0.0,0.0,0.0,0.0,0.0,0.0,0.0,-0.014887276105582714,0.009449495002627373,0.007017990108579397,0.0,0.0,0.0,0.0,0.0,0.0,0.0,0.0,0.0
1606987224008142270,1022291,1606983623327502871,imu_link,0.0016933162696659565,0.0056495689786970615,-0.8738117814064026,0.48622870445251465,0.0,0.0,0.0,0.0,0.0,0.0,0.0,0.0,0.0,-121.81487274169922,0.48434096574783325,-0.47137388586997986,0.0,0.0,0.0,0.0,0.0,0.0,0.0,0.0,0.0,0.0036474200896918774,0.004326539114117622,0.013717321678996086,0.0,0.0,0.0,0.0,0.0,0.0,0.0,0.0,0.0
1606987224011946785,1022292,1606983623327840908,imu_link,0.0016933162696659565,0.0056495689786970615,-0.8738117814064026,0.48622870445251465,0.0,0.0,0.0,0.0,0.0,0.0,0.0,0.0,0.0,-121.81487274169922,0.48434096574783325,-0.47137388586997986,0.0,0.0,0.0,0.0,0.0,0.0,0.0,0.0,0.0,0.0036474200896918774,0.004326539114117622,0.013717321678996086,0.0,0.0,0.0,0.0,0.0,0.0,0.0,0.0,0.0
1606987224011983034,1022293,1606983623327997039,imu_link,0.0016946924151852727,0.0056505887769162655,-0.8738114237785339,0.4862291216850281,0.0,0.0,0.0,0.0,0.0,0.0,0.0,0.0,0.0,-121.81480407714844,0.4845357835292816,-0.471399188041687,0.0,0.0,0.0,0.0,0.0,0.0,0.0,0.0,0.0,-0.0026503668632358313,0.0021234569139778614,0.025524787604808807,0.0,0.0,0.0,0.0,0.0,0.0,0.0,0.0,0.0
1606987224012000427,1022294,1606983623328168612,imu_link,0.0016946924151852727,0.0056505887769162655,-0.8738114237785339,0.4862291216850281,0.0,0.0,0.0,0.0,0.0,0.0,0.0,0.0,0.0,-121.81480407714844,0.4845357835292816,-0.471399188041687,0.0,0.0,0.0,0.0,0.0,0.0,0.0,0.0,0.0,-0.0026503668632358313,0.0021234569139778614,0.025524787604808807,0.0,0.0,0.0,0.0,0.0,0.0,0.0,0.0,0.0
1606987224012019609,1022295,1606983623328320999,imu_link,0.0016936436295509338,0.005650123581290245,-0.8738088607788086,0.48623380064964294,0.0,0.0,0.0,0.0,0.0,0.0,0.0,0.0,0.0,-121.81420135498047,0.4844073951244354,-0.471408486366272,0.0,0.0,0.0,0.0,0.0,0.0,0.0,0.0,0.0,-0.02314387820661068,-0.004768720827996731,0.028770245611667633,0.0,0.0,0.0,0.0,0.0,0.0,0.0,0.0,0.0
1606987224012029555,1022296,1606983623328473773,imu_link,0.0016936436295509338,0.005650123581290245,-0.8738088607788086,0.48623380064964294,0.0,0.0,0.0,0.0,0.0,0.0,0.0,0.0,0.0,-121.81420135498047,0.4844073951244354,-0.471408486366272,0.0,0.0,0.0,0.0,0.0,0.0,0.0,0.0,0.0,-0.02314387820661068,-0.004768720827996731,0.028770245611667633,0.0,0.0,0.0,0.0,0.0,0.0,0.0,0.0,0.0
1606987224012063652,1022297,1606983623328626271,imu_link,0.0016939127817749977,0.005647884216159582,-0.873809814453125,0.4862321615219116,0.0,0.0,0.0,0.0,0.0,0.0,0.0,0.0,0.0,-121.81442260742188,0.4843086898326874,-0.4711700677871704,0.0,0.0,0.0,0.0,0.0,0.0,0.0,0.0,0.0,-0.026250028982758522,0.0009559752652421594,0.03925556689500809,0.0,0.0,0.0,0.0,0.0,0.0,0.0,0.0,0.0
1606987224012093544,1022298,1606983623328775135,imu_link,0.0016939127817749977,0.005647884216159582,-0.873809814453125,0.4862321615219116,0.0,0.0,0.0,0.0,0.0,0.0,0.0,0.0,0.0,-121.81442260742188,0.4843086898326874,-0.4711700677871704,0.0,0.0,0.0,0.0,0.0,0.0,0.0,0.0,0.0,-0.026250028982758522,0.0009559752652421594,0.03925556689500809,0.0,0.0,0.0,0.0,0.0,0.0,0.0,0.0,0.0
1606987224022343289,1022299,1606983623341123269,imu_link,0.0016903354553505778,0.005645617842674255,-0.8738113641738892,0.48622938990592957,0.0,0.0,0.0,0.0,0.0,0.0,0.0,0.0,0.0,-121.81478118896484,0.4838227331638336,-0.4711439609527588,0.0,0.0,0.0,0.0,0.0,0.0,0.0,0.0,0.0,-0.029226556420326233,0.00949865486472845,0.03765188157558441,0.0,0.0,0.0,0.0,0.0,0.0,0.0,0.0,0.0
1606987224022372480,1022300,1606983623341297103,imu_link,0.0016903354553505778,0.005645617842674255,-0.8738113641738892,0.48622938990592957,0.0,0.0,0.0,0.0,0.0,0.0,0.0,0.0,0.0,-121.81478118896484,0.4838227331638336,-0.4711439609527588,0.0,0.0,0.0,0.0,0.0,0.0,0.0,0.0,0.0,-0.029226556420326233,0.00949865486472845,0.03765188157558441,0.0,0.0,0.0,0.0,0.0,0.0,0.0,0.0,0.0
1606987224022387950,1022301,1606983623341456579,imu_link,0.001694567035883665,0.005646278150379658,-0.8738120794296265,0.48622801899909973,0.0,0.0,0.0,0.0,0.0,0.0,0.0,0.0,0.0,-121.81495666503906,0.4842824637889862,-0.47097504138946533,0.0,0.0,0.0,0.0,0.0,0.0,0.0,0.0,0.0,-0.014165324158966541,0.0012926278868690133,0.028114935383200645,0.0,0.0,0.0,0.0,0.0,0.0,0.0,0.0,0.0
1606987224022399826,1022302,1606983623341605786,imu_link,0.001694567035883665,0.005646278150379658,-0.8738120794296265,0.48622801899909973,0.0,0.0,0.0,0.0,0.0,0.0,0.0,0.0,0.0,-121.81495666503906,0.4842824637889862,-0.47097504138946533,0.0,0.0,0.0,0.0,0.0,0.0,0.0,0.0,0.0,-0.014165324158966541,0.0012926278868690133,0.028114935383200645,0.0,0.0,0.0,0.0,0.0,0.0,0.0,0.0,0.0
1606987224088313399,1022303,1606983623341775405,imu_link,0.0016924954252317548,0.00564455846324563,-0.8738139271736145,0.48622480034828186,0.0,0.0,0.0,0.0,0.0,0.0,0.0,0.0,0.0,-121.81537628173828,0.48397746682167053,-0.47092005610466003,0.0,0.0,0.0,0.0,0.0,0.0,0.0,0.0,0.0,-0.003228033659979701,-0.0057761529460549355,0.02177068404853344,0.0,0.0,0.0,0.0,0.0,0.0,0.0,0.0,0.0
1606987224088335398,1022304,1606983623341950206,imu_link,0.0016924954252317548,0.00564455846324563,-0.8738139271736145,0.48622480034828186,0.0,0.0,0.0,0.0,0.0,0.0,0.0,0.0,0.0,-121.81537628173828,0.48397746682167053,-0.47092005610466003,0.0,0.0,0.0,0.0,0.0,0.0,0.0,0.0,0.0,-0.003228033659979701,-0.0057761529460549355,0.02177068404853344,0.0,0.0,0.0,0.0,0.0,0.0,0.0,0.0,0.0
1606987224088344389,1022305,1606983623342087996,imu_link,0.0016902361530810595,0.005643767304718494,-0.8738138675689697,0.4862249195575714,0.0,0.0,0.0,0.0,0.0,0.0,0.0,0.0,0.0,-121.81536865234375,0.4837072491645813,-0.470966637134552,0.0,0.0,0.0,0.0,0.0,0.0,0.0,0.0,0.0,-0.017036201432347298,-0.00850743893533945,0.013719432055950165,0.0,0.0,0.0,0.0,0.0,0.0,0.0,0.0,0.0
1606987224088360673,1022306,1606983623342225259,imu_link,0.0016902361530810595,0.005643767304718494,-0.8738138675689697,0.4862249195575714,0.0,0.0,0.0,0.0,0.0,0.0,0.0,0.0,0.0,-121.81536865234375,0.4837072491645813,-0.470966637134552,0.0,0.0,0.0,0.0,0.0,0.0,0.0,0.0,0.0,-0.017036201432347298,-0.00850743893533945,0.013719432055950165,0.0,0.0,0.0,0.0,0.0,0.0,0.0,0.0,0.0
1606987224088380403,1022307,1606983623342359905,imu_link,0.0016911322018131614,0.005640091374516487,-0.8738119006156921,0.48622846603393555,0.0,0.0,0.0,0.0,0.0,0.0,0.0,0.0,0.0,-121.81490325927734,0.48359405994415283,-0.4705466330051422,0.0,0.0,0.0,0.0,0.0,0.0,0.0,0.0,0.0,-0.003043420845642686,-0.023119980469346046,0.01901756227016449,0.0,0.0,0.0,0.0,0.0,0.0,0.0,0.0,0.0
1606987224088389253,1022308,1606983623342491730,imu_link,0.0016911322018131614,0.005640091374516487,-0.8738119006156921,0.48622846603393555,0.0,0.0,0.0,0.0,0.0,0.0,0.0,0.0,0.0,-121.81490325927734,0.48359405994415283,-0.4705466330051422,0.0,0.0,0.0,0.0,0.0,0.0,0.0,0.0,0.0,-0.003043420845642686,-0.023119980469346046,0.01901756227016449,0.0,0.0,0.0,0.0,0.0,0.0,0.0,0.0,0.0
1606987224088398769,1022309,1606983623342626022,imu_link,0.0016939070774242282,0.0056387558579444885,-0.8738132119178772,0.4862261414527893,0.0,0.0,0.0,0.0,0.0,0.0,0.0,0.0,0.0,-121.81520080566406,0.48379623889923096,-0.4702596068382263,0.0,0.0,0.0,0.0,0.0,0.0,0.0,0.0,0.0,0.010956844314932823,-0.01251628901809454,0.0323120579123497,0.0,0.0,0.0,0.0,0.0,0.0,0.0,0.0,0.0
1606987224088407714,1022310,1606983623353985956,imu_link,0.0016939070774242282,0.0056387558579444885,-0.8738132119178772,0.4862261414527893,0.0,0.0,0.0,0.0,0.0,0.0,0.0,0.0,0.0,-121.81520080566406,0.48379623889923096,-0.4702596068382263,0.0,0.0,0.0,0.0,0.0,0.0,0.0,0.0,0.0,0.010956844314932823,-0.01251628901809454,0.0323120579123497,0.0,0.0,0.0,0.0,0.0,0.0,0.0,0.0,0.0
1606987224097293270,1022311,1606983623354184801,imu_link,0.0016982953529804945,0.005637550726532936,-0.873810887336731,0.48623037338256836,0.0,0.0,0.0,0.0,0.0,0.0,0.0,0.0,0.0,-121.81464385986328,0.4841708540916443,-0.46989211440086365,0.0,0.0,0.0,0.0,0.0,0.0,0.0,0.0,0.0,0.010554488748311996,-0.0044015743769705296,0.054112061858177185,0.0,0.0,0.0,0.0,0.0,0.0,0.0,0.0,0.0
1606987224097326202,1022312,1606983623354356779,imu_link,0.0016982953529804945,0.005637550726532936,-0.873810887336731,0.48623037338256836,0.0,0.0,0.0,0.0,0.0,0.0,0.0,0.0,0.0,-121.81464385986328,0.4841708540916443,-0.46989211440086365,0.0,0.0,0.0,0.0,0.0,0.0,0.0,0.0,0.0,0.010554488748311996,-0.0044015743769705296,0.054112061858177185,0.0,0.0,0.0,0.0,0.0,0.0,0.0,0.0,0.0
1606987224097341412,1022313,1606983623354531533,imu_link,0.001699757413007319,0.0056367735378444195,-0.8738115429878235,0.48622915148735046,0.0,0.0,0.0,0.0,0.0,0.0,0.0,0.0,0.0,-121.81480407714844,0.4842732548713684,-0.4697335362434387,0.0,0.0,0.0,0.0,0.0,0.0,0.0,0.0,0.0,0.0051079606637358665,-0.004649955779314041,0.05626429244875908,0.0,0.0,0.0,0.0,0.0,0.0,0.0,0.0,0.0
1606987224097366543,1022314,1606983623354707846,imu_link,0.001699757413007319,0.0056367735378444195,-0.8738115429878235,0.48622915148735046,0.0,0.0,0.0,0.0,0.0,0.0,0.0,0.0,0.0,-121.81480407714844,0.4842732548713684,-0.4697335362434387,0.0,0.0,0.0,0.0,0.0,0.0,0.0,0.0,0.0,0.0051079606637358665,-0.004649955779314041,0.05626429244875908,0.0,0.0,0.0,0.0,0.0,0.0,0.0,0.0,0.0
1606987224097378222,1022315,1606983623354893902,imu_link,0.001703204121440649,0.005635628942400217,-0.8738116025924683,0.48622897267341614,0.0,0.0,0.0,0.0,0.0,0.0,0.0,0.0,0.0,-121.81483459472656,0.4845544993877411,-0.4694269895553589,0.0,0.0,0.0,0.0,0.0,0.0,0.0,0.0,0.0,-0.009160010144114494,0.0010430881520733237,0.019376888871192932,0.0,0.0,0.0,0.0,0.0,0.0,0.0,0.0,0.0
1606987224097396330,1022316,1606983623355082959,imu_link,0.001703204121440649,0.005635628942400217,-0.8738116025924683,0.48622897267341614,0.0,0.0,0.0,0.0,0.0,0.0,0.0,0.0,0.0,-121.81483459472656,0.4845544993877411,-0.4694269895553589,0.0,0.0,0.0,0.0,0.0,0.0,0.0,0.0,0.0,-0.009160010144114494,0.0010430881520733237,0.019376888871192932,0.0,0.0,0.0,0.0,0.0,0.0,0.0,0.0,0.0
1606987224097463919,1022317,1606983623355241847,imu_link,0.0017025002744048834,0.00563623895868659,-0.8738123178482056,0.48622772097587585,0.0,0.0,0.0,0.0,0.0,0.0,0.0,0.0,0.0,-121.81499481201172,0.48451730608940125,-0.469527930021286,0.0,0.0,0.0,0.0,0.0,0.0,0.0,0.0,0.0,-0.001174465287476778,-0.0010751791996881366,0.01507229171693325,0.0,0.0,0.0,0.0,0.0,0.0,0.0,0.0,0.0
1606987224097504663,1022318,1606983623355395984,imu_link,0.0017025002744048834,0.00563623895868659,-0.8738123178482056,0.48622772097587585,0.0,0.0,0.0,0.0,0.0,0.0,0.0,0.0,0.0,-121.81499481201172,0.48451730608940125,-0.469527930021286,0.0,0.0,0.0,0.0,0.0,0.0,0.0,0.0,0.0,-0.001174465287476778,-0.0010751791996881366,0.01507229171693325,0.0,0.0,0.0,0.0,0.0,0.0,0.0,0.0,0.0
1606987224097514942,1022319,1606983623355545826,imu_link,0.0017027733847498894,0.005636966787278652,-0.8738109469413757,0.48623016476631165,0.0,0.0,0.0,0.0,0.0,0.0,0.0,0.0,0.0,-121.81466674804688,0.48458653688430786,-0.46958428621292114,0.0,0.0,0.0,0.0,0.0,0.0,0.0,0.0,0.0,0.00573547650128603,-0.008982643485069275,0.04720888286828995,0.0,0.0,0.0,0.0,0.0,0.0,0.0,0.0,0.0
1606987224097525138,1022320,1606983623367786038,imu_link,0.0017027733847498894,0.005636966787278652,-0.8738109469413757,0.48623016476631165,0.0,0.0,0.0,0.0,0.0,0.0,0.0,0.0,0.0,-121.81466674804688,0.48458653688430786,-0.46958428621292114,0.0,0.0,0.0,0.0,0.0,0.0,0.0,0.0,0.0,0.00573547650128603,-0.008982643485069275,0.04720888286828995,0.0,0.0,0.0,0.0,0.0,0.0,0.0,0.0,0.0
1606987224097544596,1022321,1606983623367998515,imu_link,0.0017037598881870508,0.005636715330183506,-0.8738115429878235,0.4862290918827057,0.0,0.0,0.0,0.0,0.0,0.0,0.0,0.0,0.0,-121.81480407714844,0.4846707284450531,-0.469504714012146,0.0,0.0,0.0,0.0,0.0,0.0,0.0,0.0,0.0,-0.011412161402404308,-0.0053774151019752026,0.025166893377900124,0.0,0.0,0.0,0.0,0.0,0.0,0.0,0.0,0.0
1606987224097568101,1022322,1606983623368202081,imu_link,0.0017037598881870508,0.005636715330183506,-0.8738115429878235,0.4862290918827057,0.0,0.0,0.0,0.0,0.0,0.0,0.0,0.0,0.0,-121.81480407714844,0.4846707284450531,-0.469504714012146,0.0,0.0,0.0,0.0,0.0,0.0,0.0,0.0,0.0,-0.011412161402404308,-0.0053774151019752026,0.025166893377900124,0.0,0.0,0.0,0.0,0.0,0.0,0.0,0.0,0.0
1606987224097577889,1022323,1606983623368373653,imu_link,0.0017017825739458203,0.005636224057525396,-0.8738150000572205,0.48622289299964905,0.0,0.0,0.0,0.0,0.0,0.0,0.0,0.0,0.0,-121.81562805175781,0.4844420254230499,-0.4695691168308258,0.0,0.0,0.0,0.0,0.0,0.0,0.0,0.0,0.0,-0.015207565389573574,-0.004915179219096899,0.011941724456846714,0.0,0.0,0.0,0.0,0.0,0.0,0.0,0.0,0.0
1606987224182476342,1022324,1606983623368541426,imu_link,0.0017017825739458203,0.005636224057525396,-0.8738150000572205,0.48622289299964905,0.0,0.0,0.0,0.0,0.0,0.0,0.0,0.0,0.0,-121.81562805175781,0.4844420254230499,-0.4695691168308258,0.0,0.0,0.0,0.0,0.0,0.0,0.0,0.0,0.0,-0.015207565389573574,-0.004915179219096899,0.011941724456846714,0.0,0.0,0.0,0.0,0.0,0.0,0.0,0.0,0.0
1606987224182494458,1022325,1606983623368712081,imu_link,0.0017033303156495094,0.005635473877191544,-0.8738148212432861,0.4862232804298401,0.0,0.0,0.0,0.0,0.0,0.0,0.0,0.0,0.0,-121.81556701660156,0.4845554828643799,-0.46940749883651733,0.0,0.0,0.0,0.0,0.0,0.0,0.0,0.0,0.0,-0.004710199311375618,0.004357147961854935,0.03148837387561798,0.0,0.0,0.0,0.0,0.0,0.0,0.0,0.0,0.0
1606987224182523407,1022326,1606983623368887778,imu_link,0.0017033303156495094,0.005635473877191544,-0.8738148212432861,0.4862232804298401,0.0,0.0,0.0,0.0,0.0,0.0,0.0,0.0,0.0,-121.81556701660156,0.4845554828643799,-0.46940749883651733,0.0,0.0,0.0,0.0,0.0,0.0,0.0,0.0,0.0,-0.004710199311375618,0.004357147961854935,0.03148837387561798,0.0,0.0,0.0,0.0,0.0,0.0,0.0,0.0,0.0
1606987224182538410,1022327,1606983623369040376,imu_link,0.0017024163389578462,0.005635014269500971,-0.8738170266151428,0.4862193763256073,0.0,0.0,0.0,0.0,0.0,0.0,0.0,0.0,0.0,-121.81608581542969,0.4844362735748291,-0.46941453218460083,0.0,0.0,0.0,0.0,0.0,0.0,0.0,0.0,0.0,-0.000954897201154381,0.00642242468893528,0.04798717424273491,0.0,0.0,0.0,0.0,0.0,0.0,0.0,0.0,0.0
1606987224189348289,1022328,1606983623369194693,imu_link,0.0017024163389578462,0.005635014269500971,-0.8738170266151428,0.4862193763256073,0.0,0.0,0.0,0.0,0.0,0.0,0.0,0.0,0.0,-121.81608581542969,0.4844362735748291,-0.46941453218460083,0.0,0.0,0.0,0.0,0.0,0.0,0.0,0.0,0.0,-0.000954897201154381,0.00642242468893528,0.04798717424273491,0.0,0.0,0.0,0.0,0.0,0.0,0.0,0.0,0.0
1606987224189369884,1022329,1606983623369345432,imu_link,0.0017027409048750997,0.0056354026310145855,-0.8738178610801697,0.48621782660484314,0.0,0.0,0.0,0.0,0.0,0.0,0.0,0.0,0.0,-121.81629180908203,0.4844895303249359,-0.46943625807762146,0.0,0.0,0.0,0.0,0.0,0.0,0.0,0.0,0.0,0.006700331345200539,-0.0011594102252274752,0.055037934333086014,0.0,0.0,0.0,0.0,0.0,0.0,0.0,0.0,0.0
1606987224189391820,1022330,1606983623369493339,imu_link,0.0017027409048750997,0.0056354026310145855,-0.8738178610801697,0.48621782660484314,0.0,0.0,0.0,0.0,0.0,0.0,0.0,0.0,0.0,-121.81629180908203,0.4844895303249359,-0.46943625807762146,0.0,0.0,0.0,0.0,0.0,0.0,0.0,0.0,0.0,0.006700331345200539,-0.0011594102252274752,0.055037934333086014,0.0,0.0,0.0,0.0,0.0,0.0,0.0,0.0,0.0
1606987224189404407,1022331,1606983623381071821,imu_link,0.001703253947198391,0.005636186804622412,-0.8738157749176025,0.486221581697464,0.0,0.0,0.0,0.0,0.0,0.0,0.0,0.0,0.0,-121.81580352783203,0.484586626291275,-0.4694841206073761,0.0,0.0,0.0,0.0,0.0,0.0,0.0,0.0,0.0,0.0140833156183362,0.008012539707124233,0.02404259331524372,0.0,0.0,0.0,0.0,0.0,0.0,0.0,0.0,0.0
1606987224193797472,1022332,1606983623381236958,imu_link,0.001703253947198391,0.005636186804622412,-0.8738157749176025,0.486221581697464,0.0,0.0,0.0,0.0,0.0,0.0,0.0,0.0,0.0,-121.81580352783203,0.484586626291275,-0.4694841206073761,0.0,0.0,0.0,0.0,0.0,0.0,0.0,0.0,0.0,0.0140833156183362,0.008012539707124233,0.02404259331524372,0.0,0.0,0.0,0.0,0.0,0.0,0.0,0.0,0.0
1606987224193820895,1022333,1606983623381394943,imu_link,0.001702710404060781,0.0056367479264736176,-0.8738157749176025,0.4862215518951416,0.0,0.0,0.0,0.0,0.0,0.0,0.0,0.0,0.0,-121.81580352783203,0.484563410282135,-0.4695706367492676,0.0,0.0,0.0,0.0,0.0,0.0,0.0,0.0,0.0,-0.00026073568733409047,0.002033398486673832,0.022030605003237724,0.0,0.0,0.0,0.0,0.0,0.0,0.0,0.0,0.0
1606987224193837874,1022334,1606983623381549782,imu_link,0.001702710404060781,0.0056367479264736176,-0.8738157749176025,0.4862215518951416,0.0,0.0,0.0,0.0,0.0,0.0,0.0,0.0,0.0,-121.81580352783203,0.484563410282135,-0.4695706367492676,0.0,0.0,0.0,0.0,0.0,0.0,0.0,0.0,0.0,-0.00026073568733409047,0.002033398486673832,0.022030605003237724,0.0,0.0,0.0,0.0,0.0,0.0,0.0,0.0,0.0
1606987224193860732,1022335,1606983623381702395,imu_link,0.0017029226291924715,0.005638160277158022,-0.8738137483596802,0.4862252175807953,0.0,0.0,0.0,0.0,0.0,0.0,0.0,0.0,0.0,-121.81532287597656,0.4846653342247009,-0.4696982204914093,0.0,0.0,0.0,0.0,0.0,0.0,0.0,0.0,0.0,-0.02665225975215435,-0.012869519181549549,0.02999798208475113,0.0,0.0,0.0,0.0,0.0,0.0,0.0,0.0,0.0
1606987224196311461,1022336,1606983623381853429,imu_link,0.0017029226291924715,0.005638160277158022,-0.8738137483596802,0.4862252175807953,0.0,0.0,0.0,0.0,0.0,0.0,0.0,0.0,0.0,-121.81532287597656,0.4846653342247009,-0.4696982204914093,0.0,0.0,0.0,0.0,0.0,0.0,0.0,0.0,0.0,-0.02665225975215435,-0.012869519181549549,0.02999798208475113,0.0,0.0,0.0,0.0,0.0,0.0,0.0,0.0,0.0
1606987224196338567,1022337,1606983623382024601,imu_link,0.001702943816781044,0.005638992413878441,-0.8738139867782593,0.4862247705459595,0.0,0.0,0.0,0.0,0.0,0.0,0.0,0.0,0.0,-121.81537628173828,0.4847135841846466,-0.4697805941104889,0.0,0.0,0.0,0.0,0.0,0.0,0.0,0.0,0.0,-0.012220419012010098,-0.012015101499855518,0.031025471165776253,0.0,0.0,0.0,0.0,0.0,0.0,0.0,0.0,0.0
1606987224196378571,1022338,1606983623382176317,imu_link,0.001702943816781044,0.005638992413878441,-0.8738139867782593,0.4862247705459595,0.0,0.0,0.0,0.0,0.0,0.0,0.0,0.0,0.0,-121.81537628173828,0.4847135841846466,-0.4697805941104889,0.0,0.0,0.0,0.0,0.0,0.0,0.0,0.0,0.0,-0.012220419012010098,-0.012015101499855518,0.031025471165776253,0.0,0.0,0.0,0.0,0.0,0.0,0.0,0.0,0.0
1606987224196387778,1022339,1606983623382328263,imu_link,0.0017011599848046899,0.0056336442939937115,-0.8738157153129578,0.48622170090675354,0.0,0.0,0.0,0.0,0.0,0.0,0.0,0.0,0.0,-121.81578826904297,0.48423534631729126,-0.4693460762500763,0.0,0.0,0.0,0.0,0.0,0.0,0.0,0.0,0.0,0.0018430170603096485,-0.009416930377483368,0.03544523939490318,0.0,0.0,0.0,0.0,0.0,0.0,0.0,0.0,0.0
1606987224196400435,1022340,1606983623382475078,imu_link,0.0017011599848046899,0.0056336442939937115,-0.8738157153129578,0.48622170090675354,0.0,0.0,0.0,0.0,0.0,0.0,0.0,0.0,0.0,-121.81578826904297,0.48423534631729126,-0.4693460762500763,0.0,0.0,0.0,0.0,0.0,0.0,0.0,0.0,0.0,0.0018430170603096485,-0.009416930377483368,0.03544523939490318,0.0,0.0,0.0,0.0,0.0,0.0,0.0,0.0,0.0
1606987224253876893,1022341,1606983623382624724,imu_link,0.0017011306481435895,0.0056351181119680405,-0.8738160133361816,0.48622122406959534,0.0,0.0,0.0,0.0,0.0,0.0,0.0,0.0,0.0,-121.81584167480469,0.48431429266929626,-0.46949559450149536,0.0,0.0,0.0,0.0,0.0,0.0,0.0,0.0,0.0,-0.012300504371523857,-0.005973430350422859,0.02838108316063881,0.0,0.0,0.0,0.0,0.0,0.0,0.0,0.0,0.0
1606987224253899096,1022342,1606983623395077454,imu_link,0.0017011306481435895,0.0056351181119680405,-0.8738160133361816,0.48622122406959534,0.0,0.0,0.0,0.0,0.0,0.0,0.0,0.0,0.0,-121.81584167480469,0.48431429266929626,-0.46949559450149536,0.0,0.0,0.0,0.0,0.0,0.0,0.0,0.0,0.0,-0.012300504371523857,-0.005973430350422859,0.02838108316063881,0.0,0.0,0.0,0.0,0.0,0.0,0.0,0.0,0.0
1606987224253917876,1022343,1606983623395274755,imu_link,0.0017009023576974869,0.005633297376334667,-0.8738169074058533,0.48621946573257446,0.0,0.0,0.0,0.0,0.0,0.0,0.0,0.0,0.0,-121.81607818603516,0.484188973903656,-0.4693269729614258,0.0,0.0,0.0,0.0,0.0,0.0,0.0,0.0,0.0,-0.008509303443133831,0.0061060781590640545,0.033581238240003586,0.0,0.0,0.0,0.0,0.0,0.0,0.0,0.0,0.0
1606987224253925809,1022344,1606983623395448317,imu_link,0.0017009023576974869,0.005633297376334667,-0.8738169074058533,0.48621946573257446,0.0,0.0,0.0,0.0,0.0,0.0,0.0,0.0,0.0,-121.81607818603516,0.484188973903656,-0.4693269729614258,0.0,0.0,0.0,0.0,0.0,0.0,0.0,0.0,0.0,-0.008509303443133831,0.0061060781590640545,0.033581238240003586,0.0,0.0,0.0,0.0,0.0,0.0,0.0,0.0,0.0
1606987224257046316,1022345,1606983623395622350,imu_link,0.0017008348368108273,0.005633330903947353,-0.8738171458244324,0.4862191081047058,0.0,0.0,0.0,0.0,0.0,0.0,0.0,0.0,0.0,-121.81611633300781,0.4841839075088501,-0.46933427453041077,0.0,0.0,0.0,0.0,0.0,0.0,0.0,0.0,0.0,-0.01738806813955307,0.0007447252864949405,0.018711740151047707,0.0,0.0,0.0,0.0,0.0,0.0,0.0,0.0,0.0
1606987224257069041,1022346,1606983623395796207,imu_link,0.0017008348368108273,0.005633330903947353,-0.8738171458244324,0.4862191081047058,0.0,0.0,0.0,0.0,0.0,0.0,0.0,0.0,0.0,-121.81611633300781,0.4841839075088501,-0.46933427453041077,0.0,0.0,0.0,0.0,0.0,0.0,0.0,0.0,0.0,-0.01738806813955307,0.0007447252864949405,0.018711740151047707,0.0,0.0,0.0,0.0,0.0,0.0,0.0,0.0,0.0
1606987224257092022,1022347,1606983623395960137,imu_link,0.0016981359804049134,0.005630994215607643,-0.873816967010498,0.48621949553489685,0.0,0.0,0.0,0.0,0.0,0.0,0.0,0.0,0.0,-121.81607818603516,0.4837837219238281,-0.46925047039985657,0.0,0.0,0.0,0.0,0.0,0.0,0.0,0.0,0.0,-0.04079320654273033,-0.005051255691796541,0.01971806026995182,0.0,0.0,0.0,0.0,0.0,0.0,0.0,0.0,0.0
1606987224257102559,1022348,1606983623396135462,imu_link,0.0016981359804049134,0.005630994215607643,-0.873816967010498,0.48621949553489685,0.0,0.0,0.0,0.0,0.0,0.0,0.0,0.0,0.0,-121.81607818603516,0.4837837219238281,-0.46925047039985657,0.0,0.0,0.0,0.0,0.0,0.0,0.0,0.0,0.0,-0.04079320654273033,-0.005051255691796541,0.01971806026995182,0.0,0.0,0.0,0.0,0.0,0.0,0.0,0.0,0.0
1606987224257113669,1022349,1606983623396290130,imu_link,0.0016970615833997726,0.005629641469568014,-0.8738179802894592,0.4862176477909088,0.0,0.0,0.0,0.0,0.0,0.0,0.0,0.0,0.0,-121.8163070678711,0.48359978199005127,-0.46917590498924255,0.0,0.0,0.0,0.0,0.0,0.0,0.0,0.0,0.0,-0.016831740736961365,0.00603224104270339,0.022510966286063194,0.0,0.0,0.0,0.0,0.0,0.0,0.0,0.0,0.0
1606987224257137690,1022350,1606983623396441180,imu_link,0.0016970615833997726,0.005629641469568014,-0.8738179802894592,0.4862176477909088,0.0,0.0,0.0,0.0,0.0,0.0,0.0,0.0,0.0,-121.8163070678711,0.48359978199005127,-0.46917590498924255,0.0,0.0,0.0,0.0,0.0,0.0,0.0,0.0,0.0,-0.016831740736961365,0.00603224104270339,0.022510966286063194,0.0,0.0,0.0,0.0,0.0,0.0,0.0,0.0,0.0
1606987224257144075,1022351,1606983623396590125,imu_link,0.001694133272394538,0.0056302654556930065,-0.87381911277771,0.48621565103530884,0.0,0.0,0.0,0.0,0.0,0.0,0.0,0.0,0.0,-121.81656646728516,0.48334017395973206,-0.46940258145332336,0.0,0.0,0.0,0.0,0.0,0.0,0.0,0.0,0.0,0.009570072405040264,0.005213906057178974,0.02105805277824402,0.0,0.0,0.0,0.0,0.0,0.0,0.0,0.0,0.0
1606987224257153434,1022352,1606983623396737576,imu_link,0.001694133272394538,0.0056302654556930065,-0.87381911277771,0.48621565103530884,0.0,0.0,0.0,0.0,0.0,0.0,0.0,0.0,0.0,-121.81656646728516,0.48334017395973206,-0.46940258145332336,0.0,0.0,0.0,0.0,0.0,0.0,0.0,0.0,0.0,0.009570072405040264,0.005213906057178974,0.02105805277824402,0.0,0.0,0.0,0.0,0.0,0.0,0.0,0.0,0.0
1606987224296154794,1022353,1606983623408453132,imu_link,0.0016964483074843884,0.005630255211144686,-0.8738175630569458,0.4862183630466461,0.0,0.0,0.0,0.0,0.0,0.0,0.0,0.0,0.0,-121.81621551513672,0.48357293009757996,-0.46927106380462646,0.0,0.0,0.0,0.0,0.0,0.0,0.0,0.0,0.0,0.00756131112575531,-0.005780681502074003,0.02205931954085827,0.0,0.0,0.0,0.0,0.0,0.0,0.0,0.0,0.0
1606987224296172378,1022354,1606983623408550700,imu_link,0.0016964483074843884,0.005630255211144686,-0.8738175630569458,0.4862183630466461,0.0,0.0,0.0,0.0,0.0,0.0,0.0,0.0,0.0,-121.81621551513672,0.48357293009757996,-0.46927106380462646,0.0,0.0,0.0,0.0,0.0,0.0,0.0,0.0,0.0,0.00756131112575531,-0.005780681502074003,0.02205931954085827,0.0,0.0,0.0,0.0,0.0,0.0,0.0,0.0,0.0
1606987224296191721,1022355,1606983623408632249,imu_link,0.001696973922662437,0.005628327839076519,-0.8738154172897339,0.48622220754623413,0.0,0.0,0.0,0.0,0.0,0.0,0.0,0.0,0.0,-121.81570434570312,0.4835202693939209,-0.46904677152633667,0.0,0.0,0.0,0.0,0.0,0.0,0.0,0.0,0.0,-0.0004884828813374043,0.003536054166033864,0.023838764056563377,0.0,0.0,0.0,0.0,0.0,0.0,0.0,0.0,0.0
1606987224296199993,1022356,1606983623408722285,imu_link,0.001696973922662437,0.005628327839076519,-0.8738154172897339,0.48622220754623413,0.0,0.0,0.0,0.0,0.0,0.0,0.0,0.0,0.0,-121.81570434570312,0.4835202693939209,-0.46904677152633667,0.0,0.0,0.0,0.0,0.0,0.0,0.0,0.0,0.0,-0.0004884828813374043,0.003536054166033864,0.023838764056563377,0.0,0.0,0.0,0.0,0.0,0.0,0.0,0.0,0.0
1606987224296209306,1022357,1606983623408810714,imu_link,0.0016960371285676956,0.005628854967653751,-0.8738160133361816,0.48622116446495056,0.0,0.0,0.0,0.0,0.0,0.0,0.0,0.0,0.0,-121.81584167480469,0.48345521092414856,-0.46915221214294434,0.0,0.0,0.0,0.0,0.0,0.0,0.0,0.0,0.0,-0.023702347651124,0.016569549217820168,0.007581805344671011,0.0,0.0,0.0,0.0,0.0,0.0,0.0,0.0,0.0
1606987224296218814,1022358,1606983623408906679,imu_link,0.0016960371285676956,0.005628854967653751,-0.8738160133361816,0.48622116446495056,0.0,0.0,0.0,0.0,0.0,0.0,0.0,0.0,0.0,-121.81584167480469,0.48345521092414856,-0.46915221214294434,0.0,0.0,0.0,0.0,0.0,0.0,0.0,0.0,0.0,-0.023702347651124,0.016569549217820168,0.007581805344671011,0.0,0.0,0.0,0.0,0.0,0.0,0.0,0.0,0.0
1606987224296232058,1022359,1606983623408991445,imu_link,0.0016883941134437919,0.005628078244626522,-0.8738153576850891,0.4862224757671356,0.0,0.0,0.0,0.0,0.0,0.0,0.0,0.0,0.0,-121.81568145751953,0.4826473295688629,-0.4694995582103729,0.0,0.0,0.0,0.0,0.0,0.0,0.0,0.0,0.0,-0.030370432883501053,0.003623895812779665,0.009161513298749924,0.0,0.0,0.0,0.0,0.0,0.0,0.0,0.0,0.0
1606987224296238679,1022360,1606983623409078095,imu_link,0.0016883941134437919,0.005628078244626522,-0.8738153576850891,0.4862224757671356,0.0,0.0,0.0,0.0,0.0,0.0,0.0,0.0,0.0,-121.81568145751953,0.4826473295688629,-0.4694995582103729,0.0,0.0,0.0,0.0,0.0,0.0,0.0,0.0,0.0,-0.030370432883501053,0.003623895812779665,0.009161513298749924,0.0,0.0,0.0,0.0,0.0,0.0,0.0,0.0,0.0
1606987224296254593,1022361,1606983623409161288,imu_link,0.0016897176392376423,0.005626641679555178,-0.8738150000572205,0.48622310161590576,0.0,0.0,0.0,0.0,0.0,0.0,0.0,0.0,0.0,-121.81559753417969,0.4827001690864563,-0.4692816138267517,0.0,0.0,0.0,0.0,0.0,0.0,0.0,0.0,0.0,-0.017000220715999603,-0.004137245938181877,0.04860955476760864,0.0,0.0,0.0,0.0,0.0,0.0,0.0,0.0,0.0
1606987224307468599,1022362,1606983623409246387,imu_link,0.0016897176392376423,0.005626641679555178,-0.8738150000572205,0.48622310161590576,0.0,0.0,0.0,0.0,0.0,0.0,0.0,0.0,0.0,-121.81559753417969,0.4827001690864563,-0.4692816138267517,0.0,0.0,0.0,0.0,0.0,0.0,0.0,0.0,0.0,-0.017000220715999603,-0.004137245938181877,0.04860955476760864,0.0,0.0,0.0,0.0,0.0,0.0,0.0,0.0,0.0
1606987224307491237,1022363,1606983623409329502,imu_link,0.0016868371749296784,0.0056223198771476746,-0.8738149404525757,0.4862232804298401,0.0,0.0,0.0,0.0,0.0,0.0,0.0,0.0,0.0,-121.81556701660156,0.48217102885246277,-0.46900928020477295,0.0,0.0,0.0,0.0,0.0,0.0,0.0,0.0,0.0,-0.00658090366050601,0.0003313680354040116,0.03979935869574547,0.0,0.0,0.0,0.0,0.0,0.0,0.0,0.0,0.0
1606987224307518845,1022364,1606983623421332792,imu_link,0.0016868371749296784,0.0056223198771476746,-0.8738149404525757,0.4862232804298401,0.0,0.0,0.0,0.0,0.0,0.0,0.0,0.0,0.0,-121.81556701660156,0.48217102885246277,-0.46900928020477295,0.0,0.0,0.0,0.0,0.0,0.0,0.0,0.0,0.0,-0.00658090366050601,0.0003313680354040116,0.03979935869574547,0.0,0.0,0.0,0.0,0.0,0.0,0.0,0.0,0.0
1606987224307529629,1022365,1606983623421438088,imu_link,0.001687674899585545,0.005620419513434172,-0.8738152980804443,0.48622259497642517,0.0,0.0,0.0,0.0,0.0,0.0,0.0,0.0,0.0,-121.81566619873047,0.4821486175060272,-0.46877267956733704,0.0,0.0,0.0,0.0,0.0,0.0,0.0,0.0,0.0,0.0008765522507019341,0.005382410250604153,0.01682293228805065,0.0,0.0,0.0,0.0,0.0,0.0,0.0,0.0,0.0
1606987224307549001,1022366,1606983623421527445,imu_link,0.001687674899585545,0.005620419513434172,-0.8738152980804443,0.48622259497642517,0.0,0.0,0.0,0.0,0.0,0.0,0.0,0.0,0.0,-121.81566619873047,0.4821486175060272,-0.46877267956733704,0.0,0.0,0.0,0.0,0.0,0.0,0.0,0.0,0.0,0.0008765522507019341,0.005382410250604153,0.01682293228805065,0.0,0.0,0.0,0.0,0.0,0.0,0.0,0.0,0.0
1606987224307567811,1022367,1606983623421618871,imu_link,0.0016859580064192414,0.0056205918081104755,-0.873815655708313,0.48622193932533264,0.0,0.0,0.0,0.0,0.0,0.0,0.0,0.0,0.0,-121.81575012207031,0.48198598623275757,-0.46888595819473267,0.0,0.0,0.0,0.0,0.0,0.0,0.0,0.0,0.0,0.0011669548694044352,0.018968990072607994,0.02282782457768917,0.0,0.0,0.0,0.0,0.0,0.0,0.0,0.0,0.0
1606987224307580082,1022368,1606983623421707398,imu_link,0.0016859580064192414,0.0056205918081104755,-0.873815655708313,0.48622193932533264,0.0,0.0,0.0,0.0,0.0,0.0,0.0,0.0,0.0,-121.81575012207031,0.48198598623275757,-0.46888595819473267,0.0,0.0,0.0,0.0,0.0,0.0,0.0,0.0,0.0,0.0011669548694044352,0.018968990072607994,0.02282782457768917,0.0,0.0,0.0,0.0,0.0,0.0,0.0,0.0,0.0
1606987224307603443,1022369,1606983623421819972,imu_link,0.0016856346046552062,0.005620860029011965,-0.8738157749176025,0.4862217903137207,0.0,0.0,0.0,0.0,0.0,0.0,0.0,0.0,0.0,-121.81575775146484,0.481968492269516,-0.46893084049224854,0.0,0.0,0.0,0.0,0.0,0.0,0.0,0.0,0.0,-0.009236229583621025,0.011087031103670597,0.023263318464159966,0.0,0.0,0.0,0.0,0.0,0.0,0.0,0.0,0.0
1606987224329024650,1022370,1606983623421903931,imu_link,0.0016856346046552062,0.005620860029011965,-0.8738157749176025,0.4862217903137207,0.0,0.0,0.0,0.0,0.0,0.0,0.0,0.0,0.0,-121.81575775146484,0.481968492269516,-0.46893084049224854,0.0,0.0,0.0,0.0,0.0,0.0,0.0,0.0,0.0,-0.009236229583621025,0.011087031103670597,0.023263318464159966,0.0,0.0,0.0,0.0,0.0,0.0,0.0,0.0,0.0
1606987224329058336,1022371,1606983623421988539,imu_link,0.001681479043327272,0.005622228607535362,-0.8738168478012085,0.4862198531627655,0.0,0.0,0.0,0.0,0.0,0.0,0.0,0.0,0.0,-121.81602478027344,0.481627494096756,-0.4693005084991455,0.0,0.0,0.0,0.0,0.0,0.0,0.0,0.0,0.0,-0.010886541567742825,0.002810399979352951,0.028450237587094307,0.0,0.0,0.0,0.0,0.0,0.0,0.0,0.0,0.0
1606987224329071067,1022372,1606983623422073210,imu_link,0.001681479043327272,0.005622228607535362,-0.8738168478012085,0.4862198531627655,0.0,0.0,0.0,0.0,0.0,0.0,0.0,0.0,0.0,-121.81602478027344,0.481627494096756,-0.4693005084991455,0.0,0.0,0.0,0.0,0.0,0.0,0.0,0.0,0.0,-0.010886541567742825,0.002810399979352951,0.028450237587094307,0.0,0.0,0.0,0.0,0.0,0.0,0.0,0.0,0.0
1606987224329093257,1022373,1606983623422156841,imu_link,0.0016816571587696671,0.0056213862262666225,-0.8738172650337219,0.4862191379070282,0.0,0.0,0.0,0.0,0.0,0.0,0.0,0.0,0.0,-121.81611633300781,0.48159798979759216,-0.46920666098594666,0.0,0.0,0.0,0.0,0.0,0.0,0.0,0.0,0.0,0.00842458475381136,0.00949080940335989,0.04067104682326317,0.0,0.0,0.0,0.0,0.0,0.0,0.0,0.0,0.0
1606987224329128069,1022374,1606983623435085104,imu_link,0.0016816571587696671,0.0056213862262666225,-0.8738172650337219,0.4862191379070282,0.0,0.0,0.0,0.0,0.0,0.0,0.0,0.0,0.0,-121.81611633300781,0.48159798979759216,-0.46920666098594666,0.0,0.0,0.0,0.0,0.0,0.0,0.0,0.0,0.0,0.00842458475381136,0.00949080940335989,0.04067104682326317,0.0,0.0,0.0,0.0,0.0,0.0,0.0,0.0,0.0
1606987224329152385,1022375,1606983623435181910,imu_link,0.001682365546002984,0.0056248437613248825,-0.8738175630569458,0.48621851205825806,0.0,0.0,0.0,0.0,0.0,0.0,0.0,0.0,0.0,-121.81620025634766,0.48186129331588745,-0.46951374411582947,0.0,0.0,0.0,0.0,0.0,0.0,0.0,0.0,0.0,0.0006113462150096893,-0.011731683276593685,0.02877967059612274,0.0,0.0,0.0,0.0,0.0,0.0,0.0,0.0,0.0
1606987224329159504,1022376,1606983623435262344,imu_link,0.001682365546002984,0.0056248437613248825,-0.8738175630569458,0.48621851205825806,0.0,0.0,0.0,0.0,0.0,0.0,0.0,0.0,0.0,-121.81620025634766,0.48186129331588745,-0.46951374411582947,0.0,0.0,0.0,0.0,0.0,0.0,0.0,0.0,0.0,0.0006113462150096893,-0.011731683276593685,0.02877967059612274,0.0,0.0,0.0,0.0,0.0,0.0,0.0,0.0,0.0
1606987224329170050,1022377,1606983623435352552,imu_link,0.001682365546002984,0.0056248437613248825,-0.8738175630569458,0.48621851205825806,0.0,0.0,0.0,0.0,0.0,0.0,0.0,0.0,0.0,-121.81620025634766,0.48186129331588745,-0.46951374411582947,0.0,0.0,0.0,0.0,0.0,0.0,0.0,0.0,0.0,-0.00242066802456975,-0.019052941352128983,0.02190449647605419,0.0,0.0,0.0,0.0,0.0,0.0,0.0,0.0,0.0
1606987224329178502,1022378,1606983623435440306,imu_link,0.001682365546002984,0.0056248437613248825,-0.8738175630569458,0.48621851205825806,0.0,0.0,0.0,0.0,0.0,0.0,0.0,0.0,0.0,-121.81620025634766,0.48186129331588745,-0.46951374411582947,0.0,0.0,0.0,0.0,0.0,0.0,0.0,0.0,0.0,-0.00242066802456975,-0.019052941352128983,0.02190449647605419,0.0,0.0,0.0,0.0,0.0,0.0,0.0,0.0,0.0
1606987224329191116,1022379,1606983623435524443,imu_link,0.0016848110826686025,0.005619138944894075,-0.8738203048706055,0.48621365427970886,0.0,0.0,0.0,0.0,0.0,0.0,0.0,0.0,0.0,-121.81682586669922,0.48178571462631226,-0.4688088297843933,0.0,0.0,0.0,0.0,0.0,0.0,0.0,0.0,0.0,0.017707448452711105,0.0016672046622261405,0.02129933424293995,0.0,0.0,0.0,0.0,0.0,0.0,0.0,0.0,0.0
1606987224329202293,1022380,1606983623435624833,imu_link,0.0016848110826686025,0.005619138944894075,-0.8738203048706055,0.48621365427970886,0.0,0.0,0.0,0.0,0.0,0.0,0.0,0.0,0.0,-121.81682586669922,0.48178571462631226,-0.4688088297843933,0.0,0.0,0.0,0.0,0.0,0.0,0.0,0.0,0.0,0.017707448452711105,0.0016672046622261405,0.02129933424293995,0.0,0.0,0.0,0.0,0.0,0.0,0.0,0.0,0.0
1606987224329218549,1022381,1606983623435709506,imu_link,0.001685722847469151,0.0056206523440778255,-0.8738199472427368,0.486214280128479,0.0,0.0,0.0,0.0,0.0,0.0,0.0,0.0,0.0,-121.81674194335938,0.4819616973400116,-0.46890926361083984,0.0,0.0,0.0,0.0,0.0,0.0,0.0,0.0,0.0,-0.004044252447783947,0.003234921023249626,0.007064436096698046,0.0,0.0,0.0,0.0,0.0,0.0,0.0,0.0,0.0
1606987224329229405,1022382,1606983623435795395,imu_link,0.001685722847469151,0.0056206523440778255,-0.8738199472427368,0.486214280128479,0.0,0.0,0.0,0.0,0.0,0.0,0.0,0.0,0.0,-121.81674194335938,0.4819616973400116,-0.46890926361083984,0.0,0.0,0.0,0.0,0.0,0.0,0.0,0.0,0.0,-0.004044252447783947,0.003234921023249626,0.007064436096698046,0.0,0.0,0.0,0.0,0.0,0.0,0.0,0.0,0.0
1606987224329254395,1022383,1606983623435876996,imu_link,0.0016858815215528011,0.005619891453534365,-0.8738225102424622,0.4862096905708313,0.0,0.0,0.0,0.0,0.0,0.0,0.0,0.0,0.0,-121.81734466552734,0.481932669878006,-0.4688267707824707,0.0,0.0,0.0,0.0,0.0,0.0,0.0,0.0,0.0,-0.02756918966770172,0.006660727318376303,0.029264552518725395,0.0,0.0,0.0,0.0,0.0,0.0,0.0,0.0,0.0
1606987224329266397,1022384,1606983623435958334,imu_link,0.0016858815215528011,0.005619891453534365,-0.8738225102424622,0.4862096905708313,0.0,0.0,0.0,0.0,0.0,0.0,0.0,0.0,0.0,-121.81734466552734,0.481932669878006,-0.4688267707824707,0.0,0.0,0.0,0.0,0.0,0.0,0.0,0.0,0.0,-0.02756918966770172,0.006660727318376303,0.029264552518725395,0.0,0.0,0.0,0.0,0.0,0.0,0.0,0.0,0.0
1606987224329271816,1022385,1606983623448684747,imu_link,0.0016857243608683348,0.005618089344352484,-0.8738226294517517,0.4862094819545746,0.0,0.0,0.0,0.0,0.0,0.0,0.0,0.0,0.0,-121.81739044189453,0.48181647062301636,-0.46865522861480713,0.0,0.0,0.0,0.0,0.0,0.0,0.0,0.0,0.0,-0.004485804121941328,0.01175413653254509,0.03984463959932327,0.0,0.0,0.0,0.0,0.0,0.0,0.0,0.0,0.0
1606987224329280681,1022386,1606983623448815921,imu_link,0.0016857243608683348,0.005618089344352484,-0.8738226294517517,0.4862094819545746,0.0,0.0,0.0,0.0,0.0,0.0,0.0,0.0,0.0,-121.81739044189453,0.48181647062301636,-0.46865522861480713,0.0,0.0,0.0,0.0,0.0,0.0,0.0,0.0,0.0,-0.004485804121941328,0.01175413653254509,0.03984463959932327,0.0,0.0,0.0,0.0,0.0,0.0,0.0,0.0,0.0
1606987224385512401,1022387,1606983623448925144,imu_link,0.0016839283052831888,0.005620570853352547,-0.8738223314285278,0.4862099885940552,0.0,0.0,0.0,0.0,0.0,0.0,0.0,0.0,0.0,-121.81732177734375,0.48177510499954224,-0.46900349855422974,0.0,0.0,0.0,0.0,0.0,0.0,0.0,0.0,0.0,0.010075412690639496,0.012016406282782555,0.0205969400703907,0.0,0.0,0.0,0.0,0.0,0.0,0.0,0.0,0.0
1606987224385542662,1022388,1606983623449045666,imu_link,0.0016839283052831888,0.005620570853352547,-0.8738223314285278,0.4862099885940552,0.0,0.0,0.0,0.0,0.0,0.0,0.0,0.0,0.0,-121.81732177734375,0.48177510499954224,-0.46900349855422974,0.0,0.0,0.0,0.0,0.0,0.0,0.0,0.0,0.0,0.010075412690639496,0.012016406282782555,0.0205969400703907,0.0,0.0,0.0,0.0,0.0,0.0,0.0,0.0,0.0
1606987224385554489,1022389,1606983623449163044,imu_link,0.001684966147877276,0.005621264688670635,-0.8738229870796204,0.4862087666988373,0.0,0.0,0.0,0.0,0.0,0.0,0.0,0.0,0.0,-121.8174819946289,0.48191705346107483,-0.469015896320343,0.0,0.0,0.0,0.0,0.0,0.0,0.0,0.0,0.0,0.0006700033554807305,-0.0005199796869419515,0.008164439350366592,0.0,0.0,0.0,0.0,0.0,0.0,0.0,0.0,0.0
1606987224385578926,1022390,1606983623449276697,imu_link,0.001684966147877276,0.005621264688670635,-0.8738229870796204,0.4862087666988373,0.0,0.0,0.0,0.0,0.0,0.0,0.0,0.0,0.0,-121.8174819946289,0.48191705346107483,-0.469015896320343,0.0,0.0,0.0,0.0,0.0,0.0,0.0,0.0,0.0,0.0006700033554807305,-0.0005199796869419515,0.008164439350366592,0.0,0.0,0.0,0.0,0.0,0.0,0.0,0.0,0.0
1606987224385596090,1022391,1606983623449404510,imu_link,0.0016849746461957693,0.00562091451138258,-0.8738227486610413,0.4862091839313507,0.0,0.0,0.0,0.0,0.0,0.0,0.0,0.0,0.0,-121.81741333007812,0.48189857602119446,-0.4689801335334778,0.0,0.0,0.0,0.0,0.0,0.0,0.0,0.0,0.0,0.008823525160551071,-0.015562757849693298,0.014108913019299507,0.0,0.0,0.0,0.0,0.0,0.0,0.0,0.0,0.0
1606987224419898092,1022392,1606983623449516389,imu_link,0.0016849746461957693,0.00562091451138258,-0.8738227486610413,0.4862091839313507,0.0,0.0,0.0,0.0,0.0,0.0,0.0,0.0,0.0,-121.81741333007812,0.48189857602119446,-0.4689801335334778,0.0,0.0,0.0,0.0,0.0,0.0,0.0,0.0,0.0,0.008823525160551071,-0.015562757849693298,0.014108913019299507,0.0,0.0,0.0,0.0,0.0,0.0,0.0,0.0,0.0
1606987224419921753,1022393,1606983623449623954,imu_link,0.0016839283052831888,0.005619909148663282,-0.8738222122192383,0.4862102270126343,0.0,0.0,0.0,0.0,0.0,0.0,0.0,0.0,0.0,-121.81727600097656,0.4817383885383606,-0.46893706917762756,0.0,0.0,0.0,0.0,0.0,0.0,0.0,0.0,0.0,0.010457698255777359,-0.007636683993041515,0.025764964520931244,0.0,0.0,0.0,0.0,0.0,0.0,0.0,0.0,0.0
1606987224419996049,1022394,1606983623449724754,imu_link,0.0016839283052831888,0.005619909148663282,-0.8738222122192383,0.4862102270126343,0.0,0.0,0.0,0.0,0.0,0.0,0.0,0.0,0.0,-121.81727600097656,0.4817383885383606,-0.46893706917762756,0.0,0.0,0.0,0.0,0.0,0.0,0.0,0.0,0.0,0.010457698255777359,-0.007636683993041515,0.025764964520931244,0.0,0.0,0.0,0.0,0.0,0.0,0.0,0.0,0.0
1606987224420015645,1022395,1606983623449824064,imu_link,0.0016874779248610139,0.0056194765493273735,-0.8738231658935547,0.4862084686756134,0.0,0.0,0.0,0.0,0.0,0.0,0.0,0.0,0.0,-121.81751251220703,0.482068806886673,-0.4686970114707947,0.0,0.0,0.0,0.0,0.0,0.0,0.0,0.0,0.0,0.0024843323044478893,0.010026214644312859,-0.000481719704112038,0.0,0.0,0.0,0.0,0.0,0.0,0.0,0.0,0.0
1606987224420037991,1022396,1606983623462464945,imu_link,0.0016874779248610139,0.0056194765493273735,-0.8738231658935547,0.4862084686756134,0.0,0.0,0.0,0.0,0.0,0.0,0.0,0.0,0.0,-121.81751251220703,0.482068806886673,-0.4686970114707947,0.0,0.0,0.0,0.0,0.0,0.0,0.0,0.0,0.0,0.0024843323044478893,0.010026214644312859,-0.000481719704112038,0.0,0.0,0.0,0.0,0.0,0.0,0.0,0.0,0.0
1606987224420050170,1022397,1606983623462614313,imu_link,0.0016874779248610139,0.0056194765493273735,-0.8738231658935547,0.4862084686756134,0.0,0.0,0.0,0.0,0.0,0.0,0.0,0.0,0.0,-121.81751251220703,0.482068806886673,-0.4686970114707947,0.0,0.0,0.0,0.0,0.0,0.0,0.0,0.0,0.0,-0.0011127053294330835,0.009738285094499588,-0.003345995210111141,0.0,0.0,0.0,0.0,0.0,0.0,0.0,0.0,0.0
1606987224420080022,1022398,1606983623462741651,imu_link,0.0016874779248610139,0.0056194765493273735,-0.8738231658935547,0.4862084686756134,0.0,0.0,0.0,0.0,0.0,0.0,0.0,0.0,0.0,-121.81751251220703,0.482068806886673,-0.4686970114707947,0.0,0.0,0.0,0.0,0.0,0.0,0.0,0.0,0.0,-0.0011127053294330835,0.009738285094499588,-0.003345995210111141,0.0,0.0,0.0,0.0,0.0,0.0,0.0,0.0,0.0
1606987224420098807,1022399,1606983623462870167,imu_link,0.001686230767518282,0.005619986914098263,-0.8738247752189636,0.4862056076526642,0.0,0.0,0.0,0.0,0.0,0.0,0.0,0.0,0.0,-121.8178939819336,0.48197081685066223,-0.46881920099258423,0.0,0.0,0.0,0.0,0.0,0.0,0.0,0.0,0.0,-0.003023305907845497,-0.002558067673817277,0.03374655172228813,0.0,0.0,0.0,0.0,0.0,0.0,0.0,0.0,0.0
1606987224424710811,1022400,1606983623463031522,imu_link,0.001686230767518282,0.005619986914098263,-0.8738247752189636,0.4862056076526642,0.0,0.0,0.0,0.0,0.0,0.0,0.0,0.0,0.0,-121.8178939819336,0.48197081685066223,-0.46881920099258423,0.0,0.0,0.0,0.0,0.0,0.0,0.0,0.0,0.0,-0.003023305907845497,-0.002558067673817277,0.03374655172228813,0.0,0.0,0.0,0.0,0.0,0.0,0.0,0.0,0.0
1606987224424744686,1022401,1606983623463159601,imu_link,0.0016850675456225872,0.005619089584797621,-0.8738254904747009,0.4862043559551239,0.0,0.0,0.0,0.0,0.0,0.0,0.0,0.0,0.0,-121.81803894042969,0.48180365562438965,-0.4687947630882263,0.0,0.0,0.0,0.0,0.0,0.0,0.0,0.0,0.0,-0.00096512446179986,0.0048410408198833466,0.045437149703502655,0.0,0.0,0.0,0.0,0.0,0.0,0.0,0.0,0.0
1606987224424762026,1022402,1606983623463306810,imu_link,0.0016850675456225872,0.005619089584797621,-0.8738254904747009,0.4862043559551239,0.0,0.0,0.0,0.0,0.0,0.0,0.0,0.0,0.0,-121.81803894042969,0.48180365562438965,-0.4687947630882263,0.0,0.0,0.0,0.0,0.0,0.0,0.0,0.0,0.0,-0.00096512446179986,0.0048410408198833466,0.045437149703502655,0.0,0.0,0.0,0.0,0.0,0.0,0.0,0.0,0.0
1606987224424778271,1022403,1606983623463417364,imu_link,0.001685529132373631,0.0056208414025604725,-0.8738219738006592,0.4862106740474701,0.0,0.0,0.0,0.0,0.0,0.0,0.0,0.0,0.0,-121.81722259521484,0.48195087909698486,-0.46894097328186035,0.0,0.0,0.0,0.0,0.0,0.0,0.0,0.0,0.0,-0.0040924386121332645,0.010535946115851402,0.02692343480885029,0.0,0.0,0.0,0.0,0.0,0.0,0.0,0.0,0.0
1606987224456241879,1022404,1606983623463528928,imu_link,0.001685529132373631,0.0056208414025604725,-0.8738219738006592,0.4862106740474701,0.0,0.0,0.0,0.0,0.0,0.0,0.0,0.0,0.0,-121.81722259521484,0.48195087909698486,-0.46894097328186035,0.0,0.0,0.0,0.0,0.0,0.0,0.0,0.0,0.0,-0.0040924386121332645,0.010535946115851402,0.02692343480885029,0.0,0.0,0.0,0.0,0.0,0.0,0.0,0.0,0.0
1606987224456262620,1022405,1606983623463640138,imu_link,0.001685546594671905,0.005622302647680044,-0.8738209009170532,0.4862125813961029,0.0,0.0,0.0,0.0,0.0,0.0,0.0,0.0,0.0,-121.81697845458984,0.4820350706577301,-0.46908530592918396,0.0,0.0,0.0,0.0,0.0,0.0,0.0,0.0,0.0,-0.001288051949813962,0.01264664251357317,0.01730389893054962,0.0,0.0,0.0,0.0,0.0,0.0,0.0,0.0,0.0
1606987224456268087,1022406,1606983623463748786,imu_link,0.001685546594671905,0.005622302647680044,-0.8738209009170532,0.4862125813961029,0.0,0.0,0.0,0.0,0.0,0.0,0.0,0.0,0.0,-121.81697845458984,0.4820350706577301,-0.46908530592918396,0.0,0.0,0.0,0.0,0.0,0.0,0.0,0.0,0.0,-0.001288051949813962,0.01264664251357317,0.01730389893054962,0.0,0.0,0.0,0.0,0.0,0.0,0.0,0.0,0.0
1606987224456273093,1022407,1606983623476017160,imu_link,0.0016845297068357468,0.0056260498240590096,-0.8738173246383667,0.48621901869773865,0.0,0.0,0.0,0.0,0.0,0.0,0.0,0.0,0.0,-121.81613159179688,0.4821455478668213,-0.4695136845111847,0.0,0.0,0.0,0.0,0.0,0.0,0.0,0.0,0.0,-0.0007913229637779295,-0.007830340415239334,0.02078365720808506,0.0,0.0,0.0,0.0,0.0,0.0,0.0,0.0,0.0
1606987224456288757,1022408,1606983623476159450,imu_link,0.0016845297068357468,0.0056260498240590096,-0.8738173246383667,0.48621901869773865,0.0,0.0,0.0,0.0,0.0,0.0,0.0,0.0,0.0,-121.81613159179688,0.4821455478668213,-0.4695136845111847,0.0,0.0,0.0,0.0,0.0,0.0,0.0,0.0,0.0,-0.0007913229637779295,-0.007830340415239334,0.02078365720808506,0.0,0.0,0.0,0.0,0.0,0.0,0.0,0.0,0.0
1606987224460655317,1022409,1606983623476288479,imu_link,0.0016836831346154213,0.005624988116323948,-0.8738173246383667,0.48621901869773865,0.0,0.0,0.0,0.0,0.0,0.0,0.0,0.0,0.0,-121.81613159179688,0.48200157284736633,-0.46945449709892273,0.0,0.0,0.0,0.0,0.0,0.0,0.0,0.0,0.0,0.0007787070353515446,-0.015201805159449577,0.014993051998317242,0.0,0.0,0.0,0.0,0.0,0.0,0.0,0.0,0.0
1606987224460673257,1022410,1606983623476416593,imu_link,0.0016836831346154213,0.005624988116323948,-0.8738173246383667,0.48621901869773865,0.0,0.0,0.0,0.0,0.0,0.0,0.0,0.0,0.0,-121.81613159179688,0.48200157284736633,-0.46945449709892273,0.0,0.0,0.0,0.0,0.0,0.0,0.0,0.0,0.0,0.0007787070353515446,-0.015201805159449577,0.014993051998317242,0.0,0.0,0.0,0.0,0.0,0.0,0.0,0.0,0.0
1606987224460687878,1022411,1606983623476544661,imu_link,0.0016868015518411994,0.0056230053305625916,-0.8738170266151428,0.4862196147441864,0.0,0.0,0.0,0.0,0.0,0.0,0.0,0.0,0.0,-121.8160629272461,0.4822036921977997,-0.4690818786621094,0.0,0.0,0.0,0.0,0.0,0.0,0.0,0.0,0.0,-0.0037763474974781275,-0.002841874724254012,0.01814994215965271,0.0,0.0,0.0,0.0,0.0,0.0,0.0,0.0,0.0
1606987224465980123,1022412,1606983623476688773,imu_link,0.0016868015518411994,0.0056230053305625916,-0.8738170266151428,0.4862196147441864,0.0,0.0,0.0,0.0,0.0,0.0,0.0,0.0,0.0,-121.8160629272461,0.4822036921977997,-0.4690818786621094,0.0,0.0,0.0,0.0,0.0,0.0,0.0,0.0,0.0,-0.0037763474974781275,-0.002841874724254012,0.01814994215965271,0.0,0.0,0.0,0.0,0.0,0.0,0.0,0.0,0.0
1606987224466003081,1022413,1606983623476813239,imu_link,0.0016841301694512367,0.005620509851723909,-0.8738179802894592,0.48621782660484314,0.0,0.0,0.0,0.0,0.0,0.0,0.0,0.0,0.0,-121.8162841796875,0.48179611563682556,-0.4689818322658539,0.0,0.0,0.0,0.0,0.0,0.0,0.0,0.0,0.0,-0.010678709484636784,-0.008748906664550304,0.04032961651682854,0.0,0.0,0.0,0.0,0.0,0.0,0.0,0.0,0.0
1606987224466017813,1022414,1606983623476933820,imu_link,0.0016841301694512367,0.005620509851723909,-0.8738179802894592,0.48621782660484314,0.0,0.0,0.0,0.0,0.0,0.0,0.0,0.0,0.0,-121.8162841796875,0.48179611563682556,-0.4689818322658539,0.0,0.0,0.0,0.0,0.0,0.0,0.0,0.0,0.0,-0.010678709484636784,-0.008748906664550304,0.04032961651682854,0.0,0.0,0.0,0.0,0.0,0.0,0.0,0.0,0.0
1606987224466037976,1022415,1606983623477045157,imu_link,0.0016824571648612618,0.005619977600872517,-0.8738182187080383,0.4862174391746521,0.0,0.0,0.0,0.0,0.0,0.0,0.0,0.0,0.0,-121.81633758544922,0.48159873485565186,-0.46902191638946533,0.0,0.0,0.0,0.0,0.0,0.0,0.0,0.0,0.0,-0.0015903632156550884,-0.006644268985837698,0.046446144580841064,0.0,0.0,0.0,0.0,0.0,0.0,0.0,0.0,0.0
1606987224468791302,1022416,1606983623477154188,imu_link,0.0016824571648612618,0.005619977600872517,-0.8738182187080383,0.4862174391746521,0.0,0.0,0.0,0.0,0.0,0.0,0.0,0.0,0.0,-121.81633758544922,0.48159873485565186,-0.46902191638946533,0.0,0.0,0.0,0.0,0.0,0.0,0.0,0.0,0.0,-0.0015903632156550884,-0.006644268985837698,0.046446144580841064,0.0,0.0,0.0,0.0,0.0,0.0,0.0,0.0,0.0
1606987224468815407,1022417,1606983623477261866,imu_link,0.0016813300317153335,0.0056193252094089985,-0.8738192319869995,0.48621565103530884,0.0,0.0,0.0,0.0,0.0,0.0,0.0,0.0,0.0,-121.81656646728516,0.48144859075546265,-0.46902042627334595,0.0,0.0,0.0,0.0,0.0,0.0,0.0,0.0,0.0,0.010933015495538712,0.00023784101358614862,0.03504076600074768,0.0,0.0,0.0,0.0,0.0,0.0,0.0,0.0,0.0
1606987224468838633,1022418,1606983623488847472,imu_link,0.0016813300317153335,0.0056193252094089985,-0.8738192319869995,0.48621565103530884,0.0,0.0,0.0,0.0,0.0,0.0,0.0,0.0,0.0,-121.81656646728516,0.48144859075546265,-0.46902042627334595,0.0,0.0,0.0,0.0,0.0,0.0,0.0,0.0,0.0,0.010933015495538712,0.00023784101358614862,0.03504076600074768,0.0,0.0,0.0,0.0,0.0,0.0,0.0,0.0,0.0
1606987224468856957,1022419,1606983623488985709,imu_link,0.001684982911683619,0.00562200415879488,-0.8738155961036682,0.48622193932533264,0.0,0.0,0.0,0.0,0.0,0.0,0.0,0.0,0.0,-121.81575012207031,0.4819670021533966,-0.46908172965049744,0.0,0.0,0.0,0.0,0.0,0.0,0.0,0.0,0.0,0.013741793110966682,0.0016390122473239899,0.013661635108292103,0.0,0.0,0.0,0.0,0.0,0.0,0.0,0.0,0.0
1606987224495125893,1022420,1606983623489094243,imu_link,0.001684982911683619,0.00562200415879488,-0.8738155961036682,0.48622193932533264,0.0,0.0,0.0,0.0,0.0,0.0,0.0,0.0,0.0,-121.81575012207031,0.4819670021533966,-0.46908172965049744,0.0,0.0,0.0,0.0,0.0,0.0,0.0,0.0,0.0,0.013741793110966682,0.0016390122473239899,0.013661635108292103,0.0,0.0,0.0,0.0,0.0,0.0,0.0,0.0,0.0
1606987224495154823,1022421,1606983623489212262,imu_link,0.001686774892732501,0.005622240714728832,-0.873815655708313,0.4862217903137207,0.0,0.0,0.0,0.0,0.0,0.0,0.0,0.0,0.0,-121.81575775146484,0.4821595549583435,-0.46900564432144165,0.0,0.0,0.0,0.0,0.0,0.0,0.0,0.0,0.0,0.01711847074329853,0.008273833431303501,0.013471639715135098,0.0,0.0,0.0,0.0,0.0,0.0,0.0,0.0,0.0
1606987224495165181,1022422,1606983623489325441,imu_link,0.001686774892732501,0.005622240714728832,-0.873815655708313,0.4862217903137207,0.0,0.0,0.0,0.0,0.0,0.0,0.0,0.0,0.0,-121.81575775146484,0.4821595549583435,-0.46900564432144165,0.0,0.0,0.0,0.0,0.0,0.0,0.0,0.0,0.0,0.01711847074329853,0.008273833431303501,0.013471639715135098,0.0,0.0,0.0,0.0,0.0,0.0,0.0,0.0,0.0
1606987224495179258,1022423,1606983623489455388,imu_link,0.0016903557116165757,0.005626739468425512,-0.873814046382904,0.4862247705459595,0.0,0.0,0.0,0.0,0.0,0.0,0.0,0.0,0.0,-121.81537628173828,0.4827703833580017,-0.4692549407482147,0.0,0.0,0.0,0.0,0.0,0.0,0.0,0.0,0.0,0.015689795836806297,0.017407458275556564,0.03456364572048187,0.0,0.0,0.0,0.0,0.0,0.0,0.0,0.0,0.0
1606987224495296426,1022424,1606983623489565826,imu_link,0.0016903557116165757,0.005626739468425512,-0.873814046382904,0.4862247705459595,0.0,0.0,0.0,0.0,0.0,0.0,0.0,0.0,0.0,-121.81537628173828,0.4827703833580017,-0.4692549407482147,0.0,0.0,0.0,0.0,0.0,0.0,0.0,0.0,0.0,0.015689795836806297,0.017407458275556564,0.03456364572048187,0.0,0.0,0.0,0.0,0.0,0.0,0.0,0.0,0.0
1606987224495312782,1022425,1606983623489676402,imu_link,0.0016901842318475246,0.0056238556280732155,-0.8738155364990234,0.48622211813926697,0.0,0.0,0.0,0.0,0.0,0.0,0.0,0.0,0.0,-121.81571960449219,0.48259109258651733,-0.4689771831035614,0.0,0.0,0.0,0.0,0.0,0.0,0.0,0.0,0.0,0.005954053718596697,0.006061310414224863,0.02216263674199581,0.0,0.0,0.0,0.0,0.0,0.0,0.0,0.0,0.0
1606987224495320246,1022426,1606983623489785334,imu_link,0.0016901842318475246,0.0056238556280732155,-0.8738155364990234,0.48622211813926697,0.0,0.0,0.0,0.0,0.0,0.0,0.0,0.0,0.0,-121.81571960449219,0.48259109258651733,-0.4689771831035614,0.0,0.0,0.0,0.0,0.0,0.0,0.0,0.0,0.0,0.005954053718596697,0.006061310414224863,0.02216263674199581,0.0,0.0,0.0,0.0,0.0,0.0,0.0,0.0,0.0
1606987224495329230,1022427,1606983623489893172,imu_link,0.001691708224825561,0.005625570192933083,-0.8738134503364563,0.48622581362724304,0.0,0.0,0.0,0.0,0.0,0.0,0.0,0.0,0.0,-121.81523895263672,0.4828411936759949,-0.4690620005130768,0.0,0.0,0.0,0.0,0.0,0.0,0.0,0.0,0.0,-0.0007434439612552524,-0.0013079317286610603,0.013038774952292442,0.0,0.0,0.0,0.0,0.0,0.0,0.0,0.0,0.0
1606987224495342618,1022428,1606983623502737745,imu_link,0.001691708224825561,0.005625570192933083,-0.8738134503364563,0.48622581362724304,0.0,0.0,0.0,0.0,0.0,0.0,0.0,0.0,0.0,-121.81523895263672,0.4828411936759949,-0.4690620005130768,0.0,0.0,0.0,0.0,0.0,0.0,0.0,0.0,0.0,-0.0007434439612552524,-0.0013079317286610603,0.013038774952292442,0.0,0.0,0.0,0.0,0.0,0.0,0.0,0.0,0.0
1606987224495351120,1022429,1606983623502921009,imu_link,0.001692119869403541,0.005627569742500782,-0.8738130331039429,0.4862266480922699,0.0,0.0,0.0,0.0,0.0,0.0,0.0,0.0,0.0,-121.81513214111328,0.48299428820610046,-0.4692387282848358,0.0,0.0,0.0,0.0,0.0,0.0,0.0,0.0,0.0,0.006705190055072308,-0.0008319570915773511,0.05022694170475006,0.0,0.0,0.0,0.0,0.0,0.0,0.0,0.0,0.0
1606987224495363087,1022430,1606983623503126231,imu_link,0.001692119869403541,0.005627569742500782,-0.8738130331039429,0.4862266480922699,0.0,0.0,0.0,0.0,0.0,0.0,0.0,0.0,0.0,-121.81513214111328,0.48299428820610046,-0.4692387282848358,0.0,0.0,0.0,0.0,0.0,0.0,0.0,0.0,0.0,0.006705190055072308,-0.0008319570915773511,0.05022694170475006,0.0,0.0,0.0,0.0,0.0,0.0,0.0,0.0,0.0
1606987224495389237,1022431,1606983623503281871,imu_link,0.001693679834716022,0.005628080572932959,-0.8738105893135071,0.4862309396266937,0.0,0.0,0.0,0.0,0.0,0.0,0.0,0.0,0.0,-121.8145751953125,0.48318126797676086,-0.46920061111450195,0.0,0.0,0.0,0.0,0.0,0.0,0.0,0.0,0.0,0.012615898624062538,0.017536351457238197,0.051904574036598206,0.0,0.0,0.0,0.0,0.0,0.0,0.0,0.0,0.0
1606987224495418297,1022432,1606983623503436634,imu_link,0.001693679834716022,0.005628080572932959,-0.8738105893135071,0.4862309396266937,0.0,0.0,0.0,0.0,0.0,0.0,0.0,0.0,0.0,-121.8145751953125,0.48318126797676086,-0.46920061111450195,0.0,0.0,0.0,0.0,0.0,0.0,0.0,0.0,0.0,0.012615898624062538,0.017536351457238197,0.051904574036598206,0.0,0.0,0.0,0.0,0.0,0.0,0.0,0.0,0.0
1606987224503410138,1022433,1606983623503584709,imu_link,0.0016926050884649158,0.00563060725107789,-0.8738097548484802,0.4862323999404907,0.0,0.0,0.0,0.0,0.0,0.0,0.0,0.0,0.0,-121.81438446044922,0.48321521282196045,-0.4695126712322235,0.0,0.0,0.0,0.0,0.0,0.0,0.0,0.0,0.0,0.009842957369983196,0.021519215777516365,0.011149168014526367,0.0,0.0,0.0,0.0,0.0,0.0,0.0,0.0,0.0
1606987224503423201,1022434,1606983623503744083,imu_link,0.0016926050884649158,0.00563060725107789,-0.8738097548484802,0.4862323999404907,0.0,0.0,0.0,0.0,0.0,0.0,0.0,0.0,0.0,-121.81438446044922,0.48321521282196045,-0.4695126712322235,0.0,0.0,0.0,0.0,0.0,0.0,0.0,0.0,0.0,0.009842957369983196,0.021519215777516365,0.011149168014526367,0.0,0.0,0.0,0.0,0.0,0.0,0.0,0.0,0.0
1606987224503447874,1022435,1606983623503879721,imu_link,0.0016924783121794462,0.00563436234369874,-0.8738089203834534,0.4862339198589325,0.0,0.0,0.0,0.0,0.0,0.0,0.0,0.0,0.0,-121.81417846679688,0.4834125339984894,-0.46989500522613525,0.0,0.0,0.0,0.0,0.0,0.0,0.0,0.0,0.0,0.01630822941660881,0.01604148931801319,-0.011984490789473057,0.0,0.0,0.0,0.0,0.0,0.0,0.0,0.0,0.0
1606987224503455363,1022436,1606983623504015137,imu_link,0.0016924783121794462,0.00563436234369874,-0.8738089203834534,0.4862339198589325,0.0,0.0,0.0,0.0,0.0,0.0,0.0,0.0,0.0,-121.81417846679688,0.4834125339984894,-0.46989500522613525,0.0,0.0,0.0,0.0,0.0,0.0,0.0,0.0,0.0,0.01630822941660881,0.01604148931801319,-0.011984490789473057,0.0,0.0,0.0,0.0,0.0,0.0,0.0,0.0,0.0
1606987224605652008,1022437,1606983623504150931,imu_link,0.0016921450151130557,0.005635479930788279,-0.8738093972206116,0.486233115196228,0.0,0.0,0.0,0.0,0.0,0.0,0.0,0.0,0.0,-121.81428527832031,0.4834410846233368,-0.470025897026062,0.0,0.0,0.0,0.0,0.0,0.0,0.0,0.0,0.0,0.0014382677618414164,0.01748485490679741,0.017680557444691658,0.0,0.0,0.0,0.0,0.0,0.0,0.0,0.0,0.0
1606987224605713957,1022438,1606983623504283193,imu_link,0.0016921450151130557,0.005635479930788279,-0.8738093972206116,0.486233115196228,0.0,0.0,0.0,0.0,0.0,0.0,0.0,0.0,0.0,-121.81428527832031,0.4834410846233368,-0.470025897026062,0.0,0.0,0.0,0.0,0.0,0.0,0.0,0.0,0.0,0.0014382677618414164,0.01748485490679741,0.017680557444691658,0.0,0.0,0.0,0.0,0.0,0.0,0.0,0.0,0.0
1606987224605731378,1022439,1606983623516184976,imu_link,0.0016907862154766917,0.005637940485030413,-0.8738097548484802,0.4862323999404907,0.0,0.0,0.0,0.0,0.0,0.0,0.0,0.0,0.0,-121.81438446044922,0.48344171047210693,-0.4703483581542969,0.0,0.0,0.0,0.0,0.0,0.0,0.0,0.0,0.0,-0.008793427608907223,-0.0019301200518384576,0.029552210122346878,0.0,0.0,0.0,0.0,0.0,0.0,0.0,0.0,0.0
1606987224605743531,1022440,1606983623516363572,imu_link,0.0016907862154766917,0.005637940485030413,-0.8738097548484802,0.4862323999404907,0.0,0.0,0.0,0.0,0.0,0.0,0.0,0.0,0.0,-121.81438446044922,0.48344171047210693,-0.4703483581542969,0.0,0.0,0.0,0.0,0.0,0.0,0.0,0.0,0.0,-0.008793427608907223,-0.0019301200518384576,0.029552210122346878,0.0,0.0,0.0,0.0,0.0,0.0,0.0,0.0,0.0
1606987224605760016,1022441,1606983623516521551,imu_link,0.0016913115978240967,0.00563783198595047,-0.8738091588020325,0.4862334728240967,0.0,0.0,0.0,0.0,0.0,0.0,0.0,0.0,0.0,-121.81424713134766,0.4834888279438019,-0.4703075885772705,0.0,0.0,0.0,0.0,0.0,0.0,0.0,0.0,0.0,-0.0004945468390360475,-0.01870328187942505,0.019013436511158943,0.0,0.0,0.0,0.0,0.0,0.0,0.0,0.0,0.0
1606987224607674819,1022442,1606983623516673519,imu_link,0.0016913115978240967,0.00563783198595047,-0.8738091588020325,0.4862334728240967,0.0,0.0,0.0,0.0,0.0,0.0,0.0,0.0,0.0,-121.81424713134766,0.4834888279438019,-0.4703075885772705,0.0,0.0,0.0,0.0,0.0,0.0,0.0,0.0,0.0,-0.0004945468390360475,-0.01870328187942505,0.019013436511158943,0.0,0.0,0.0,0.0,0.0,0.0,0.0,0.0,0.0
1606987224607706705,1022443,1606983623516825241,imu_link,0.0016919525805860758,0.005634048953652382,-0.8738067746162415,0.4862378239631653,0.0,0.0,0.0,0.0,0.0,0.0,0.0,0.0,0.0,-121.81367492675781,0.48334455490112305,-0.4698908030986786,0.0,0.0,0.0,0.0,0.0,0.0,0.0,0.0,0.0,0.00981260184198618,-0.006929740309715271,0.030549457296729088,0.0,0.0,0.0,0.0,0.0,0.0,0.0,0.0,0.0
1606987224607726412,1022444,1606983623516977708,imu_link,0.0016919525805860758,0.005634048953652382,-0.8738067746162415,0.4862378239631653,0.0,0.0,0.0,0.0,0.0,0.0,0.0,0.0,0.0,-121.81367492675781,0.48334455490112305,-0.4698908030986786,0.0,0.0,0.0,0.0,0.0,0.0,0.0,0.0,0.0,0.00981260184198618,-0.006929740309715271,0.030549457296729088,0.0,0.0,0.0,0.0,0.0,0.0,0.0,0.0,0.0
1606987224607736428,1022445,1606983623517145021,imu_link,0.0016905301017686725,0.005632657557725906,-0.873807430267334,0.48623669147491455,0.0,0.0,0.0,0.0,0.0,0.0,0.0,0.0,0.0,-121.8138198852539,0.4831239581108093,-0.46983128786087036,0.0,0.0,0.0,0.0,0.0,0.0,0.0,0.0,0.0,0.004481767304241657,0.003224574029445648,0.035434652119874954,0.0,0.0,0.0,0.0,0.0,0.0,0.0,0.0,0.0
1606987224616125402,1022446,1606983623517281451,imu_link,0.0016905301017686725,0.005632657557725906,-0.873807430267334,0.48623669147491455,0.0,0.0,0.0,0.0,0.0,0.0,0.0,0.0,0.0,-121.8138198852539,0.4831239581108093,-0.46983128786087036,0.0,0.0,0.0,0.0,0.0,0.0,0.0,0.0,0.0,0.004481767304241657,0.003224574029445648,0.035434652119874954,0.0,0.0,0.0,0.0,0.0,0.0,0.0,0.0,0.0
1606987224616156794,1022447,1606983623517415046,imu_link,0.0016925553791224957,0.005633640568703413,-0.8738051652908325,0.48624077439308167,0.0,0.0,0.0,0.0,0.0,0.0,0.0,0.0,0.0,-121.81327819824219,0.48338377475738525,-0.46981462836265564,0.0,0.0,0.0,0.0,0.0,0.0,0.0,0.0,0.0,-0.0016426832880824804,-0.007342203054577112,0.03414709493517876,0.0,0.0,0.0,0.0,0.0,0.0,0.0,0.0,0.0
1606987224616174395,1022448,1606983623517540646,imu_link,0.0016925553791224957,0.005633640568703413,-0.8738051652908325,0.48624077439308167,0.0,0.0,0.0,0.0,0.0,0.0,0.0,0.0,0.0,-121.81327819824219,0.48338377475738525,-0.46981462836265564,0.0,0.0,0.0,0.0,0.0,0.0,0.0,0.0,0.0,-0.0016426832880824804,-0.007342203054577112,0.03414709493517876,0.0,0.0,0.0,0.0,0.0,0.0,0.0,0.0,0.0
1606987224616197255,1022449,1606983623517658782,imu_link,0.001692650723271072,0.005632580257952213,-0.8738047480583191,0.48624151945114136,0.0,0.0,0.0,0.0,0.0,0.0,0.0,0.0,0.0,-121.81317901611328,0.48333463072776794,-0.46970269083976746,0.0,0.0,0.0,0.0,0.0,0.0,0.0,0.0,0.0,0.009007243439555168,-0.01659778319299221,0.046119075268507004,0.0,0.0,0.0,0.0,0.0,0.0,0.0,0.0,0.0
1606987224622095834,1022450,1606983623529986825,imu_link,0.001692650723271072,0.005632580257952213,-0.8738047480583191,0.48624151945114136,0.0,0.0,0.0,0.0,0.0,0.0,0.0,0.0,0.0,-121.81317901611328,0.48333463072776794,-0.46970269083976746,0.0,0.0,0.0,0.0,0.0,0.0,0.0,0.0,0.0,0.009007243439555168,-0.01659778319299221,0.046119075268507004,0.0,0.0,0.0,0.0,0.0,0.0,0.0,0.0,0.0
1606987224622125118,1022451,1606983623530164814,imu_link,0.0016963285161182284,0.005630311090499163,-0.873802900314331,0.4862448275089264,0.0,0.0,0.0,0.0,0.0,0.0,0.0,0.0,0.0,-121.81275939941406,0.48357826471328735,-0.46926870942115784,0.0,0.0,0.0,0.0,0.0,0.0,0.0,0.0,0.0,0.02479875460267067,-0.02739640697836876,0.06652548909187317,0.0,0.0,0.0,0.0,0.0,0.0,0.0,0.0,0.0
1606987224622138651,1022452,1606983623530308198,imu_link,0.0016963285161182284,0.005630311090499163,-0.873802900314331,0.4862448275089264,0.0,0.0,0.0,0.0,0.0,0.0,0.0,0.0,0.0,-121.81275939941406,0.48357826471328735,-0.46926870942115784,0.0,0.0,0.0,0.0,0.0,0.0,0.0,0.0,0.0,0.02479875460267067,-0.02739640697836876,0.06652548909187317,0.0,0.0,0.0,0.0,0.0,0.0,0.0,0.0,0.0
1606987224622178368,1022453,1606983623530460690,imu_link,0.0016988076968118548,0.005631010513752699,-0.8738028407096863,0.48624497652053833,0.0,0.0,0.0,0.0,0.0,0.0,0.0,0.0,0.0,-121.81272888183594,0.48386555910110474,-0.4692005217075348,0.0,0.0,0.0,0.0,0.0,0.0,0.0,0.0,0.0,0.025333363562822342,-0.005374385975301266,0.05660562589764595,0.0,0.0,0.0,0.0,0.0,0.0,0.0,0.0,0.0
1606987224700459630,1022454,1606983623530610548,imu_link,0.0016988076968118548,0.005631010513752699,-0.8738028407096863,0.48624497652053833,0.0,0.0,0.0,0.0,0.0,0.0,0.0,0.0,0.0,-121.81272888183594,0.48386555910110474,-0.4692005217075348,0.0,0.0,0.0,0.0,0.0,0.0,0.0,0.0,0.0,0.025333363562822342,-0.005374385975301266,0.05660562589764595,0.0,0.0,0.0,0.0,0.0,0.0,0.0,0.0,0.0
1606987224700496864,1022455,1606983623530776229,imu_link,0.001704231253825128,0.005631221923977137,-0.873802125453949,0.4862462282180786,0.0,0.0,0.0,0.0,0.0,0.0,0.0,0.0,0.0,-121.81256866455078,0.484421044588089,-0.4689188599586487,0.0,0.0,0.0,0.0,0.0,0.0,0.0,0.0,0.0,0.00482324231415987,0.007031054235994816,0.041738636791706085,0.0,0.0,0.0,0.0,0.0,0.0,0.0,0.0,0.0
1606987224700509562,1022456,1606983623530918010,imu_link,0.001704231253825128,0.005631221923977137,-0.873802125453949,0.4862462282180786,0.0,0.0,0.0,0.0,0.0,0.0,0.0,0.0,0.0,-121.81256866455078,0.484421044588089,-0.4689188599586487,0.0,0.0,0.0,0.0,0.0,0.0,0.0,0.0,0.0,0.00482324231415987,0.007031054235994816,0.041738636791706085,0.0,0.0,0.0,0.0,0.0,0.0,0.0,0.0,0.0
1606987224700524830,1022457,1606983623531093430,imu_link,0.0017040240345522761,0.005633143242448568,-0.8738012313842773,0.4862477779388428,0.0,0.0,0.0,0.0,0.0,0.0,0.0,0.0,0.0,-121.81236267089844,0.4845081865787506,-0.46912190318107605,0.0,0.0,0.0,0.0,0.0,0.0,0.0,0.0,0.0,-0.005205977242439985,0.0011693426640704274,0.025990266352891922,0.0,0.0,0.0,0.0,0.0,0.0,0.0,0.0,0.0
1606987224700541978,1022458,1606983623531231856,imu_link,0.0017040240345522761,0.005633143242448568,-0.8738012313842773,0.4862477779388428,0.0,0.0,0.0,0.0,0.0,0.0,0.0,0.0,0.0,-121.81236267089844,0.4845081865787506,-0.46912190318107605,0.0,0.0,0.0,0.0,0.0,0.0,0.0,0.0,0.0,-0.005205977242439985,0.0011693426640704274,0.025990266352891922,0.0,0.0,0.0,0.0,0.0,0.0,0.0,0.0,0.0
1606987224703586761,1022459,1606983623531366327,imu_link,0.0017045671120285988,0.005631342530250549,-0.8737983107566833,0.48625293374061584,0.0,0.0,0.0,0.0,0.0,0.0,0.0,0.0,0.0,-121.81167602539062,0.4844650328159332,-0.46890851855278015,0.0,0.0,0.0,0.0,0.0,0.0,0.0,0.0,0.0,-0.0028046350926160812,-0.006061432883143425,0.015719663351774216,0.0,0.0,0.0,0.0,0.0,0.0,0.0,0.0,0.0
1606987224703608715,1022460,1606983623531498359,imu_link,0.0017045671120285988,0.005631342530250549,-0.8737983107566833,0.48625293374061584,0.0,0.0,0.0,0.0,0.0,0.0,0.0,0.0,0.0,-121.81167602539062,0.4844650328159332,-0.46890851855278015,0.0,0.0,0.0,0.0,0.0,0.0,0.0,0.0,0.0,-0.0028046350926160812,-0.006061432883143425,0.015719663351774216,0.0,0.0,0.0,0.0,0.0,0.0,0.0,0.0,0.0
1606987224703638890,1022461,1606983623542669263,imu_link,0.0017043593106791377,0.00563084427267313,-0.8737990260124207,0.4862516522407532,0.0,0.0,0.0,0.0,0.0,0.0,0.0,0.0,0.0,-121.81185150146484,0.48441576957702637,-0.4688709080219269,0.0,0.0,0.0,0.0,0.0,0.0,0.0,0.0,0.0,0.0010370549280196428,-0.007961827330291271,0.03351336345076561,0.0,0.0,0.0,0.0,0.0,0.0,0.0,0.0,0.0
1606987224703647322,1022462,1606983623542770646,imu_link,0.0017043593106791377,0.00563084427267313,-0.8737990260124207,0.4862516522407532,0.0,0.0,0.0,0.0,0.0,0.0,0.0,0.0,0.0,-121.81185150146484,0.48441576957702637,-0.4688709080219269,0.0,0.0,0.0,0.0,0.0,0.0,0.0,0.0,0.0,0.0010370549280196428,-0.007961827330291271,0.03351336345076561,0.0,0.0,0.0,0.0,0.0,0.0,0.0,0.0,0.0
1606987224741796322,1022463,1606983623542863080,imu_link,0.0017059635138139129,0.005631810054183006,-0.8737972378730774,0.48625481128692627,0.0,0.0,0.0,0.0,0.0,0.0,0.0,0.0,0.0,-121.81143188476562,0.48463189601898193,-0.46887651085853577,0.0,0.0,0.0,0.0,0.0,0.0,0.0,0.0,0.0,0.008885961957275867,0.013340896926820278,0.04893764480948448,0.0,0.0,0.0,0.0,0.0,0.0,0.0,0.0,0.0
1606987224741825632,1022464,1606983623542965262,imu_link,0.0017059635138139129,0.005631810054183006,-0.8737972378730774,0.48625481128692627,0.0,0.0,0.0,0.0,0.0,0.0,0.0,0.0,0.0,-121.81143188476562,0.48463189601898193,-0.46887651085853577,0.0,0.0,0.0,0.0,0.0,0.0,0.0,0.0,0.0,0.008885961957275867,0.013340896926820278,0.04893764480948448,0.0,0.0,0.0,0.0,0.0,0.0,0.0,0.0,0.0
1606987224741863562,1022465,1606983623543054050,imu_link,0.001705699134618044,0.005630361847579479,-0.8737969398498535,0.48625537753105164,0.0,0.0,0.0,0.0,0.0,0.0,0.0,0.0,0.0,-121.81136322021484,0.48452505469322205,-0.4687458276748657,0.0,0.0,0.0,0.0,0.0,0.0,0.0,0.0,0.0,0.013921010307967663,0.015598583035171032,0.04438444599509239,0.0,0.0,0.0,0.0,0.0,0.0,0.0,0.0,0.0
1606987224741892404,1022466,1606983623543153246,imu_link,0.001705699134618044,0.005630361847579479,-0.8737969398498535,0.48625537753105164,0.0,0.0,0.0,0.0,0.0,0.0,0.0,0.0,0.0,-121.81136322021484,0.48452505469322205,-0.4687458276748657,0.0,0.0,0.0,0.0,0.0,0.0,0.0,0.0,0.0,0.013921010307967663,0.015598583035171032,0.04438444599509239,0.0,0.0,0.0,0.0,0.0,0.0,0.0,0.0,0.0
1606987224741921992,1022467,1606983623543240241,imu_link,0.0017051876056939363,0.005632609594613314,-0.8737955093383789,0.48625805974006653,0.0,0.0,0.0,0.0,0.0,0.0,0.0,0.0,0.0,-121.81100463867188,0.4846005141735077,-0.4689979553222656,0.0,0.0,0.0,0.0,0.0,0.0,0.0,0.0,0.0,0.01746932975947857,0.002040186896920204,0.03979428857564926,0.0,0.0,0.0,0.0,0.0,0.0,0.0,0.0,0.0
1606987224741937553,1022468,1606983623543326896,imu_link,0.0017051876056939363,0.005632609594613314,-0.8737955093383789,0.48625805974006653,0.0,0.0,0.0,0.0,0.0,0.0,0.0,0.0,0.0,-121.81100463867188,0.4846005141735077,-0.4689979553222656,0.0,0.0,0.0,0.0,0.0,0.0,0.0,0.0,0.0,0.01746932975947857,0.002040186896920204,0.03979428857564926,0.0,0.0,0.0,0.0,0.0,0.0,0.0,0.0,0.0
1606987224741957216,1022469,1606983623543414808,imu_link,0.0017049891175702214,0.005632967222481966,-0.8737967014312744,0.4862558841705322,0.0,0.0,0.0,0.0,0.0,0.0,0.0,0.0,0.0,-121.81130981445312,0.48459938168525696,-0.469046026468277,0.0,0.0,0.0,0.0,0.0,0.0,0.0,0.0,0.0,0.012605685740709305,-0.006440124474465847,0.04898078367114067,0.0,0.0,0.0,0.0,0.0,0.0,0.0,0.0,0.0
1606987224741980141,1022470,1606983623543499928,imu_link,0.0017049891175702214,0.005632967222481966,-0.8737967014312744,0.4862558841705322,0.0,0.0,0.0,0.0,0.0,0.0,0.0,0.0,0.0,-121.81130981445312,0.48459938168525696,-0.469046026468277,0.0,0.0,0.0,0.0,0.0,0.0,0.0,0.0,0.0,0.012605685740709305,-0.006440124474465847,0.04898078367114067,0.0,0.0,0.0,0.0,0.0,0.0,0.0,0.0,0.0
1606987224742057683,1022471,1606983623556167304,imu_link,0.0017042788676917553,0.005630414001643658,-0.8737958073616028,0.48625749349594116,0.0,0.0,0.0,0.0,0.0,0.0,0.0,0.0,0.0,-121.81108856201172,0.4843868613243103,-0.4688290059566498,0.0,0.0,0.0,0.0,0.0,0.0,0.0,0.0,0.0,-0.004767336882650852,-0.0008121924474835396,0.032666344195604324,0.0,0.0,0.0,0.0,0.0,0.0,0.0,0.0,0.0
1606987224742079856,1022472,1606983623556309213,imu_link,0.0017042788676917553,0.005630414001643658,-0.8737958073616028,0.48625749349594116,0.0,0.0,0.0,0.0,0.0,0.0,0.0,0.0,0.0,-121.81108856201172,0.4843868613243103,-0.4688290059566498,0.0,0.0,0.0,0.0,0.0,0.0,0.0,0.0,0.0,-0.004767336882650852,-0.0008121924474835396,0.032666344195604324,0.0,0.0,0.0,0.0,0.0,0.0,0.0,0.0,0.0
1606987224742097229,1022473,1606983623556445308,imu_link,0.0017047675792127848,0.0056292214430868626,-0.8737959861755371,0.4862571358680725,0.0,0.0,0.0,0.0,0.0,0.0,0.0,0.0,0.0,-121.8111343383789,0.4843691289424896,-0.46868252754211426,0.0,0.0,0.0,0.0,0.0,0.0,0.0,0.0,0.0,-0.02109002135694027,0.020281579345464706,0.0093113724142313,0.0,0.0,0.0,0.0,0.0,0.0,0.0,0.0,0.0
1606987224742149257,1022474,1606983623556566861,imu_link,0.0017047675792127848,0.0056292214430868626,-0.8737959861755371,0.4862571358680725,0.0,0.0,0.0,0.0,0.0,0.0,0.0,0.0,0.0,-121.8111343383789,0.4843691289424896,-0.46868252754211426,0.0,0.0,0.0,0.0,0.0,0.0,0.0,0.0,0.0,-0.02109002135694027,0.020281579345464706,0.0093113724142313,0.0,0.0,0.0,0.0,0.0,0.0,0.0,0.0,0.0
1606987224742170766,1022475,1606983623556687745,imu_link,0.0016977958148345351,0.005629418417811394,-0.8738024234771729,0.48624566197395325,0.0,0.0,0.0,0.0,0.0,0.0,0.0,0.0,0.0,-121.81262969970703,0.48367586731910706,-0.46909716725349426,0.0,0.0,0.0,0.0,0.0,0.0,0.0,0.0,0.0,-0.02188568376004696,0.021919144317507744,0.015310815535485744,0.0,0.0,0.0,0.0,0.0,0.0,0.0,0.0,0.0
1606987224742225360,1022476,1606983623556807157,imu_link,0.0016977958148345351,0.005629418417811394,-0.8738024234771729,0.48624566197395325,0.0,0.0,0.0,0.0,0.0,0.0,0.0,0.0,0.0,-121.81262969970703,0.48367586731910706,-0.46909716725349426,0.0,0.0,0.0,0.0,0.0,0.0,0.0,0.0,0.0,-0.02188568376004696,0.021919144317507744,0.015310815535485744,0.0,0.0,0.0,0.0,0.0,0.0,0.0,0.0,0.0
1606987224742246587,1022477,1606983623556942178,imu_link,0.0016975926700979471,0.00562728475779295,-0.8738027811050415,0.48624491691589355,0.0,0.0,0.0,0.0,0.0,0.0,0.0,0.0,0.0,-121.81272888183594,0.4835362732410431,-0.46889522671699524,0.0,0.0,0.0,0.0,0.0,0.0,0.0,0.0,0.0,-0.01837366633117199,-0.0039168414659798145,0.015238668769598007,0.0,0.0,0.0,0.0,0.0,0.0,0.0,0.0,0.0
1606987224742257572,1022478,1606983623557075069,imu_link,0.0016975926700979471,0.00562728475779295,-0.8738027811050415,0.48624491691589355,0.0,0.0,0.0,0.0,0.0,0.0,0.0,0.0,0.0,-121.81272888183594,0.4835362732410431,-0.46889522671699524,0.0,0.0,0.0,0.0,0.0,0.0,0.0,0.0,0.0,-0.01837366633117199,-0.0039168414659798145,0.015238668769598007,0.0,0.0,0.0,0.0,0.0,0.0,0.0,0.0,0.0
1606987224742268439,1022479,1606983623557198274,imu_link,0.001695140148513019,0.005625240504741669,-0.8738101124763489,0.48623183369636536,0.0,0.0,0.0,0.0,0.0,0.0,0.0,0.0,0.0,-121.814453125,0.4831697344779968,-0.4688343405723572,0.0,0.0,0.0,0.0,0.0,0.0,0.0,0.0,0.0,-0.0038087558932602406,-0.01212827954441309,0.02472691982984543,0.0,0.0,0.0,0.0,0.0,0.0,0.0,0.0,0.0
1606987224742280788,1022480,1606983623557317631,imu_link,0.001695140148513019,0.005625240504741669,-0.8738101124763489,0.48623183369636536,0.0,0.0,0.0,0.0,0.0,0.0,0.0,0.0,0.0,-121.814453125,0.4831697344779968,-0.4688343405723572,0.0,0.0,0.0,0.0,0.0,0.0,0.0,0.0,0.0,-0.0038087558932602406,-0.01212827954441309,0.02472691982984543,0.0,0.0,0.0,0.0,0.0,0.0,0.0,0.0,0.0
1606987224742286930,1022481,1606983623557436590,imu_link,0.001693681930191815,0.005625168792903423,-0.8738107681274414,0.4862307012081146,0.0,0.0,0.0,0.0,0.0,0.0,0.0,0.0,0.0,-121.8145980834961,0.4830191135406494,-0.46890905499458313,0.0,0.0,0.0,0.0,0.0,0.0,0.0,0.0,0.0,0.0036208885721862316,-0.004776317160576582,0.03844337910413742,0.0,0.0,0.0,0.0,0.0,0.0,0.0,0.0,0.0
1606987224845409059,1022482,1606983623569954959,imu_link,0.001693681930191815,0.005625168792903423,-0.8738107681274414,0.4862307012081146,0.0,0.0,0.0,0.0,0.0,0.0,0.0,0.0,0.0,-121.8145980834961,0.4830191135406494,-0.46890905499458313,0.0,0.0,0.0,0.0,0.0,0.0,0.0,0.0,0.0,0.0036208885721862316,-0.004776317160576582,0.03844337910413742,0.0,0.0,0.0,0.0,0.0,0.0,0.0,0.0,0.0
1606987224845439031,1022483,1606983623570100842,imu_link,0.001695480546914041,0.005625870544463396,-0.8738086223602295,0.48623451590538025,0.0,0.0,0.0,0.0,0.0,0.0,0.0,0.0,0.0,-121.81409454345703,0.4832403361797333,-0.46887704730033875,0.0,0.0,0.0,0.0,0.0,0.0,0.0,0.0,0.0,-0.009666286408901215,-0.004388472996652126,0.03109656274318695,0.0,0.0,0.0,0.0,0.0,0.0,0.0,0.0,0.0
1606987224845455586,1022484,1606983623570240833,imu_link,0.001695480546914041,0.005625870544463396,-0.8738086223602295,0.48623451590538025,0.0,0.0,0.0,0.0,0.0,0.0,0.0,0.0,0.0,-121.81409454345703,0.4832403361797333,-0.46887704730033875,0.0,0.0,0.0,0.0,0.0,0.0,0.0,0.0,0.0,-0.009666286408901215,-0.004388472996652126,0.03109656274318695,0.0,0.0,0.0,0.0,0.0,0.0,0.0,0.0,0.0
1606987224845472167,1022485,1606983623570379816,imu_link,0.0016973318997770548,0.005623604170978069,-0.8738101124763489,0.48623186349868774,0.0,0.0,0.0,0.0,0.0,0.0,0.0,0.0,0.0,-121.814453125,0.48329803347587585,-0.46854838728904724,0.0,0.0,0.0,0.0,0.0,0.0,0.0,0.0,0.0,-0.005749169271439314,-0.0013567571295425296,0.028518278151750565,0.0,0.0,0.0,0.0,0.0,0.0,0.0,0.0,0.0
1606987224849120661,1022486,1606983623570515950,imu_link,0.0016973318997770548,0.005623604170978069,-0.8738101124763489,0.48623186349868774,0.0,0.0,0.0,0.0,0.0,0.0,0.0,0.0,0.0,-121.814453125,0.48329803347587585,-0.46854838728904724,0.0,0.0,0.0,0.0,0.0,0.0,0.0,0.0,0.0,-0.005749169271439314,-0.0013567571295425296,0.028518278151750565,0.0,0.0,0.0,0.0,0.0,0.0,0.0,0.0,0.0
1606987224849152638,1022487,1606983623570651370,imu_link,0.0016973220044746995,0.005623631179332733,-0.8738089203834534,0.4862339198589325,0.0,0.0,0.0,0.0,0.0,0.0,0.0,0.0,0.0,-121.81417846679688,0.4832996129989624,-0.4685504734516144,0.0,0.0,0.0,0.0,0.0,0.0,0.0,0.0,0.0,-0.001060851034708321,0.006630448624491692,0.024662261828780174,0.0,0.0,0.0,0.0,0.0,0.0,0.0,0.0,0.0
1606987224849179858,1022488,1606983623570801227,imu_link,0.0016973220044746995,0.005623631179332733,-0.8738089203834534,0.4862339198589325,0.0,0.0,0.0,0.0,0.0,0.0,0.0,0.0,0.0,-121.81417846679688,0.4832996129989624,-0.4685504734516144,0.0,0.0,0.0,0.0,0.0,0.0,0.0,0.0,0.0,-0.001060851034708321,0.006630448624491692,0.024662261828780174,0.0,0.0,0.0,0.0,0.0,0.0,0.0,0.0,0.0
1606987224849191857,1022489,1606983623570935962,imu_link,0.001695543760433793,0.005622877273708582,-0.8738092184066772,0.4862334132194519,0.0,0.0,0.0,0.0,0.0,0.0,0.0,0.0,0.0,-121.81424713134766,0.48307928442955017,-0.4685743749141693,0.0,0.0,0.0,0.0,0.0,0.0,0.0,0.0,0.0,-0.006725030019879341,0.004292814061045647,0.008921624161303043,0.0,0.0,0.0,0.0,0.0,0.0,0.0,0.0,0.0
1606987224859984748,1022490,1606983623571103037,imu_link,0.001695543760433793,0.005622877273708582,-0.8738092184066772,0.4862334132194519,0.0,0.0,0.0,0.0,0.0,0.0,0.0,0.0,0.0,-121.81424713134766,0.48307928442955017,-0.4685743749141693,0.0,0.0,0.0,0.0,0.0,0.0,0.0,0.0,0.0,-0.006725030019879341,0.004292814061045647,0.008921624161303043,0.0,0.0,0.0,0.0,0.0,0.0,0.0,0.0,0.0
1606987224860020820,1022491,1606983623571237785,imu_link,0.0016945223324000835,0.005621913820505142,-0.8738065958023071,0.48623818159103394,0.0,0.0,0.0,0.0,0.0,0.0,0.0,0.0,0.0,-121.81361389160156,0.4829258918762207,-0.46853211522102356,0.0,0.0,0.0,0.0,0.0,0.0,0.0,0.0,0.0,-0.004063247237354517,-0.0017182675655931234,-0.004457441624253988,0.0,0.0,0.0,0.0,0.0,0.0,0.0,0.0,0.0
1606987224860054186,1022492,1606983623571369797,imu_link,0.0016945223324000835,0.005621913820505142,-0.8738065958023071,0.48623818159103394,0.0,0.0,0.0,0.0,0.0,0.0,0.0,0.0,0.0,-121.81361389160156,0.4829258918762207,-0.46853211522102356,0.0,0.0,0.0,0.0,0.0,0.0,0.0,0.0,0.0,-0.004063247237354517,-0.0017182675655931234,-0.004457441624253988,0.0,0.0,0.0,0.0,0.0,0.0,0.0,0.0,0.0
1606987224860086618,1022493,1606983623583466364,imu_link,0.0016952637815847993,0.0056228903122246265,-0.8738062977790833,0.4862386882305145,0.0,0.0,0.0,0.0,0.0,0.0,0.0,0.0,0.0,-121.81354522705078,0.4830548167228699,-0.46858835220336914,0.0,0.0,0.0,0.0,0.0,0.0,0.0,0.0,0.0,-0.0012849033810198307,-0.0011796613689512014,-0.005686651449650526,0.0,0.0,0.0,0.0,0.0,0.0,0.0,0.0,0.0
1606987224860111697,1022494,1606983623583570284,imu_link,0.0016952637815847993,0.0056228903122246265,-0.8738062977790833,0.4862386882305145,0.0,0.0,0.0,0.0,0.0,0.0,0.0,0.0,0.0,-121.81354522705078,0.4830548167228699,-0.46858835220336914,0.0,0.0,0.0,0.0,0.0,0.0,0.0,0.0,0.0,-0.0012849033810198307,-0.0011796613689512014,-0.005686651449650526,0.0,0.0,0.0,0.0,0.0,0.0,0.0,0.0,0.0
1606987224863289454,1022495,1606983623583641949,imu_link,0.001693155849352479,0.005623136647045612,-0.8738043904304504,0.4862421154975891,0.0,0.0,0.0,0.0,0.0,0.0,0.0,0.0,0.0,-121.81309509277344,0.482859343290329,-0.46872860193252563,0.0,0.0,0.0,0.0,0.0,0.0,0.0,0.0,0.0,0.0007805582135915756,0.00307472120039165,0.026068836450576782,0.0,0.0,0.0,0.0,0.0,0.0,0.0,0.0,0.0
1606987224863318258,1022496,1606983623583713620,imu_link,0.001693155849352479,0.005623136647045612,-0.8738043904304504,0.4862421154975891,0.0,0.0,0.0,0.0,0.0,0.0,0.0,0.0,0.0,-121.81309509277344,0.482859343290329,-0.46872860193252563,0.0,0.0,0.0,0.0,0.0,0.0,0.0,0.0,0.0,0.0007805582135915756,0.00307472120039165,0.026068836450576782,0.0,0.0,0.0,0.0,0.0,0.0,0.0,0.0,0.0
1606987224863333695,1022497,1606983623583792497,imu_link,0.0016954779857769608,0.005625319201499224,-0.8738038539886475,0.4862430691719055,0.0,0.0,0.0,0.0,0.0,0.0,0.0,0.0,0.0,-121.81297302246094,0.48321399092674255,-0.46881723403930664,0.0,0.0,0.0,0.0,0.0,0.0,0.0,0.0,0.0,0.0010536633199080825,0.00487876869738102,0.048314739018678665,0.0,0.0,0.0,0.0,0.0,0.0,0.0,0.0,0.0
1606987224863365692,1022498,1606983623583872620,imu_link,0.0016954779857769608,0.005625319201499224,-0.8738038539886475,0.4862430691719055,0.0,0.0,0.0,0.0,0.0,0.0,0.0,0.0,0.0,-121.81297302246094,0.48321399092674255,-0.46881723403930664,0.0,0.0,0.0,0.0,0.0,0.0,0.0,0.0,0.0,0.0010536633199080825,0.00487876869738102,0.048314739018678665,0.0,0.0,0.0,0.0,0.0,0.0,0.0,0.0,0.0
1606987224929964950,1022499,1606983623583968108,imu_link,0.0016945101087912917,0.005626273807138205,-0.8738027811050415,0.4862450659275055,0.0,0.0,0.0,0.0,0.0,0.0,0.0,0.0,0.0,-121.81271362304688,0.48317134380340576,-0.468965619802475,0.0,0.0,0.0,0.0,0.0,0.0,0.0,0.0,0.0,-0.01601347327232361,0.0040576583705842495,0.01668304018676281,0.0,0.0,0.0,0.0,0.0,0.0,0.0,0.0,0.0
1606987224929990948,1022500,1606983623584044747,imu_link,0.0016945101087912917,0.005626273807138205,-0.8738027811050415,0.4862450659275055,0.0,0.0,0.0,0.0,0.0,0.0,0.0,0.0,0.0,-121.81271362304688,0.48317134380340576,-0.468965619802475,0.0,0.0,0.0,0.0,0.0,0.0,0.0,0.0,0.0,-0.01601347327232361,0.0040576583705842495,0.01668304018676281,0.0,0.0,0.0,0.0,0.0,0.0,0.0,0.0,0.0
1606987224929998811,1022501,1606983623584111697,imu_link,0.001694382051937282,0.00562536995857954,-0.8738033175468445,0.4862441122531891,0.0,0.0,0.0,0.0,0.0,0.0,0.0,0.0,0.0,-121.81283569335938,0.48310762643814087,-0.46888279914855957,0.0,0.0,0.0,0.0,0.0,0.0,0.0,0.0,0.0,-0.014434337615966797,-0.0012335170758888125,-0.007096020504832268,0.0,0.0,0.0,0.0,0.0,0.0,0.0,0.0,0.0
1606987224930029112,1022502,1606983623584180501,imu_link,0.001694382051937282,0.00562536995857954,-0.8738033175468445,0.4862441122531891,0.0,0.0,0.0,0.0,0.0,0.0,0.0,0.0,0.0,-121.81283569335938,0.48310762643814087,-0.46888279914855957,0.0,0.0,0.0,0.0,0.0,0.0,0.0,0.0,0.0,-0.014434337615966797,-0.0012335170758888125,-0.007096020504832268,0.0,0.0,0.0,0.0,0.0,0.0,0.0,0.0,0.0
1606987224930039610,1022503,1606983623584254348,imu_link,0.0016922750510275364,0.0056246193125844,-0.8738026022911072,0.48624545335769653,0.0,0.0,0.0,0.0,0.0,0.0,0.0,0.0,0.0,-121.81266021728516,0.48285555839538574,-0.46892431378364563,0.0,0.0,0.0,0.0,0.0,0.0,0.0,0.0,0.0,0.003487303154543042,-0.012879615649580956,0.006157624069601297,0.0,0.0,0.0,0.0,0.0,0.0,0.0,0.0,0.0
1606987224930058983,1022504,1606983623597485652,imu_link,0.0016922750510275364,0.0056246193125844,-0.8738026022911072,0.48624545335769653,0.0,0.0,0.0,0.0,0.0,0.0,0.0,0.0,0.0,-121.81266021728516,0.48285555839538574,-0.46892431378364563,0.0,0.0,0.0,0.0,0.0,0.0,0.0,0.0,0.0,0.003487303154543042,-0.012879615649580956,0.006157624069601297,0.0,0.0,0.0,0.0,0.0,0.0,0.0,0.0,0.0
1606987224930073659,1022505,1606983623597613062,imu_link,0.0016934380400925875,0.0056239888072013855,-0.8738027811050415,0.48624512553215027,0.0,0.0,0.0,0.0,0.0,0.0,0.0,0.0,0.0,-121.81271362304688,0.48293665051460266,-0.4687965214252472,0.0,0.0,0.0,0.0,0.0,0.0,0.0,0.0,0.0,0.0035338569432497025,-0.014015891589224339,0.009351413697004318,0.0,0.0,0.0,0.0,0.0,0.0,0.0,0.0,0.0
1606987224930124330,1022506,1606983623597766987,imu_link,0.0016934380400925875,0.0056239888072013855,-0.8738027811050415,0.48624512553215027,0.0,0.0,0.0,0.0,0.0,0.0,0.0,0.0,0.0,-121.81271362304688,0.48293665051460266,-0.4687965214252472,0.0,0.0,0.0,0.0,0.0,0.0,0.0,0.0,0.0,0.0035338569432497025,-0.014015891589224339,0.009351413697004318,0.0,0.0,0.0,0.0,0.0,0.0,0.0,0.0,0.0
1606987224932169045,1022507,1606983623597856189,imu_link,0.0016953442245721817,0.005622017662972212,-0.8738042116165161,0.4862424433231354,0.0,0.0,0.0,0.0,0.0,0.0,0.0,0.0,0.0,-121.81305694580078,0.4830162823200226,-0.46849432587623596,0.0,0.0,0.0,0.0,0.0,0.0,0.0,0.0,0.0,-0.0030221783090382814,-0.0022438750602304935,0.019472556188702583,0.0,0.0,0.0,0.0,0.0,0.0,0.0,0.0,0.0
1606987224932196910,1022508,1606983623597933313,imu_link,0.0016953442245721817,0.005622017662972212,-0.8738042116165161,0.4862424433231354,0.0,0.0,0.0,0.0,0.0,0.0,0.0,0.0,0.0,-121.81305694580078,0.4830162823200226,-0.46849432587623596,0.0,0.0,0.0,0.0,0.0,0.0,0.0,0.0,0.0,-0.0030221783090382814,-0.0022438750602304935,0.019472556188702583,0.0,0.0,0.0,0.0,0.0,0.0,0.0,0.0,0.0
1606987224932208062,1022509,1606983623598032775,imu_link,0.0016939311753958464,0.005624221172183752,-0.8738055229187012,0.48624008893966675,0.0,0.0,0.0,0.0,0.0,0.0,0.0,0.0,0.0,-121.81336975097656,0.4829963147640228,-0.46879512071609497,0.0,0.0,0.0,0.0,0.0,0.0,0.0,0.0,0.0,-0.00041042102384380996,0.009234035387635231,0.03564087674021721,0.0,0.0,0.0,0.0,0.0,0.0,0.0,0.0,0.0
1606987224932225010,1022510,1606983623598107075,imu_link,0.0016939311753958464,0.005624221172183752,-0.8738055229187012,0.48624008893966675,0.0,0.0,0.0,0.0,0.0,0.0,0.0,0.0,0.0,-121.81336975097656,0.4829963147640228,-0.46879512071609497,0.0,0.0,0.0,0.0,0.0,0.0,0.0,0.0,0.0,-0.00041042102384380996,0.009234035387635231,0.03564087674021721,0.0,0.0,0.0,0.0,0.0,0.0,0.0,0.0,0.0
1606987224932253641,1022511,1606983623598175319,imu_link,0.001693587051704526,0.005623795557767153,-0.8738065361976624,0.4862382709980011,0.0,0.0,0.0,0.0,0.0,0.0,0.0,0.0,0.0,-121.81360626220703,0.48293715715408325,-0.46877261996269226,0.0,0.0,0.0,0.0,0.0,0.0,0.0,0.0,0.0,0.00694418977946043,0.014094584621489048,0.023836147040128708,0.0,0.0,0.0,0.0,0.0,0.0,0.0,0.0,0.0
1606987224936907111,1022512,1606983623598239993,imu_link,0.001693587051704526,0.005623795557767153,-0.8738065361976624,0.4862382709980011,0.0,0.0,0.0,0.0,0.0,0.0,0.0,0.0,0.0,-121.81360626220703,0.48293715715408325,-0.46877261996269226,0.0,0.0,0.0,0.0,0.0,0.0,0.0,0.0,0.0,0.00694418977946043,0.014094584621489048,0.023836147040128708,0.0,0.0,0.0,0.0,0.0,0.0,0.0,0.0,0.0
1606987224936935399,1022513,1606983623598307660,imu_link,0.0016937345499172807,0.0056226239539682865,-0.8738077878952026,0.48623600602149963,0.0,0.0,0.0,0.0,0.0,0.0,0.0,0.0,0.0,-121.81390380859375,0.4828854501247406,-0.46864837408065796,0.0,0.0,0.0,0.0,0.0,0.0,0.0,0.0,0.0,0.0060102371498942375,0.010620750486850739,0.00565587030723691,0.0,0.0,0.0,0.0,0.0,0.0,0.0,0.0,0.0
1606987224936948754,1022514,1606983623598381565,imu_link,0.0016937345499172807,0.0056226239539682865,-0.8738077878952026,0.48623600602149963,0.0,0.0,0.0,0.0,0.0,0.0,0.0,0.0,0.0,-121.81390380859375,0.4828854501247406,-0.46864837408065796,0.0,0.0,0.0,0.0,0.0,0.0,0.0,0.0,0.0,0.0060102371498942375,0.010620750486850739,0.00565587030723691,0.0,0.0,0.0,0.0,0.0,0.0,0.0,0.0,0.0
1606987225040445988,1022515,1606983623610368016,imu_link,0.0016931913560256362,0.005626472644507885,-0.8738029599189758,0.4862447679042816,0.0,0.0,0.0,0.0,0.0,0.0,0.0,0.0,0.0,-121.81275939941406,0.48305022716522217,-0.46905919909477234,0.0,0.0,0.0,0.0,0.0,0.0,0.0,0.0,0.0,-0.00576793123036623,-0.0056257243268191814,0.02553517557680607,0.0,0.0,0.0,0.0,0.0,0.0,0.0,0.0,0.0
1606987225040474798,1022516,1606983623610506887,imu_link,0.0016931913560256362,0.005626472644507885,-0.8738029599189758,0.4862447679042816,0.0,0.0,0.0,0.0,0.0,0.0,0.0,0.0,0.0,-121.81275939941406,0.48305022716522217,-0.46905919909477234,0.0,0.0,0.0,0.0,0.0,0.0,0.0,0.0,0.0,-0.00576793123036623,-0.0056257243268191814,0.02553517557680607,0.0,0.0,0.0,0.0,0.0,0.0,0.0,0.0,0.0
1606987225040485835,1022517,1606983623610698862,imu_link,0.001693719532340765,0.005624752026051283,-0.873802661895752,0.4862452447414398,0.0,0.0,0.0,0.0,0.0,0.0,0.0,0.0,0.0,-121.81269073486328,0.48300743103027344,-0.46885719895362854,0.0,0.0,0.0,0.0,0.0,0.0,0.0,0.0,0.0,0.00018130673561245203,-0.02086263708770275,0.06961406767368317,0.0,0.0,0.0,0.0,0.0,0.0,0.0,0.0,0.0
1606987225040510865,1022518,1606983623610796653,imu_link,0.001693719532340765,0.005624752026051283,-0.873802661895752,0.4862452447414398,0.0,0.0,0.0,0.0,0.0,0.0,0.0,0.0,0.0,-121.81269073486328,0.48300743103027344,-0.46885719895362854,0.0,0.0,0.0,0.0,0.0,0.0,0.0,0.0,0.0,0.00018130673561245203,-0.02086263708770275,0.06961406767368317,0.0,0.0,0.0,0.0,0.0,0.0,0.0,0.0,0.0
1606987225048302789,1022519,1606983623610883740,imu_link,0.001695157028734684,0.005623656325042248,-0.873797595500946,0.48625433444976807,0.0,0.0,0.0,0.0,0.0,0.0,0.0,0.0,0.0,-121.8115005493164,0.4830951988697052,-0.4686623811721802,0.0,0.0,0.0,0.0,0.0,0.0,0.0,0.0,0.0,0.011301007121801376,-0.021149003878235817,0.057882990688085556,0.0,0.0,0.0,0.0,0.0,0.0,0.0,0.0,0.0
1606987225048324303,1022520,1606983623611030103,imu_link,0.001695157028734684,0.005623656325042248,-0.873797595500946,0.48625433444976807,0.0,0.0,0.0,0.0,0.0,0.0,0.0,0.0,0.0,-121.8115005493164,0.4830951988697052,-0.4686623811721802,0.0,0.0,0.0,0.0,0.0,0.0,0.0,0.0,0.0,0.011301007121801376,-0.021149003878235817,0.057882990688085556,0.0,0.0,0.0,0.0,0.0,0.0,0.0,0.0,0.0
1606987225048337455,1022521,1606983623611118794,imu_link,0.0016963444650173187,0.005623493809252977,-0.8737972974777222,0.48625484108924866,0.0,0.0,0.0,0.0,0.0,0.0,0.0,0.0,0.0,-121.81143188476562,0.4832053482532501,-0.46857964992523193,0.0,0.0,0.0,0.0,0.0,0.0,0.0,0.0,0.0,0.008432550355792046,0.0010238726390525699,0.023220090195536613,0.0,0.0,0.0,0.0,0.0,0.0,0.0,0.0,0.0
1606987225048351471,1022522,1606983623611196017,imu_link,0.0016963444650173187,0.005623493809252977,-0.8737972974777222,0.48625484108924866,0.0,0.0,0.0,0.0,0.0,0.0,0.0,0.0,0.0,-121.81143188476562,0.4832053482532501,-0.46857964992523193,0.0,0.0,0.0,0.0,0.0,0.0,0.0,0.0,0.0,0.008432550355792046,0.0010238726390525699,0.023220090195536613,0.0,0.0,0.0,0.0,0.0,0.0,0.0,0.0,0.0
1606987225081415498,1022523,1606983623611287549,imu_link,0.0016966428374871612,0.005621534772217274,-0.8737996816635132,0.4862506091594696,0.0,0.0,0.0,0.0,0.0,0.0,0.0,0.0,0.0,-121.8119888305664,0.4831237494945526,-0.46836915612220764,0.0,0.0,0.0,0.0,0.0,0.0,0.0,0.0,0.0,0.007558150682598352,0.021662399172782898,0.0320785716176033,0.0,0.0,0.0,0.0,0.0,0.0,0.0,0.0,0.0
1606987225081459141,1022524,1606983623611364046,imu_link,0.0016966428374871612,0.005621534772217274,-0.8737996816635132,0.4862506091594696,0.0,0.0,0.0,0.0,0.0,0.0,0.0,0.0,0.0,-121.8119888305664,0.4831237494945526,-0.46836915612220764,0.0,0.0,0.0,0.0,0.0,0.0,0.0,0.0,0.0,0.007558150682598352,0.021662399172782898,0.0320785716176033,0.0,0.0,0.0,0.0,0.0,0.0,0.0,0.0,0.0
1606987225081500088,1022525,1606983623623724306,imu_link,0.0016976433107629418,0.005623844917863607,-0.8737995028495789,0.48625099658966064,0.0,0.0,0.0,0.0,0.0,0.0,0.0,0.0,0.0,-121.81193542480469,0.4833528697490692,-0.46854454278945923,0.0,0.0,0.0,0.0,0.0,0.0,0.0,0.0,0.0,0.004176033195108175,0.0003393540973775089,0.02590344101190567,0.0,0.0,0.0,0.0,0.0,0.0,0.0,0.0,0.0
1606987225081596786,1022526,1606983623623865709,imu_link,0.0016976433107629418,0.005623844917863607,-0.8737995028495789,0.48625099658966064,0.0,0.0,0.0,0.0,0.0,0.0,0.0,0.0,0.0,-121.81193542480469,0.4833528697490692,-0.46854454278945923,0.0,0.0,0.0,0.0,0.0,0.0,0.0,0.0,0.0,0.004176033195108175,0.0003393540973775089,0.02590344101190567,0.0,0.0,0.0,0.0,0.0,0.0,0.0,0.0,0.0
1606987225081647321,1022527,1606983623624044287,imu_link,0.0016991611337289214,0.005624749697744846,-0.8738025426864624,0.4862455129623413,0.0,0.0,0.0,0.0,0.0,0.0,0.0,0.0,0.0,-121.81266021728516,0.48355239629745483,-0.4685536324977875,0.0,0.0,0.0,0.0,0.0,0.0,0.0,0.0,0.0,0.008275942876935005,-0.006550406571477652,0.023056739941239357,0.0,0.0,0.0,0.0,0.0,0.0,0.0,0.0,0.0
1606987225081670166,1022528,1606983623624137352,imu_link,0.0016991611337289214,0.005624749697744846,-0.8738025426864624,0.4862455129623413,0.0,0.0,0.0,0.0,0.0,0.0,0.0,0.0,0.0,-121.81266021728516,0.48355239629745483,-0.4685536324977875,0.0,0.0,0.0,0.0,0.0,0.0,0.0,0.0,0.0,0.008275942876935005,-0.006550406571477652,0.023056739941239357,0.0,0.0,0.0,0.0,0.0,0.0,0.0,0.0,0.0
1606987225081694898,1022529,1606983623624223346,imu_link,0.0016988550778478384,0.005623111501336098,-0.873803436756134,0.48624387383461,0.0,0.0,0.0,0.0,0.0,0.0,0.0,0.0,0.0,-121.81288146972656,0.48342955112457275,-0.46840745210647583,0.0,0.0,0.0,0.0,0.0,0.0,0.0,0.0,0.0,0.007458298001438379,0.0015664083184674382,0.03158159181475639,0.0,0.0,0.0,0.0,0.0,0.0,0.0,0.0,0.0
1606987225081720547,1022530,1606983623624309626,imu_link,0.0016988550778478384,0.005623111501336098,-0.873803436756134,0.48624387383461,0.0,0.0,0.0,0.0,0.0,0.0,0.0,0.0,0.0,-121.81288146972656,0.48342955112457275,-0.46840745210647583,0.0,0.0,0.0,0.0,0.0,0.0,0.0,0.0,0.0,0.007458298001438379,0.0015664083184674382,0.03158159181475639,0.0,0.0,0.0,0.0,0.0,0.0,0.0,0.0,0.0
1606987225081755683,1022531,1606983623624412559,imu_link,0.0017006704583764076,0.0056245592422783375,-0.8738020062446594,0.4862464368343353,0.0,0.0,0.0,0.0,0.0,0.0,0.0,0.0,0.0,-121.81253814697266,0.48369336128234863,-0.4684498906135559,0.0,0.0,0.0,0.0,0.0,0.0,0.0,0.0,0.0,-0.007425996474921703,-0.012343868613243103,0.009460573084652424,0.0,0.0,0.0,0.0,0.0,0.0,0.0,0.0,0.0
1606987225180232448,1022532,1606983623624496338,imu_link,0.0017006704583764076,0.0056245592422783375,-0.8738020062446594,0.4862464368343353,0.0,0.0,0.0,0.0,0.0,0.0,0.0,0.0,0.0,-121.81253814697266,0.48369336128234863,-0.4684498906135559,0.0,0.0,0.0,0.0,0.0,0.0,0.0,0.0,0.0,-0.007425996474921703,-0.012343868613243103,0.009460573084652424,0.0,0.0,0.0,0.0,0.0,0.0,0.0,0.0,0.0
1606987225180253837,1022533,1606983623624576474,imu_link,0.001700604218058288,0.005624931771308184,-0.8738021850585938,0.48624610900878906,0.0,0.0,0.0,0.0,0.0,0.0,0.0,0.0,0.0,-121.81257629394531,0.48370736837387085,-0.4684910774230957,0.0,0.0,0.0,0.0,0.0,0.0,0.0,0.0,0.0,-0.010840601287782192,-0.011359273456037045,0.0006243634852580726,0.0,0.0,0.0,0.0,0.0,0.0,0.0,0.0,0.0
1606987225180279441,1022534,1606983623624654083,imu_link,0.001700604218058288,0.005624931771308184,-0.8738021850585938,0.48624610900878906,0.0,0.0,0.0,0.0,0.0,0.0,0.0,0.0,0.0,-121.81257629394531,0.48370736837387085,-0.4684910774230957,0.0,0.0,0.0,0.0,0.0,0.0,0.0,0.0,0.0,-0.010840601287782192,-0.011359273456037045,0.0006243634852580726,0.0,0.0,0.0,0.0,0.0,0.0,0.0,0.0,0.0
1606987225180293729,1022535,1606983623624736835,imu_link,0.001703533809632063,0.005622623022645712,-0.8738002777099609,0.48624950647354126,0.0,0.0,0.0,0.0,0.0,0.0,0.0,0.0,0.0,-121.81212615966797,0.4838739037513733,-0.4680948257446289,0.0,0.0,0.0,0.0,0.0,0.0,0.0,0.0,0.0,-0.006033220794051886,-0.000370301102520898,0.0060556791722774506,0.0,0.0,0.0,0.0,0.0,0.0,0.0,0.0,0.0
1606987225180303680,1022536,1606983623637713316,imu_link,0.001703533809632063,0.005622623022645712,-0.8738002777099609,0.48624950647354126,0.0,0.0,0.0,0.0,0.0,0.0,0.0,0.0,0.0,-121.81212615966797,0.4838739037513733,-0.4680948257446289,0.0,0.0,0.0,0.0,0.0,0.0,0.0,0.0,0.0,-0.006033220794051886,-0.000370301102520898,0.0060556791722774506,0.0,0.0,0.0,0.0,0.0,0.0,0.0,0.0,0.0
1606987225180317901,1022537,1606983623637858066,imu_link,0.0017023802502080798,0.005623750854283571,-0.8738002181053162,0.486249715089798,0.0,0.0,0.0,0.0,0.0,0.0,0.0,0.0,0.0,-121.8121109008789,0.4838213324546814,-0.468271940946579,0.0,0.0,0.0,0.0,0.0,0.0,0.0,0.0,0.0,-0.007785443682223558,-0.0009731279569678009,0.023651544004678726,0.0,0.0,0.0,0.0,0.0,0.0,0.0,0.0,0.0
1606987225180332068,1022538,1606983623638036850,imu_link,0.0017023802502080798,0.005623750854283571,-0.8738002181053162,0.486249715089798,0.0,0.0,0.0,0.0,0.0,0.0,0.0,0.0,0.0,-121.8121109008789,0.4838213324546814,-0.468271940946579,0.0,0.0,0.0,0.0,0.0,0.0,0.0,0.0,0.0,-0.007785443682223558,-0.0009731279569678009,0.023651544004678726,0.0,0.0,0.0,0.0,0.0,0.0,0.0,0.0,0.0
1606987225180345465,1022539,1606983623638127129,imu_link,0.0017035556957125664,0.0056222244165837765,-0.8738057613372803,0.4862397313117981,0.0,0.0,0.0,0.0,0.0,0.0,0.0,0.0,0.0,-121.81341552734375,0.48384860157966614,-0.46805906295776367,0.0,0.0,0.0,0.0,0.0,0.0,0.0,0.0,0.0,-0.006783124525099993,-0.006077704485505819,0.03693728893995285,0.0,0.0,0.0,0.0,0.0,0.0,0.0,0.0,0.0
1606987225184886983,1022540,1606983623638214256,imu_link,0.0017035556957125664,0.0056222244165837765,-0.8738057613372803,0.4862397313117981,0.0,0.0,0.0,0.0,0.0,0.0,0.0,0.0,0.0,-121.81341552734375,0.48384860157966614,-0.46805906295776367,0.0,0.0,0.0,0.0,0.0,0.0,0.0,0.0,0.0,-0.006783124525099993,-0.006077704485505819,0.03693728893995285,0.0,0.0,0.0,0.0,0.0,0.0,0.0,0.0,0.0
1606987225184912221,1022541,1606983623638301954,imu_link,0.0017016001511365175,0.005621408578008413,-0.8738061189651489,0.48623913526535034,0.0,0.0,0.0,0.0,0.0,0.0,0.0,0.0,0.0,-121.81349182128906,0.4836070239543915,-0.4680866599082947,0.0,0.0,0.0,0.0,0.0,0.0,0.0,0.0,0.0,-0.0032334730494767427,-0.004164841026067734,0.02372591383755207,0.0,0.0,0.0,0.0,0.0,0.0,0.0,0.0,0.0
1606987225184940727,1022542,1606983623638438520,imu_link,0.0017016001511365175,0.005621408578008413,-0.8738061189651489,0.48623913526535034,0.0,0.0,0.0,0.0,0.0,0.0,0.0,0.0,0.0,-121.81349182128906,0.4836070239543915,-0.4680866599082947,0.0,0.0,0.0,0.0,0.0,0.0,0.0,0.0,0.0,-0.0032334730494767427,-0.004164841026067734,0.02372591383755207,0.0,0.0,0.0,0.0,0.0,0.0,0.0,0.0,0.0
1606987225184955611,1022543,1606983623638536481,imu_link,0.001700194668956101,0.005622266326099634,-0.8738104104995728,0.4862311780452728,0.0,0.0,0.0,0.0,0.0,0.0,0.0,0.0,0.0,-121.81452941894531,0.4835098087787628,-0.4682553708553314,0.0,0.0,0.0,0.0,0.0,0.0,0.0,0.0,0.0,-0.0038771822582930326,-0.005856763105839491,0.026717599481344223,0.0,0.0,0.0,0.0,0.0,0.0,0.0,0.0,0.0
1606987225184963117,1022544,1606983623638614552,imu_link,0.001700194668956101,0.005622266326099634,-0.8738104104995728,0.4862311780452728,0.0,0.0,0.0,0.0,0.0,0.0,0.0,0.0,0.0,-121.81452941894531,0.4835098087787628,-0.4682553708553314,0.0,0.0,0.0,0.0,0.0,0.0,0.0,0.0,0.0,-0.0038771822582930326,-0.005856763105839491,0.026717599481344223,0.0,0.0,0.0,0.0,0.0,0.0,0.0,0.0,0.0
1606987225184992079,1022545,1606983623638728000,imu_link,0.0017006981652230024,0.005621686112135649,-0.8738104701042175,0.48623126745224,0.0,0.0,0.0,0.0,0.0,0.0,0.0,0.0,0.0,-121.81452941894531,0.4835279583930969,-0.4681691527366638,0.0,0.0,0.0,0.0,0.0,0.0,0.0,0.0,0.0,0.005462577100843191,-0.010100324638187885,0.02826676331460476,0.0,0.0,0.0,0.0,0.0,0.0,0.0,0.0,0.0
1606987225185028543,1022546,1606983623638887995,imu_link,0.0017006981652230024,0.005621686112135649,-0.8738104701042175,0.48623126745224,0.0,0.0,0.0,0.0,0.0,0.0,0.0,0.0,0.0,-121.81452941894531,0.4835279583930969,-0.4681691527366638,0.0,0.0,0.0,0.0,0.0,0.0,0.0,0.0,0.0,0.005462577100843191,-0.010100324638187885,0.02826676331460476,0.0,0.0,0.0,0.0,0.0,0.0,0.0,0.0,0.0
1606987225185036214,1022547,1606983623651047385,imu_link,0.0017027138965204358,0.005620155483484268,-0.8738096952438354,0.4862326383590698,0.0,0.0,0.0,0.0,0.0,0.0,0.0,0.0,0.0,-121.81433868408203,0.4836452305316925,-0.4679027795791626,0.0,0.0,0.0,0.0,0.0,0.0,0.0,0.0,0.0,0.008608466014266014,-0.0037900549359619617,0.008962050080299377,0.0,0.0,0.0,0.0,0.0,0.0,0.0,0.0,0.0
1606987225185048848,1022548,1606983623651172039,imu_link,0.0017027138965204358,0.005620155483484268,-0.8738096952438354,0.4862326383590698,0.0,0.0,0.0,0.0,0.0,0.0,0.0,0.0,0.0,-121.81433868408203,0.4836452305316925,-0.4679027795791626,0.0,0.0,0.0,0.0,0.0,0.0,0.0,0.0,0.0,0.008608466014266014,-0.0037900549359619617,0.008962050080299377,0.0,0.0,0.0,0.0,0.0,0.0,0.0,0.0,0.0
1606987225207649164,1022549,1606983623651328967,imu_link,0.0017029003938660026,0.005621148273348808,-0.8738102912902832,0.48623159527778625,0.0,0.0,0.0,0.0,0.0,0.0,0.0,0.0,0.0,-121.8144760131836,0.4837186634540558,-0.46799230575561523,0.0,0.0,0.0,0.0,0.0,0.0,0.0,0.0,0.0,0.0022488737013190985,0.004967643879354,-0.00042779743671417236,0.0,0.0,0.0,0.0,0.0,0.0,0.0,0.0,0.0
1606987225207670771,1022550,1606983623651418890,imu_link,0.0017029003938660026,0.005621148273348808,-0.8738102912902832,0.48623159527778625,0.0,0.0,0.0,0.0,0.0,0.0,0.0,0.0,0.0,-121.8144760131836,0.4837186634540558,-0.46799230575561523,0.0,0.0,0.0,0.0,0.0,0.0,0.0,0.0,0.0,0.0022488737013190985,0.004967643879354,-0.00042779743671417236,0.0,0.0,0.0,0.0,0.0,0.0,0.0,0.0,0.0
1606987225207685122,1022551,1606983623651505425,imu_link,0.00170097965747118,0.005622727330774069,-0.8738088011741638,0.48623430728912354,0.0,0.0,0.0,0.0,0.0,0.0,0.0,0.0,0.0,-121.81412506103516,0.48361578583717346,-0.46825602650642395,0.0,0.0,0.0,0.0,0.0,0.0,0.0,0.0,0.0,-0.00484893936663866,-0.0006939743761904538,0.007165581453591585,0.0,0.0,0.0,0.0,0.0,0.0,0.0,0.0,0.0
1606987225207694499,1022552,1606983623651607537,imu_link,0.00170097965747118,0.005622727330774069,-0.8738088011741638,0.48623430728912354,0.0,0.0,0.0,0.0,0.0,0.0,0.0,0.0,0.0,-121.81412506103516,0.48361578583717346,-0.46825602650642395,0.0,0.0,0.0,0.0,0.0,0.0,0.0,0.0,0.0,-0.00484893936663866,-0.0006939743761904538,0.007165581453591585,0.0,0.0,0.0,0.0,0.0,0.0,0.0,0.0,0.0
1606987225212797728,1022553,1606983623651690188,imu_link,0.0017019982915371656,0.005622522439807653,-0.8738098740577698,0.48623231053352356,0.0,0.0,0.0,0.0,0.0,0.0,0.0,0.0,0.0,-121.81439208984375,0.4837053120136261,-0.4681798219680786,0.0,0.0,0.0,0.0,0.0,0.0,0.0,0.0,0.0,-0.006202989723533392,-0.00020480940293055028,0.027283966541290283,0.0,0.0,0.0,0.0,0.0,0.0,0.0,0.0,0.0
1606987225212833681,1022554,1606983623651767006,imu_link,0.0017019982915371656,0.005622522439807653,-0.8738098740577698,0.48623231053352356,0.0,0.0,0.0,0.0,0.0,0.0,0.0,0.0,0.0,-121.81439208984375,0.4837053120136261,-0.4681798219680786,0.0,0.0,0.0,0.0,0.0,0.0,0.0,0.0,0.0,-0.006202989723533392,-0.00020480940293055028,0.027283966541290283,0.0,0.0,0.0,0.0,0.0,0.0,0.0,0.0,0.0
1606987225212840216,1022555,1606983623651846079,imu_link,0.001701320637948811,0.005623384844511747,-0.8738102316856384,0.4862317144870758,0.0,0.0,0.0,0.0,0.0,0.0,0.0,0.0,0.0,-121.81446075439453,0.483685165643692,-0.46830427646636963,0.0,0.0,0.0,0.0,0.0,0.0,0.0,0.0,0.0,-0.007414499297738075,0.007974425330758095,0.022064505144953728,0.0,0.0,0.0,0.0,0.0,0.0,0.0,0.0,0.0
1606987225212845288,1022556,1606983623651929151,imu_link,0.001701320637948811,0.005623384844511747,-0.8738102316856384,0.4862317144870758,0.0,0.0,0.0,0.0,0.0,0.0,0.0,0.0,0.0,-121.81446075439453,0.483685165643692,-0.46830427646636963,0.0,0.0,0.0,0.0,0.0,0.0,0.0,0.0,0.0,-0.007414499297738075,0.007974425330758095,0.022064505144953728,0.0,0.0,0.0,0.0,0.0,0.0,0.0,0.0,0.0
1606987225219297848,1022557,1606983623652014559,imu_link,0.001699857646599412,0.00562258018180728,-0.8738102316856384,0.48623165488243103,0.0,0.0,0.0,0.0,0.0,0.0,0.0,0.0,0.0,-121.8144760131836,0.4834938049316406,-0.46830523014068604,0.0,0.0,0.0,0.0,0.0,0.0,0.0,0.0,0.0,-0.011543848551809788,-0.0011419878574088216,0.02476106770336628,0.0,0.0,0.0,0.0,0.0,0.0,0.0,0.0,0.0
1606987225219326973,1022558,1606983623663985493,imu_link,0.001699857646599412,0.00562258018180728,-0.8738102316856384,0.48623165488243103,0.0,0.0,0.0,0.0,0.0,0.0,0.0,0.0,0.0,-121.8144760131836,0.4834938049316406,-0.46830523014068604,0.0,0.0,0.0,0.0,0.0,0.0,0.0,0.0,0.0,-0.011543848551809788,-0.0011419878574088216,0.02476106770336628,0.0,0.0,0.0,0.0,0.0,0.0,0.0,0.0,0.0
1606987225219356543,1022559,1606983623664127196,imu_link,0.0016980702057480812,0.005619981326162815,-0.873810350894928,0.4862314760684967,0.0,0.0,0.0,0.0,0.0,0.0,0.0,0.0,0.0,-121.81449127197266,0.4831698536872864,-0.4681447148323059,0.0,0.0,0.0,0.0,0.0,0.0,0.0,0.0,0.0,-0.009729934856295586,0.001865861122496426,0.03529024124145508,0.0,0.0,0.0,0.0,0.0,0.0,0.0,0.0,0.0
1606987225219373086,1022560,1606983623664312204,imu_link,0.0016980702057480812,0.005619981326162815,-0.873810350894928,0.4862314760684967,0.0,0.0,0.0,0.0,0.0,0.0,0.0,0.0,0.0,-121.81449127197266,0.4831698536872864,-0.4681447148323059,0.0,0.0,0.0,0.0,0.0,0.0,0.0,0.0,0.0,-0.009729934856295586,0.001865861122496426,0.03529024124145508,0.0,0.0,0.0,0.0,0.0,0.0,0.0,0.0,0.0
1606987225219385317,1022561,1606983623664413604,imu_link,0.0016975336475297809,0.0056222970597445965,-0.8738108277320862,0.4862305223941803,0.0,0.0,0.0,0.0,0.0,0.0,0.0,0.0,0.0,-121.81461334228516,0.4832446575164795,-0.4684069752693176,0.0,0.0,0.0,0.0,0.0,0.0,0.0,0.0,0.0,-0.0014532398199662566,0.0016684001311659813,0.03419487178325653,0.0,0.0,0.0,0.0,0.0,0.0,0.0,0.0,0.0
1606987225219423064,1022562,1606983623664499828,imu_link,0.0016975336475297809,0.0056222970597445965,-0.8738108277320862,0.4862305223941803,0.0,0.0,0.0,0.0,0.0,0.0,0.0,0.0,0.0,-121.81461334228516,0.4832446575164795,-0.4684069752693176,0.0,0.0,0.0,0.0,0.0,0.0,0.0,0.0,0.0,-0.0014532398199662566,0.0016684001311659813,0.03419487178325653,0.0,0.0,0.0,0.0,0.0,0.0,0.0,0.0,0.0
1606987225219433157,1022563,1606983623664606661,imu_link,0.0016972980229184031,0.005622435361146927,-0.8738098740577698,0.4862322211265564,0.0,0.0,0.0,0.0,0.0,0.0,0.0,0.0,0.0,-121.81439208984375,0.4832296669483185,-0.4684330224990845,0.0,0.0,0.0,0.0,0.0,0.0,0.0,0.0,0.0,0.0055595082230865955,-0.004490422550588846,0.03895806148648262,0.0,0.0,0.0,0.0,0.0,0.0,0.0,0.0,0.0
1606987225219445938,1022564,1606983623664685603,imu_link,0.0016972980229184031,0.005622435361146927,-0.8738098740577698,0.4862322211265564,0.0,0.0,0.0,0.0,0.0,0.0,0.0,0.0,0.0,-121.81439208984375,0.4832296669483185,-0.4684330224990845,0.0,0.0,0.0,0.0,0.0,0.0,0.0,0.0,0.0,0.0055595082230865955,-0.004490422550588846,0.03895806148648262,0.0,0.0,0.0,0.0,0.0,0.0,0.0,0.0,0.0
1606987225219495158,1022565,1606983623664770274,imu_link,0.0016995841870084405,0.005622279364615679,-0.8738090991973877,0.48623359203338623,0.0,0.0,0.0,0.0,0.0,0.0,0.0,0.0,0.0,-121.81421661376953,0.48345068097114563,-0.46828925609588623,0.0,0.0,0.0,0.0,0.0,0.0,0.0,0.0,0.0,-0.015342803671956062,-0.003257173113524914,0.04545462504029274,0.0,0.0,0.0,0.0,0.0,0.0,0.0,0.0,0.0
1606987225280537686,1022566,1606983623664851011,imu_link,0.0016995841870084405,0.005622279364615679,-0.8738090991973877,0.48623359203338623,0.0,0.0,0.0,0.0,0.0,0.0,0.0,0.0,0.0,-121.81421661376953,0.48345068097114563,-0.46828925609588623,0.0,0.0,0.0,0.0,0.0,0.0,0.0,0.0,0.0,-0.015342803671956062,-0.003257173113524914,0.04545462504029274,0.0,0.0,0.0,0.0,0.0,0.0,0.0,0.0,0.0
1606987225280564525,1022567,1606983623664926370,imu_link,0.0016969452844932675,0.005621158052235842,-0.8738083243370056,0.48623520135879517,0.0,0.0,0.0,0.0,0.0,0.0,0.0,0.0,0.0,-121.81401062011719,0.48312482237815857,-0.46832314133644104,0.0,0.0,0.0,0.0,0.0,0.0,0.0,0.0,0.0,-0.03072143904864788,-0.0032733697444200516,0.05412887781858444,0.0,0.0,0.0,0.0,0.0,0.0,0.0,0.0,0.0
1606987225280600880,1022568,1606983623677844076,imu_link,0.0016969452844932675,0.005621158052235842,-0.8738083243370056,0.48623520135879517,0.0,0.0,0.0,0.0,0.0,0.0,0.0,0.0,0.0,-121.81401062011719,0.48312482237815857,-0.46832314133644104,0.0,0.0,0.0,0.0,0.0,0.0,0.0,0.0,0.0,-0.03072143904864788,-0.0032733697444200516,0.05412887781858444,0.0,0.0,0.0,0.0,0.0,0.0,0.0,0.0,0.0
1606987225280624348,1022569,1606983623677985799,imu_link,0.001698774634860456,0.0056198835372924805,-0.8738082051277161,0.48623526096343994,0.0,0.0,0.0,0.0,0.0,0.0,0.0,0.0,0.0,-121.81400299072266,0.48323702812194824,-0.46809354424476624,0.0,0.0,0.0,0.0,0.0,0.0,0.0,0.0,0.0,-0.0149101996794343,5.7271739933639765e-05,0.05580584332346916,0.0,0.0,0.0,0.0,0.0,0.0,0.0,0.0,0.0
1606987225280738358,1022570,1606983623678144737,imu_link,0.001698774634860456,0.0056198835372924805,-0.8738082051277161,0.48623526096343994,0.0,0.0,0.0,0.0,0.0,0.0,0.0,0.0,0.0,-121.81400299072266,0.48323702812194824,-0.46809354424476624,0.0,0.0,0.0,0.0,0.0,0.0,0.0,0.0,0.0,-0.0149101996794343,5.7271739933639765e-05,0.05580584332346916,0.0,0.0,0.0,0.0,0.0,0.0,0.0,0.0,0.0
1606987225280758748,1022571,1606983623678248768,imu_link,0.0016983625246211886,0.005617811344563961,-0.8738093972206116,0.486233115196228,0.0,0.0,0.0,0.0,0.0,0.0,0.0,0.0,0.0,-121.81427001953125,0.48307913541793823,-0.46791020035743713,0.0,0.0,0.0,0.0,0.0,0.0,0.0,0.0,0.0,-0.004775334615260363,-0.0016256216913461685,0.03957054018974304,0.0,0.0,0.0,0.0,0.0,0.0,0.0,0.0,0.0
1606987225337199686,1022572,1606983623678327825,imu_link,0.0016983625246211886,0.005617811344563961,-0.8738093972206116,0.486233115196228,0.0,0.0,0.0,0.0,0.0,0.0,0.0,0.0,0.0,-121.81427001953125,0.48307913541793823,-0.46791020035743713,0.0,0.0,0.0,0.0,0.0,0.0,0.0,0.0,0.0,-0.004775334615260363,-0.0016256216913461685,0.03957054018974304,0.0,0.0,0.0,0.0,0.0,0.0,0.0,0.0,0.0
1606987225337239152,1022573,1606983623678412090,imu_link,0.0016977246850728989,0.005617260001599789,-0.8738102316856384,0.4862316846847534,0.0,0.0,0.0,0.0,0.0,0.0,0.0,0.0,0.0,-121.81446075439453,0.4829837679862976,-0.46789130568504333,0.0,0.0,0.0,0.0,0.0,0.0,0.0,0.0,0.0,-0.012068511918187141,-0.0045205382630229,0.031483545899391174,0.0,0.0,0.0,0.0,0.0,0.0,0.0,0.0,0.0
1606987225337250303,1022574,1606983623678509686,imu_link,0.0016977246850728989,0.005617260001599789,-0.8738102316856384,0.4862316846847534,0.0,0.0,0.0,0.0,0.0,0.0,0.0,0.0,0.0,-121.81446075439453,0.4829837679862976,-0.46789130568504333,0.0,0.0,0.0,0.0,0.0,0.0,0.0,0.0,0.0,-0.012068511918187141,-0.0045205382630229,0.031483545899391174,0.0,0.0,0.0,0.0,0.0,0.0,0.0,0.0,0.0
1606987225337280261,1022575,1606983623678590107,imu_link,0.001698130159638822,0.005616157315671444,-0.8738117814064026,0.48622894287109375,0.0,0.0,0.0,0.0,0.0,0.0,0.0,0.0,0.0,-121.8148193359375,0.4829614758491516,-0.4677598178386688,0.0,0.0,0.0,0.0,0.0,0.0,0.0,0.0,0.0,0.0029966470319777727,-0.0020064273849129677,0.043684449046850204,0.0,0.0,0.0,0.0,0.0,0.0,0.0,0.0,0.0
1606987225339115595,1022576,1606983623678677405,imu_link,0.001698130159638822,0.005616157315671444,-0.8738117814064026,0.48622894287109375,0.0,0.0,0.0,0.0,0.0,0.0,0.0,0.0,0.0,-121.8148193359375,0.4829614758491516,-0.4677598178386688,0.0,0.0,0.0,0.0,0.0,0.0,0.0,0.0,0.0,0.0029966470319777727,-0.0020064273849129677,0.043684449046850204,0.0,0.0,0.0,0.0,0.0,0.0,0.0,0.0,0.0
1606987225339159677,1022577,1606983623678761479,imu_link,0.0016962636727839708,0.0056143044494092464,-0.8738120198249817,0.4862285554409027,0.0,0.0,0.0,0.0,0.0,0.0,0.0,0.0,0.0,-121.81487274169922,0.4826711416244507,-0.4676784873008728,0.0,0.0,0.0,0.0,0.0,0.0,0.0,0.0,0.0,0.011732412502169609,0.0019185307901352644,0.0351310633122921,0.0,0.0,0.0,0.0,0.0,0.0,0.0,0.0,0.0
1606987225339181015,1022578,1606983623678842141,imu_link,0.0016962636727839708,0.0056143044494092464,-0.8738120198249817,0.4862285554409027,0.0,0.0,0.0,0.0,0.0,0.0,0.0,0.0,0.0,-121.81487274169922,0.4826711416244507,-0.4676784873008728,0.0,0.0,0.0,0.0,0.0,0.0,0.0,0.0,0.0,0.011732412502169609,0.0019185307901352644,0.0351310633122921,0.0,0.0,0.0,0.0,0.0,0.0,0.0,0.0,0.0
1606987225339250710,1022579,1606983623691210089,imu_link,0.0016980405198410153,0.005616576410830021,-0.8738142848014832,0.4862244725227356,0.0,0.0,0.0,0.0,0.0,0.0,0.0,0.0,0.0,-121.81542205810547,0.48297348618507385,-0.4678092300891876,0.0,0.0,0.0,0.0,0.0,0.0,0.0,0.0,0.0,0.0015225799288600683,0.007498394697904587,0.04053838923573494,0.0,0.0,0.0,0.0,0.0,0.0,0.0,0.0,0.0
1606987225380444850,1022580,1606983623691355440,imu_link,0.0016980405198410153,0.005616576410830021,-0.8738142848014832,0.4862244725227356,0.0,0.0,0.0,0.0,0.0,0.0,0.0,0.0,0.0,-121.81542205810547,0.48297348618507385,-0.4678092300891876,0.0,0.0,0.0,0.0,0.0,0.0,0.0,0.0,0.0,0.0015225799288600683,0.007498394697904587,0.04053838923573494,0.0,0.0,0.0,0.0,0.0,0.0,0.0,0.0,0.0
1606987225380465312,1022581,1606983623691547289,imu_link,0.0016997241182252765,0.005616535432636738,-0.8738129734992981,0.48622679710388184,0.0,0.0,0.0,0.0,0.0,0.0,0.0,0.0,0.0,-121.81510925292969,0.4831409752368927,-0.46771004796028137,0.0,0.0,0.0,0.0,0.0,0.0,0.0,0.0,0.0,0.0022521193604916334,0.004094396717846394,0.0427885502576828,0.0,0.0,0.0,0.0,0.0,0.0,0.0,0.0,0.0
1606987225380497275,1022582,1606983623691638676,imu_link,0.0016997241182252765,0.005616535432636738,-0.8738129734992981,0.48622679710388184,0.0,0.0,0.0,0.0,0.0,0.0,0.0,0.0,0.0,-121.81510925292969,0.4831409752368927,-0.46771004796028137,0.0,0.0,0.0,0.0,0.0,0.0,0.0,0.0,0.0,0.0022521193604916334,0.004094396717846394,0.0427885502576828,0.0,0.0,0.0,0.0,0.0,0.0,0.0,0.0,0.0
1606987225380522978,1022583,1606983623691711945,imu_link,0.0017016887431964278,0.0056166755966842175,-0.8738145232200623,0.4862239360809326,0.0,0.0,0.0,0.0,0.0,0.0,0.0,0.0,0.0,-121.81549072265625,0.48334401845932007,-0.46761617064476013,0.0,0.0,0.0,0.0,0.0,0.0,0.0,0.0,0.0,0.008887674659490585,-0.004225260578095913,0.02667463943362236,0.0,0.0,0.0,0.0,0.0,0.0,0.0,0.0,0.0
1606987225380530849,1022584,1606983623691795459,imu_link,0.0017016887431964278,0.0056166755966842175,-0.8738145232200623,0.4862239360809326,0.0,0.0,0.0,0.0,0.0,0.0,0.0,0.0,0.0,-121.81549072265625,0.48334401845932007,-0.46761617064476013,0.0,0.0,0.0,0.0,0.0,0.0,0.0,0.0,0.0,0.008887674659490585,-0.004225260578095913,0.02667463943362236,0.0,0.0,0.0,0.0,0.0,0.0,0.0,0.0,0.0
1606987225384792347,1022585,1606983623691903228,imu_link,0.0017017427599057555,0.0056160083040595055,-0.8738159537315369,0.48622140288352966,0.0,0.0,0.0,0.0,0.0,0.0,0.0,0.0,0.0,-121.8158187866211,0.4833108186721802,-0.46754777431488037,0.0,0.0,0.0,0.0,0.0,0.0,0.0,0.0,0.0,0.008841807954013348,-0.009891035035252571,0.02739577740430832,0.0,0.0,0.0,0.0,0.0,0.0,0.0,0.0,0.0
1606987225384814185,1022586,1606983623691984030,imu_link,0.0017017427599057555,0.0056160083040595055,-0.8738159537315369,0.48622140288352966,0.0,0.0,0.0,0.0,0.0,0.0,0.0,0.0,0.0,-121.8158187866211,0.4833108186721802,-0.46754777431488037,0.0,0.0,0.0,0.0,0.0,0.0,0.0,0.0,0.0,0.008841807954013348,-0.009891035035252571,0.02739577740430832,0.0,0.0,0.0,0.0,0.0,0.0,0.0,0.0,0.0
1606987225384828632,1022587,1606983623692147308,imu_link,0.0017026097048074007,0.005615811794996262,-0.8738152384757996,0.4862227439880371,0.0,0.0,0.0,0.0,0.0,0.0,0.0,0.0,0.0,-121.81563568115234,0.48338747024536133,-0.46747907996177673,0.0,0.0,0.0,0.0,0.0,0.0,0.0,0.0,0.0,0.00640575448051095,-0.012675618752837181,0.014288198202848434,0.0,0.0,0.0,0.0,0.0,0.0,0.0,0.0,0.0
1606987225384844482,1022588,1606983623692229648,imu_link,0.0017026097048074007,0.005615811794996262,-0.8738152384757996,0.4862227439880371,0.0,0.0,0.0,0.0,0.0,0.0,0.0,0.0,0.0,-121.81563568115234,0.48338747024536133,-0.46747907996177673,0.0,0.0,0.0,0.0,0.0,0.0,0.0,0.0,0.0,0.00640575448051095,-0.012675618752837181,0.014288198202848434,0.0,0.0,0.0,0.0,0.0,0.0,0.0,0.0,0.0
1606987225398931220,1022589,1606983623692318359,imu_link,0.0017032284522429109,0.005617597606033087,-0.8738160133361816,0.4862213730812073,0.0,0.0,0.0,0.0,0.0,0.0,0.0,0.0,0.0,-121.81582641601562,0.48354822397232056,-0.46762412786483765,0.0,0.0,0.0,0.0,0.0,0.0,0.0,0.0,0.0,0.0013671239139512181,-0.008244656026363373,-0.0004744443576782942,0.0,0.0,0.0,0.0,0.0,0.0,0.0,0.0,0.0
