%time,field.header.seq,field.header.stamp,field.header.frame_id,field.orientation.x,field.orientation.y,field.orientation.z,field.orientation.w,field.orientation_covariance0,field.orientation_covariance1,field.orientation_covariance2,field.orientation_covariance3,field.orientation_covariance4,field.orientation_covariance5,field.orientation_covariance6,field.orientation_covariance7,field.orientation_covariance8,field.angular_velocity.x,field.angular_velocity.y,field.angular_velocity.z,field.angular_velocity_covariance0,field.angular_velocity_covariance1,field.angular_velocity_covariance2,field.angular_velocity_covariance3,field.angular_velocity_covariance4,field.angular_velocity_covariance5,field.angular_velocity_covariance6,field.angular_velocity_covariance7,field.angular_velocity_covariance8,field.linear_acceleration.x,field.linear_acceleration.y,field.linear_acceleration.z,field.linear_acceleration_covariance0,field.linear_acceleration_covariance1,field.linear_acceleration_covariance2,field.linear_acceleration_covariance3,field.linear_acceleration_covariance4,field.linear_acceleration_covariance5,field.linear_acceleration_covariance6,field.linear_acceleration_covariance7,field.linear_acceleration_covariance8
1606986616555008747,536333,1606983015876187276,imu_link,0.0035149469040334225,0.009166634641587734,0.5306255221366882,0.847549557685852,0.0,0.0,0.0,0.0,0.0,0.0,0.0,0.0,0.0,64.10420989990234,0.6765707731246948,0.8988572359085083,0.0,0.0,0.0,0.0,0.0,0.0,0.0,0.0,0.0,0.015972236171364784,0.0023722483310848475,0.0050408970564603806,0.0,0.0,0.0,0.0,0.0,0.0,0.0,0.0,0.0
1606986616555040482,536334,1606983015876323957,imu_link,0.0035149469040334225,0.009166634641587734,0.5306255221366882,0.847549557685852,0.0,0.0,0.0,0.0,0.0,0.0,0.0,0.0,0.0,64.10420989990234,0.6765707731246948,0.8988572359085083,0.0,0.0,0.0,0.0,0.0,0.0,0.0,0.0,0.0,0.015972236171364784,0.0023722483310848475,0.0050408970564603806,0.0,0.0,0.0,0.0,0.0,0.0,0.0,0.0,0.0
1606986616555055911,536335,1606983015876525985,imu_link,0.003512789960950613,0.009166966192424297,0.530619204044342,0.8475534915924072,0.0,0.0,0.0,0.0,0.0,0.0,0.0,0.0,0.0,64.10336303710938,0.676740825176239,0.8986628651618958,0.0,0.0,0.0,0.0,0.0,0.0,0.0,0.0,0.0,0.013043997809290886,0.017161311581730843,0.007062685210257769,0.0,0.0,0.0,0.0,0.0,0.0,0.0,0.0,0.0
1606986616555081497,536336,1606983015876620684,imu_link,0.003512789960950613,0.009166966192424297,0.530619204044342,0.8475534915924072,0.0,0.0,0.0,0.0,0.0,0.0,0.0,0.0,0.0,64.10336303710938,0.676740825176239,0.8986628651618958,0.0,0.0,0.0,0.0,0.0,0.0,0.0,0.0,0.0,0.013043997809290886,0.017161311581730843,0.007062685210257769,0.0,0.0,0.0,0.0,0.0,0.0,0.0,0.0,0.0
1606986616558953530,536337,1606983015876787240,imu_link,0.0035145729780197144,0.009167210198938847,0.5306175351142883,0.8475545644760132,0.0,0.0,0.0,0.0,0.0,0.0,0.0,0.0,0.0,64.10314178466797,0.6766579151153564,0.8988496661186218,0.0,0.0,0.0,0.0,0.0,0.0,0.0,0.0,0.0,0.0036003878340125084,0.018210669979453087,0.019963352009654045,0.0,0.0,0.0,0.0,0.0,0.0,0.0,0.0,0.0
1606986616558983631,536338,1606983015876872056,imu_link,0.0035145729780197144,0.009167210198938847,0.5306175351142883,0.8475545644760132,0.0,0.0,0.0,0.0,0.0,0.0,0.0,0.0,0.0,64.10314178466797,0.6766579151153564,0.8988496661186218,0.0,0.0,0.0,0.0,0.0,0.0,0.0,0.0,0.0,0.0036003878340125084,0.018210669979453087,0.019963352009654045,0.0,0.0,0.0,0.0,0.0,0.0,0.0,0.0,0.0
1606986616558996290,536339,1606983015876968710,imu_link,0.0035109014715999365,0.009164191782474518,0.5306183099746704,0.847554087638855,0.0,0.0,0.0,0.0,0.0,0.0,0.0,0.0,0.0,64.10323333740234,0.6765871644020081,0.8983100652694702,0.0,0.0,0.0,0.0,0.0,0.0,0.0,0.0,0.0,0.0010333157842978835,7.164530688896775e-05,0.03595435991883278,0.0,0.0,0.0,0.0,0.0,0.0,0.0,0.0,0.0
1606986616559006720,536340,1606983015877049527,imu_link,0.0035109014715999365,0.009164191782474518,0.5306183099746704,0.847554087638855,0.0,0.0,0.0,0.0,0.0,0.0,0.0,0.0,0.0,64.10323333740234,0.6765871644020081,0.8983100652694702,0.0,0.0,0.0,0.0,0.0,0.0,0.0,0.0,0.0,0.0010333157842978835,7.164530688896775e-05,0.03595435991883278,0.0,0.0,0.0,0.0,0.0,0.0,0.0,0.0,0.0
1606986616633238918,536341,1606983015877209161,imu_link,0.003512002993375063,0.00916456151753664,0.5306201577186584,0.8475529551506042,0.0,0.0,0.0,0.0,0.0,0.0,0.0,0.0,0.0,64.10348510742188,0.6765540838241577,0.8984410166740417,0.0,0.0,0.0,0.0,0.0,0.0,0.0,0.0,0.0,0.0021079671569168568,-0.012854807078838348,0.04398567974567413,0.0,0.0,0.0,0.0,0.0,0.0,0.0,0.0,0.0
1606986616633255109,536342,1606983015877291762,imu_link,0.003512002993375063,0.00916456151753664,0.5306201577186584,0.8475529551506042,0.0,0.0,0.0,0.0,0.0,0.0,0.0,0.0,0.0,64.10348510742188,0.6765540838241577,0.8984410166740417,0.0,0.0,0.0,0.0,0.0,0.0,0.0,0.0,0.0,0.0021079671569168568,-0.012854807078838348,0.04398567974567413,0.0,0.0,0.0,0.0,0.0,0.0,0.0,0.0,0.0
1606986616633286249,536343,1606983015877379490,imu_link,0.003513655625283718,0.009166591800749302,0.5306169986724854,0.8475548624992371,0.0,0.0,0.0,0.0,0.0,0.0,0.0,0.0,0.0,64.10307312011719,0.6766541004180908,0.8987224102020264,0.0,0.0,0.0,0.0,0.0,0.0,0.0,0.0,0.0,0.003960563335567713,-0.008372465148568153,0.04415765777230263,0.0,0.0,0.0,0.0,0.0,0.0,0.0,0.0,0.0
1606986616633300274,536344,1606983015890090061,imu_link,0.003513655625283718,0.009166591800749302,0.5306169986724854,0.8475548624992371,0.0,0.0,0.0,0.0,0.0,0.0,0.0,0.0,0.0,64.10307312011719,0.6766541004180908,0.8987224102020264,0.0,0.0,0.0,0.0,0.0,0.0,0.0,0.0,0.0,0.003960563335567713,-0.008372465148568153,0.04415765777230263,0.0,0.0,0.0,0.0,0.0,0.0,0.0,0.0,0.0
1606986616633312040,536345,1606983015890227745,imu_link,0.003515041433274746,0.009165147319436073,0.5306177735328674,0.8475543856620789,0.0,0.0,0.0,0.0,0.0,0.0,0.0,0.0,0.0,64.10316467285156,0.6764287352561951,0.898769736289978,0.0,0.0,0.0,0.0,0.0,0.0,0.0,0.0,0.0,0.008323880843818188,0.0028312373906373978,0.0191787276417017,0.0,0.0,0.0,0.0,0.0,0.0,0.0,0.0,0.0
1606986616661518228,536346,1606983015890425202,imu_link,0.003515041433274746,0.009165147319436073,0.5306177735328674,0.8475543856620789,0.0,0.0,0.0,0.0,0.0,0.0,0.0,0.0,0.0,64.10316467285156,0.6764287352561951,0.898769736289978,0.0,0.0,0.0,0.0,0.0,0.0,0.0,0.0,0.0,0.008323880843818188,0.0028312373906373978,0.0191787276417017,0.0,0.0,0.0,0.0,0.0,0.0,0.0,0.0,0.0
1606986616661592005,536347,1606983015890519385,imu_link,0.0035146460868418217,0.009164951741695404,0.5306212902069092,0.8475521802902222,0.0,0.0,0.0,0.0,0.0,0.0,0.0,0.0,0.0,64.10364532470703,0.6764299869537354,0.8987223505973816,0.0,0.0,0.0,0.0,0.0,0.0,0.0,0.0,0.0,0.02223075181245804,-0.004383127670735121,0.008350342512130737,0.0,0.0,0.0,0.0,0.0,0.0,0.0,0.0,0.0
1606986616661606349,536348,1606983015890609263,imu_link,0.0035146460868418217,0.009164951741695404,0.5306212902069092,0.8475521802902222,0.0,0.0,0.0,0.0,0.0,0.0,0.0,0.0,0.0,64.10364532470703,0.6764299869537354,0.8987223505973816,0.0,0.0,0.0,0.0,0.0,0.0,0.0,0.0,0.0,0.02223075181245804,-0.004383127670735121,0.008350342512130737,0.0,0.0,0.0,0.0,0.0,0.0,0.0,0.0,0.0
1606986616661617123,536349,1606983015890691969,imu_link,0.0035138626117259264,0.009166105650365353,0.5306211113929749,0.8475522994995117,0.0,0.0,0.0,0.0,0.0,0.0,0.0,0.0,0.0,64.1036148071289,0.6765899658203125,0.898716151714325,0.0,0.0,0.0,0.0,0.0,0.0,0.0,0.0,0.0,0.02256838232278824,-0.01417002733796835,0.009592454880475998,0.0,0.0,0.0,0.0,0.0,0.0,0.0,0.0,0.0
1606986616665150313,536350,1606983015890800004,imu_link,0.0035138626117259264,0.009166105650365353,0.5306211113929749,0.8475522994995117,0.0,0.0,0.0,0.0,0.0,0.0,0.0,0.0,0.0,64.1036148071289,0.6765899658203125,0.898716151714325,0.0,0.0,0.0,0.0,0.0,0.0,0.0,0.0,0.0,0.02256838232278824,-0.01417002733796835,0.009592454880475998,0.0,0.0,0.0,0.0,0.0,0.0,0.0,0.0,0.0
1606986616665174481,536351,1606983015890885572,imu_link,0.0035146584268659353,0.009170304983854294,0.5306258201599121,0.847549319267273,0.0,0.0,0.0,0.0,0.0,0.0,0.0,0.0,0.0,64.10425567626953,0.6769444346427917,0.8990528583526611,0.0,0.0,0.0,0.0,0.0,0.0,0.0,0.0,0.0,0.012505162507295609,-0.012249362654983997,0.01628946326673031,0.0,0.0,0.0,0.0,0.0,0.0,0.0,0.0,0.0
1606986616665185400,536352,1606983015891000523,imu_link,0.0035146584268659353,0.009170304983854294,0.5306258201599121,0.847549319267273,0.0,0.0,0.0,0.0,0.0,0.0,0.0,0.0,0.0,64.10425567626953,0.6769444346427917,0.8990528583526611,0.0,0.0,0.0,0.0,0.0,0.0,0.0,0.0,0.0,0.012505162507295609,-0.012249362654983997,0.01628946326673031,0.0,0.0,0.0,0.0,0.0,0.0,0.0,0.0,0.0
1606986616665194873,536353,1606983015891087304,imu_link,0.0035143569111824036,0.009171952493488789,0.5306268930435181,0.8475486636161804,0.0,0.0,0.0,0.0,0.0,0.0,0.0,0.0,0.0,64.10440826416016,0.6771215796470642,0.8991244435310364,0.0,0.0,0.0,0.0,0.0,0.0,0.0,0.0,0.0,0.013676482252776623,-0.0006434329552575946,0.02177092432975769,0.0,0.0,0.0,0.0,0.0,0.0,0.0,0.0,0.0
1606986616665237013,536354,1606983015891164423,imu_link,0.0035143569111824036,0.009171952493488789,0.5306268930435181,0.8475486636161804,0.0,0.0,0.0,0.0,0.0,0.0,0.0,0.0,0.0,64.10440826416016,0.6771215796470642,0.8991244435310364,0.0,0.0,0.0,0.0,0.0,0.0,0.0,0.0,0.0,0.013676482252776623,-0.0006434329552575946,0.02177092432975769,0.0,0.0,0.0,0.0,0.0,0.0,0.0,0.0,0.0
1606986616670675311,536355,1606983015903519195,imu_link,0.003512844443321228,0.009172767400741577,0.5306233167648315,0.8475508689880371,0.0,0.0,0.0,0.0,0.0,0.0,0.0,0.0,0.0,64.10392761230469,0.6772965788841248,0.8990244269371033,0.0,0.0,0.0,0.0,0.0,0.0,0.0,0.0,0.0,0.016403404995799065,0.017993392422795296,0.001744898036122322,0.0,0.0,0.0,0.0,0.0,0.0,0.0,0.0,0.0
1606986616670713646,536356,1606983015903656643,imu_link,0.003512844443321228,0.009172767400741577,0.5306233167648315,0.8475508689880371,0.0,0.0,0.0,0.0,0.0,0.0,0.0,0.0,0.0,64.10392761230469,0.6772965788841248,0.8990244269371033,0.0,0.0,0.0,0.0,0.0,0.0,0.0,0.0,0.0,0.016403404995799065,0.017993392422795296,0.001744898036122322,0.0,0.0,0.0,0.0,0.0,0.0,0.0,0.0,0.0
1606986616670742948,536357,1606983015903846949,imu_link,0.0035108188167214394,0.009170540608465672,0.5306248664855957,0.8475499749183655,0.0,0.0,0.0,0.0,0.0,0.0,0.0,0.0,0.0,64.1041259765625,0.6772018074989319,0.898693323135376,0.0,0.0,0.0,0.0,0.0,0.0,0.0,0.0,0.0,0.007205726578831673,0.00881650298833847,0.015130399726331234,0.0,0.0,0.0,0.0,0.0,0.0,0.0,0.0,0.0
1606986616670775661,536358,1606983015903935213,imu_link,0.0035108188167214394,0.009170540608465672,0.5306248664855957,0.8475499749183655,0.0,0.0,0.0,0.0,0.0,0.0,0.0,0.0,0.0,64.1041259765625,0.6772018074989319,0.898693323135376,0.0,0.0,0.0,0.0,0.0,0.0,0.0,0.0,0.0,0.007205726578831673,0.00881650298833847,0.015130399726331234,0.0,0.0,0.0,0.0,0.0,0.0,0.0,0.0,0.0
1606986616730600560,536359,1606983015904097218,imu_link,0.003510191570967436,0.009171055629849434,0.5306206345558167,0.8475525975227356,0.0,0.0,0.0,0.0,0.0,0.0,0.0,0.0,0.0,64.10356140136719,0.6772944927215576,0.8986603021621704,0.0,0.0,0.0,0.0,0.0,0.0,0.0,0.0,0.0,-0.00653177360072732,-0.016083989292383194,0.021102719008922577,0.0,0.0,0.0,0.0,0.0,0.0,0.0,0.0,0.0
1606986616730630345,536360,1606983015904202492,imu_link,0.003510191570967436,0.009171055629849434,0.5306206345558167,0.8475525975227356,0.0,0.0,0.0,0.0,0.0,0.0,0.0,0.0,0.0,64.10356140136719,0.6772944927215576,0.8986603021621704,0.0,0.0,0.0,0.0,0.0,0.0,0.0,0.0,0.0,-0.00653177360072732,-0.016083989292383194,0.021102719008922577,0.0,0.0,0.0,0.0,0.0,0.0,0.0,0.0,0.0
1606986616730658155,536361,1606983015904321287,imu_link,0.003508787602186203,0.009170766919851303,0.5306212306022644,0.8475521206855774,0.0,0.0,0.0,0.0,0.0,0.0,0.0,0.0,0.0,64.10365295410156,0.6773510575294495,0.8985071778297424,0.0,0.0,0.0,0.0,0.0,0.0,0.0,0.0,0.0,-0.020530598238110542,-0.021549390628933907,0.020374232903122902,0.0,0.0,0.0,0.0,0.0,0.0,0.0,0.0,0.0
1606986616730674033,536362,1606983015904443971,imu_link,0.003508787602186203,0.009170766919851303,0.5306212306022644,0.8475521206855774,0.0,0.0,0.0,0.0,0.0,0.0,0.0,0.0,0.0,64.10365295410156,0.6773510575294495,0.8985071778297424,0.0,0.0,0.0,0.0,0.0,0.0,0.0,0.0,0.0,-0.020530598238110542,-0.021549390628933907,0.020374232903122902,0.0,0.0,0.0,0.0,0.0,0.0,0.0,0.0,0.0
1606986616730687883,536363,1606983015904531233,imu_link,0.003514787880703807,0.009171209298074245,0.530616819858551,0.8475549221038818,0.0,0.0,0.0,0.0,0.0,0.0,0.0,0.0,0.0,64.1030502319336,0.6770339012145996,0.899113118648529,0.0,0.0,0.0,0.0,0.0,0.0,0.0,0.0,0.0,-0.009554162621498108,-0.002531093079596758,0.036920297890901566,0.0,0.0,0.0,0.0,0.0,0.0,0.0,0.0,0.0
1606986616734196937,536364,1606983015904652869,imu_link,0.003514787880703807,0.009171209298074245,0.530616819858551,0.8475549221038818,0.0,0.0,0.0,0.0,0.0,0.0,0.0,0.0,0.0,64.1030502319336,0.6770339012145996,0.899113118648529,0.0,0.0,0.0,0.0,0.0,0.0,0.0,0.0,0.0,-0.009554162621498108,-0.002531093079596758,0.036920297890901566,0.0,0.0,0.0,0.0,0.0,0.0,0.0,0.0,0.0
1606986616734212859,536365,1606983015904739309,imu_link,0.003516661934554577,0.009169773198664188,0.5306159257888794,0.8475555181503296,0.0,0.0,0.0,0.0,0.0,0.0,0.0,0.0,0.0,64.10292053222656,0.676781415939331,0.8992070555686951,0.0,0.0,0.0,0.0,0.0,0.0,0.0,0.0,0.0,0.01631161943078041,0.013343851082026958,0.021945858374238014,0.0,0.0,0.0,0.0,0.0,0.0,0.0,0.0,0.0
1606986616734230541,536366,1606983015916421911,imu_link,0.003516661934554577,0.009169773198664188,0.5306159257888794,0.8475555181503296,0.0,0.0,0.0,0.0,0.0,0.0,0.0,0.0,0.0,64.10292053222656,0.676781415939331,0.8992070555686951,0.0,0.0,0.0,0.0,0.0,0.0,0.0,0.0,0.0,0.01631161943078041,0.013343851082026958,0.021945858374238014,0.0,0.0,0.0,0.0,0.0,0.0,0.0,0.0,0.0
1606986616734241810,536367,1606983015916569152,imu_link,0.003512963652610779,0.009170940145850182,0.5306118130683899,0.8475580811500549,0.0,0.0,0.0,0.0,0.0,0.0,0.0,0.0,0.0,64.10236358642578,0.6771239638328552,0.898915708065033,0.0,0.0,0.0,0.0,0.0,0.0,0.0,0.0,0.0,0.024043573066592216,-0.0025214068591594696,0.026846742257475853,0.0,0.0,0.0,0.0,0.0,0.0,0.0,0.0,0.0
1606986616741652355,536368,1606983015916709281,imu_link,0.003512963652610779,0.009170940145850182,0.5306118130683899,0.8475580811500549,0.0,0.0,0.0,0.0,0.0,0.0,0.0,0.0,0.0,64.10236358642578,0.6771239638328552,0.898915708065033,0.0,0.0,0.0,0.0,0.0,0.0,0.0,0.0,0.0,0.024043573066592216,-0.0025214068591594696,0.026846742257475853,0.0,0.0,0.0,0.0,0.0,0.0,0.0,0.0,0.0
1606986616741680352,536369,1606983015916798402,imu_link,0.0035132986959069967,0.009169122204184532,0.5306127667427063,0.8475574851036072,0.0,0.0,0.0,0.0,0.0,0.0,0.0,0.0,0.0,64.10249328613281,0.6769260764122009,0.8988383412361145,0.0,0.0,0.0,0.0,0.0,0.0,0.0,0.0,0.0,0.02233339473605156,-0.00889273826032877,0.034963615238666534,0.0,0.0,0.0,0.0,0.0,0.0,0.0,0.0,0.0
1606986616741694162,536370,1606983015916876137,imu_link,0.0035132986959069967,0.009169122204184532,0.5306127667427063,0.8475574851036072,0.0,0.0,0.0,0.0,0.0,0.0,0.0,0.0,0.0,64.10249328613281,0.6769260764122009,0.8988383412361145,0.0,0.0,0.0,0.0,0.0,0.0,0.0,0.0,0.0,0.02233339473605156,-0.00889273826032877,0.034963615238666534,0.0,0.0,0.0,0.0,0.0,0.0,0.0,0.0,0.0
1606986616741726963,536371,1606983015916978770,imu_link,0.003512630006298423,0.009173485450446606,0.5306147336959839,0.8475562334060669,0.0,0.0,0.0,0.0,0.0,0.0,0.0,0.0,0.0,64.10276794433594,0.6773884296417236,0.8990404605865479,0.0,0.0,0.0,0.0,0.0,0.0,0.0,0.0,0.0,0.00024636861053295434,-0.00338781182654202,0.012101399712264538,0.0,0.0,0.0,0.0,0.0,0.0,0.0,0.0,0.0
1606986616741743239,536372,1606983015917065185,imu_link,0.003512630006298423,0.009173485450446606,0.5306147336959839,0.8475562334060669,0.0,0.0,0.0,0.0,0.0,0.0,0.0,0.0,0.0,64.10276794433594,0.6773884296417236,0.8990404605865479,0.0,0.0,0.0,0.0,0.0,0.0,0.0,0.0,0.0,0.00024636861053295434,-0.00338781182654202,0.012101399712264538,0.0,0.0,0.0,0.0,0.0,0.0,0.0,0.0,0.0
1606986616745926588,536373,1606983015917147365,imu_link,0.003511472837999463,0.009173172526061535,0.5306137204170227,0.8475568890571594,0.0,0.0,0.0,0.0,0.0,0.0,0.0,0.0,0.0,64.10263061523438,0.6774294972419739,0.8989081382751465,0.0,0.0,0.0,0.0,0.0,0.0,0.0,0.0,0.0,-0.010962160304188728,-0.017100760713219643,-0.008866694755852222,0.0,0.0,0.0,0.0,0.0,0.0,0.0,0.0,0.0
1606986616745949347,536374,1606983015917227987,imu_link,0.003511472837999463,0.009173172526061535,0.5306137204170227,0.8475568890571594,0.0,0.0,0.0,0.0,0.0,0.0,0.0,0.0,0.0,64.10263061523438,0.6774294972419739,0.8989081382751465,0.0,0.0,0.0,0.0,0.0,0.0,0.0,0.0,0.0,-0.010962160304188728,-0.017100760713219643,-0.008866694755852222,0.0,0.0,0.0,0.0,0.0,0.0,0.0,0.0,0.0
1606986616745961228,536375,1606983015917304990,imu_link,0.003514557844027877,0.00917600467801094,0.5306164622306824,0.8475550413131714,0.0,0.0,0.0,0.0,0.0,0.0,0.0,0.0,0.0,64.10301208496094,0.6775138974189758,0.8993824124336243,0.0,0.0,0.0,0.0,0.0,0.0,0.0,0.0,0.0,0.010006179101765156,-0.03108256496489048,-0.003367483848705888,0.0,0.0,0.0,0.0,0.0,0.0,0.0,0.0,0.0
1606986616745973961,536376,1606983015930241384,imu_link,0.003514557844027877,0.00917600467801094,0.5306164622306824,0.8475550413131714,0.0,0.0,0.0,0.0,0.0,0.0,0.0,0.0,0.0,64.10301208496094,0.6775138974189758,0.8993824124336243,0.0,0.0,0.0,0.0,0.0,0.0,0.0,0.0,0.0,0.010006179101765156,-0.03108256496489048,-0.003367483848705888,0.0,0.0,0.0,0.0,0.0,0.0,0.0,0.0,0.0
1606986616797038341,536377,1606983015930383127,imu_link,0.003514340380206704,0.009174942970275879,0.5306175947189331,0.8475544452667236,0.0,0.0,0.0,0.0,0.0,0.0,0.0,0.0,0.0,64.1031494140625,0.6774229407310486,0.8992974758148193,0.0,0.0,0.0,0.0,0.0,0.0,0.0,0.0,0.0,0.014902413822710514,-0.031243056058883667,0.02324066311120987,0.0,0.0,0.0,0.0,0.0,0.0,0.0,0.0,0.0
1606986616797086449,536378,1606983015930536662,imu_link,0.003514340380206704,0.009174942970275879,0.5306175947189331,0.8475544452667236,0.0,0.0,0.0,0.0,0.0,0.0,0.0,0.0,0.0,64.1031494140625,0.6774229407310486,0.8992974758148193,0.0,0.0,0.0,0.0,0.0,0.0,0.0,0.0,0.0,0.014902413822710514,-0.031243056058883667,0.02324066311120987,0.0,0.0,0.0,0.0,0.0,0.0,0.0,0.0,0.0
1606986616797098031,536379,1606983015930636047,imu_link,0.0035188067704439163,0.009180827997624874,0.5306141376495361,0.8475565314292908,0.0,0.0,0.0,0.0,0.0,0.0,0.0,0.0,0.0,64.10269927978516,0.6777265667915344,0.9000864624977112,0.0,0.0,0.0,0.0,0.0,0.0,0.0,0.0,0.0,-0.007365123834460974,-0.016213340684771538,0.032342202961444855,0.0,0.0,0.0,0.0,0.0,0.0,0.0,0.0,0.0
1606986616797109114,536380,1606983015930718954,imu_link,0.0035188067704439163,0.009180827997624874,0.5306141376495361,0.8475565314292908,0.0,0.0,0.0,0.0,0.0,0.0,0.0,0.0,0.0,64.10269927978516,0.6777265667915344,0.9000864624977112,0.0,0.0,0.0,0.0,0.0,0.0,0.0,0.0,0.0,-0.007365123834460974,-0.016213340684771538,0.032342202961444855,0.0,0.0,0.0,0.0,0.0,0.0,0.0,0.0,0.0
1606986616797124779,536381,1606983015930799851,imu_link,0.00351979723200202,0.009180963970720768,0.5306164026260376,0.8475551009178162,0.0,0.0,0.0,0.0,0.0,0.0,0.0,0.0,0.0,64.10301208496094,0.6776770949363708,0.9001927375793457,0.0,0.0,0.0,0.0,0.0,0.0,0.0,0.0,0.0,-0.014299201779067516,-0.0018249335698783398,0.0263176579028368,0.0,0.0,0.0,0.0,0.0,0.0,0.0,0.0,0.0
1606986616802731360,536382,1606983015930893733,imu_link,0.00351979723200202,0.009180963970720768,0.5306164026260376,0.8475551009178162,0.0,0.0,0.0,0.0,0.0,0.0,0.0,0.0,0.0,64.10301208496094,0.6776770949363708,0.9001927375793457,0.0,0.0,0.0,0.0,0.0,0.0,0.0,0.0,0.0,-0.014299201779067516,-0.0018249335698783398,0.0263176579028368,0.0,0.0,0.0,0.0,0.0,0.0,0.0,0.0,0.0
1606986616802757715,536383,1606983015931010604,imu_link,0.0035232198424637318,0.009180360473692417,0.5306156873703003,0.8475555777549744,0.0,0.0,0.0,0.0,0.0,0.0,0.0,0.0,0.0,64.1029052734375,0.6774111986160278,0.9004878401756287,0.0,0.0,0.0,0.0,0.0,0.0,0.0,0.0,0.0,-0.0024067808408290148,-0.007887064479291439,0.030629483982920647,0.0,0.0,0.0,0.0,0.0,0.0,0.0,0.0,0.0
1606986616802766120,536384,1606983015931094784,imu_link,0.0035232198424637318,0.009180360473692417,0.5306156873703003,0.8475555777549744,0.0,0.0,0.0,0.0,0.0,0.0,0.0,0.0,0.0,64.1029052734375,0.6774111986160278,0.9004878401756287,0.0,0.0,0.0,0.0,0.0,0.0,0.0,0.0,0.0,-0.0024067808408290148,-0.007887064479291439,0.030629483982920647,0.0,0.0,0.0,0.0,0.0,0.0,0.0,0.0,0.0
1606986616802777699,536385,1606983015931184216,imu_link,0.0035215297248214483,0.009177928790450096,0.5306146144866943,0.8475562334060669,0.0,0.0,0.0,0.0,0.0,0.0,0.0,0.0,0.0,64.1027603149414,0.6772788763046265,0.9001750349998474,0.0,0.0,0.0,0.0,0.0,0.0,0.0,0.0,0.0,-0.007330551743507385,-0.0158537644892931,0.012589302845299244,0.0,0.0,0.0,0.0,0.0,0.0,0.0,0.0,0.0
1606986616810305748,536386,1606983015931267263,imu_link,0.0035215297248214483,0.009177928790450096,0.5306146144866943,0.8475562334060669,0.0,0.0,0.0,0.0,0.0,0.0,0.0,0.0,0.0,64.1027603149414,0.6772788763046265,0.9001750349998474,0.0,0.0,0.0,0.0,0.0,0.0,0.0,0.0,0.0,-0.007330551743507385,-0.0158537644892931,0.012589302845299244,0.0,0.0,0.0,0.0,0.0,0.0,0.0,0.0,0.0
1606986616810370954,536387,1606983015943631487,imu_link,0.0035249388311058283,0.009178495965898037,0.5306191444396973,0.8475533723831177,0.0,0.0,0.0,0.0,0.0,0.0,0.0,0.0,0.0,64.10337829589844,0.6771218180656433,0.9005441665649414,0.0,0.0,0.0,0.0,0.0,0.0,0.0,0.0,0.0,-0.002621969673782587,-0.015335419215261936,-0.00881058070808649,0.0,0.0,0.0,0.0,0.0,0.0,0.0,0.0,0.0
1606986616810380934,536388,1606983015943771341,imu_link,0.0035249388311058283,0.009178495965898037,0.5306191444396973,0.8475533723831177,0.0,0.0,0.0,0.0,0.0,0.0,0.0,0.0,0.0,64.10337829589844,0.6771218180656433,0.9005441665649414,0.0,0.0,0.0,0.0,0.0,0.0,0.0,0.0,0.0,-0.002621969673782587,-0.015335419215261936,-0.00881058070808649,0.0,0.0,0.0,0.0,0.0,0.0,0.0,0.0,0.0
1606986616810395942,536389,1606983015943965220,imu_link,0.0035266422200948,0.009179042652249336,0.5306183099746704,0.8475539088249207,0.0,0.0,0.0,0.0,0.0,0.0,0.0,0.0,0.0,64.103271484375,0.6770721673965454,0.90074223279953,0.0,0.0,0.0,0.0,0.0,0.0,0.0,0.0,0.0,0.016642676666378975,-0.0050590382888913155,0.022281767800450325,0.0,0.0,0.0,0.0,0.0,0.0,0.0,0.0,0.0
1606986616810413840,536390,1606983015944051865,imu_link,0.0035266422200948,0.009179042652249336,0.5306183099746704,0.8475539088249207,0.0,0.0,0.0,0.0,0.0,0.0,0.0,0.0,0.0,64.103271484375,0.6770721673965454,0.90074223279953,0.0,0.0,0.0,0.0,0.0,0.0,0.0,0.0,0.0,0.016642676666378975,-0.0050590382888913155,0.022281767800450325,0.0,0.0,0.0,0.0,0.0,0.0,0.0,0.0,0.0
1606986616817208937,536391,1606983015944140250,imu_link,0.0035257996059954166,0.009182335808873177,0.5306228399276733,0.8475510478019714,0.0,0.0,0.0,0.0,0.0,0.0,0.0,0.0,0.0,64.1038818359375,0.677438497543335,0.9008642435073853,0.0,0.0,0.0,0.0,0.0,0.0,0.0,0.0,0.0,0.008429490961134434,0.003215459641069174,0.04850802198052406,0.0,0.0,0.0,0.0,0.0,0.0,0.0,0.0,0.0
1606986616817239019,536392,1606983015944221252,imu_link,0.0035257996059954166,0.009182335808873177,0.5306228399276733,0.8475510478019714,0.0,0.0,0.0,0.0,0.0,0.0,0.0,0.0,0.0,64.1038818359375,0.677438497543335,0.9008642435073853,0.0,0.0,0.0,0.0,0.0,0.0,0.0,0.0,0.0,0.008429490961134434,0.003215459641069174,0.04850802198052406,0.0,0.0,0.0,0.0,0.0,0.0,0.0,0.0,0.0
1606986616817254658,536393,1606983015944334088,imu_link,0.0035265942569822073,0.009181804955005646,0.5306254625320435,0.8475494384765625,0.0,0.0,0.0,0.0,0.0,0.0,0.0,0.0,0.0,64.10424041748047,0.6773358583450317,0.900911271572113,0.0,0.0,0.0,0.0,0.0,0.0,0.0,0.0,0.0,0.0007518042111769319,0.007520911283791065,0.03445751592516899,0.0,0.0,0.0,0.0,0.0,0.0,0.0,0.0,0.0
1606986616817273141,536394,1606983015944417536,imu_link,0.0035265942569822073,0.009181804955005646,0.5306254625320435,0.8475494384765625,0.0,0.0,0.0,0.0,0.0,0.0,0.0,0.0,0.0,64.10424041748047,0.6773358583450317,0.900911271572113,0.0,0.0,0.0,0.0,0.0,0.0,0.0,0.0,0.0,0.0007518042111769319,0.007520911283791065,0.03445751592516899,0.0,0.0,0.0,0.0,0.0,0.0,0.0,0.0,0.0
1606986616924402107,536395,1606983015944582899,imu_link,0.0035268948413431644,0.009180611930787563,0.5306228399276733,0.8475509881973267,0.0,0.0,0.0,0.0,0.0,0.0,0.0,0.0,0.0,64.1038818359375,0.6772043704986572,0.900865912437439,0.0,0.0,0.0,0.0,0.0,0.0,0.0,0.0,0.0,0.005514266900718212,0.007623498793691397,0.011718791909515858,0.0,0.0,0.0,0.0,0.0,0.0,0.0,0.0,0.0
1606986616924432476,536396,1606983015944666137,imu_link,0.0035268948413431644,0.009180611930787563,0.5306228399276733,0.8475509881973267,0.0,0.0,0.0,0.0,0.0,0.0,0.0,0.0,0.0,64.1038818359375,0.6772043704986572,0.900865912437439,0.0,0.0,0.0,0.0,0.0,0.0,0.0,0.0,0.0,0.005514266900718212,0.007623498793691397,0.011718791909515858,0.0,0.0,0.0,0.0,0.0,0.0,0.0,0.0,0.0
1606986616924453137,536397,1606983015944750226,imu_link,0.003527748864144087,0.009182828478515148,0.5306211709976196,0.8475520610809326,0.0,0.0,0.0,0.0,0.0,0.0,0.0,0.0,0.0,64.1036605834961,0.6773695945739746,0.9010822772979736,0.0,0.0,0.0,0.0,0.0,0.0,0.0,0.0,0.0,-0.007587490603327751,0.009742368012666702,0.0013643059646710753,0.0,0.0,0.0,0.0,0.0,0.0,0.0,0.0,0.0
1606986616924465679,536398,1606983015957543539,imu_link,0.003527748864144087,0.009182828478515148,0.5306211709976196,0.8475520610809326,0.0,0.0,0.0,0.0,0.0,0.0,0.0,0.0,0.0,64.1036605834961,0.6773695945739746,0.9010822772979736,0.0,0.0,0.0,0.0,0.0,0.0,0.0,0.0,0.0,-0.007587490603327751,0.009742368012666702,0.0013643059646710753,0.0,0.0,0.0,0.0,0.0,0.0,0.0,0.0,0.0
1606986616924480866,536399,1606983015957703103,imu_link,0.00352933956310153,0.009178808890283108,0.5306198000907898,0.8475528955459595,0.0,0.0,0.0,0.0,0.0,0.0,0.0,0.0,0.0,64.10346984863281,0.6768838167190552,0.9009912014007568,0.0,0.0,0.0,0.0,0.0,0.0,0.0,0.0,0.0,-0.019040513783693314,0.001737859332934022,0.015970921143889427,0.0,0.0,0.0,0.0,0.0,0.0,0.0,0.0,0.0
1606986616927987879,536400,1606983015957810607,imu_link,0.00352933956310153,0.009178808890283108,0.5306198000907898,0.8475528955459595,0.0,0.0,0.0,0.0,0.0,0.0,0.0,0.0,0.0,64.10346984863281,0.6768838167190552,0.9009912014007568,0.0,0.0,0.0,0.0,0.0,0.0,0.0,0.0,0.0,-0.019040513783693314,0.001737859332934022,0.015970921143889427,0.0,0.0,0.0,0.0,0.0,0.0,0.0,0.0,0.0
1606986616928013741,536401,1606983015957914102,imu_link,0.003529717680066824,0.00917732622474432,0.5306189656257629,0.8475534319877625,0.0,0.0,0.0,0.0,0.0,0.0,0.0,0.0,0.0,64.10335540771484,0.6767177581787109,0.900937020778656,0.0,0.0,0.0,0.0,0.0,0.0,0.0,0.0,0.0,-0.003996516577899456,-0.009596426971256733,0.01603027805685997,0.0,0.0,0.0,0.0,0.0,0.0,0.0,0.0,0.0
1606986616928026077,536402,1606983015957997159,imu_link,0.003529717680066824,0.00917732622474432,0.5306189656257629,0.8475534319877625,0.0,0.0,0.0,0.0,0.0,0.0,0.0,0.0,0.0,64.10335540771484,0.6767177581787109,0.900937020778656,0.0,0.0,0.0,0.0,0.0,0.0,0.0,0.0,0.0,-0.003996516577899456,-0.009596426971256733,0.01603027805685997,0.0,0.0,0.0,0.0,0.0,0.0,0.0,0.0,0.0
1606986616928038641,536403,1606983015958071641,imu_link,0.003532382193952799,0.009177061729133129,0.5306207537651062,0.8475522994995117,0.0,0.0,0.0,0.0,0.0,0.0,0.0,0.0,0.0,64.10359954833984,0.6765280961990356,0.9011812806129456,0.0,0.0,0.0,0.0,0.0,0.0,0.0,0.0,0.0,0.003499085083603859,-0.000495852087624371,0.025685030966997147,0.0,0.0,0.0,0.0,0.0,0.0,0.0,0.0,0.0
1606986616935768950,536404,1606983015958170189,imu_link,0.003532382193952799,0.009177061729133129,0.5306207537651062,0.8475522994995117,0.0,0.0,0.0,0.0,0.0,0.0,0.0,0.0,0.0,64.10359954833984,0.6765280961990356,0.9011812806129456,0.0,0.0,0.0,0.0,0.0,0.0,0.0,0.0,0.0,0.003499085083603859,-0.000495852087624371,0.025685030966997147,0.0,0.0,0.0,0.0,0.0,0.0,0.0,0.0,0.0
1606986616935797178,536405,1606983015958260253,imu_link,0.003533386392518878,0.009179148823022842,0.5306190252304077,0.8475533723831177,0.0,0.0,0.0,0.0,0.0,0.0,0.0,0.0,0.0,64.1033706665039,0.67667156457901,0.9014043211936951,0.0,0.0,0.0,0.0,0.0,0.0,0.0,0.0,0.0,-0.0008925606962293386,-0.010959363542497158,0.04883921518921852,0.0,0.0,0.0,0.0,0.0,0.0,0.0,0.0,0.0
1606986616935822707,536406,1606983015958349088,imu_link,0.003533386392518878,0.009179148823022842,0.5306190252304077,0.8475533723831177,0.0,0.0,0.0,0.0,0.0,0.0,0.0,0.0,0.0,64.1033706665039,0.67667156457901,0.9014043211936951,0.0,0.0,0.0,0.0,0.0,0.0,0.0,0.0,0.0,-0.0008925606962293386,-0.010959363542497158,0.04883921518921852,0.0,0.0,0.0,0.0,0.0,0.0,0.0,0.0,0.0
1606986616935832672,536407,1606983015958430692,imu_link,0.0035344252828508615,0.009180141612887383,0.530620813369751,0.8475522398948669,0.0,0.0,0.0,0.0,0.0,0.0,0.0,0.0,0.0,64.10360717773438,0.6767029166221619,0.9015671014785767,0.0,0.0,0.0,0.0,0.0,0.0,0.0,0.0,0.0,0.004654817748814821,-0.021816393360495567,0.05173785239458084,0.0,0.0,0.0,0.0,0.0,0.0,0.0,0.0,0.0
1606986616939297030,536408,1606983015958509454,imu_link,0.0035344252828508615,0.009180141612887383,0.530620813369751,0.8475522398948669,0.0,0.0,0.0,0.0,0.0,0.0,0.0,0.0,0.0,64.10360717773438,0.6767029166221619,0.9015671014785767,0.0,0.0,0.0,0.0,0.0,0.0,0.0,0.0,0.0,0.004654817748814821,-0.021816393360495567,0.05173785239458084,0.0,0.0,0.0,0.0,0.0,0.0,0.0,0.0,0.0
1606986616939358542,536409,1606983015971051235,imu_link,0.0035327591467648745,0.009178726002573967,0.5306203365325928,0.8475525379180908,0.0,0.0,0.0,0.0,0.0,0.0,0.0,0.0,0.0,64.10354614257812,0.6766672134399414,0.9013187289237976,0.0,0.0,0.0,0.0,0.0,0.0,0.0,0.0,0.0,0.01474350318312645,-0.025026632472872734,0.05374264717102051,0.0,0.0,0.0,0.0,0.0,0.0,0.0,0.0,0.0
1606986616939371422,536410,1606983015971189981,imu_link,0.0035327591467648745,0.009178726002573967,0.5306203365325928,0.8475525379180908,0.0,0.0,0.0,0.0,0.0,0.0,0.0,0.0,0.0,64.10354614257812,0.6766672134399414,0.9013187289237976,0.0,0.0,0.0,0.0,0.0,0.0,0.0,0.0,0.0,0.01474350318312645,-0.025026632472872734,0.05374264717102051,0.0,0.0,0.0,0.0,0.0,0.0,0.0,0.0,0.0
1606986616939387431,536411,1606983015971377089,imu_link,0.003536393167451024,0.009182584472000599,0.5306244492530823,0.8475499749183655,0.0,0.0,0.0,0.0,0.0,0.0,0.0,0.0,0.0,64.10411071777344,0.6768166422843933,0.9019096493721008,0.0,0.0,0.0,0.0,0.0,0.0,0.0,0.0,0.0,0.008803091011941433,-0.001810075482353568,0.04228067398071289,0.0,0.0,0.0,0.0,0.0,0.0,0.0,0.0,0.0
1606986616939435314,536412,1606983015971462221,imu_link,0.003536393167451024,0.009182584472000599,0.5306244492530823,0.8475499749183655,0.0,0.0,0.0,0.0,0.0,0.0,0.0,0.0,0.0,64.10411071777344,0.6768166422843933,0.9019096493721008,0.0,0.0,0.0,0.0,0.0,0.0,0.0,0.0,0.0,0.008803091011941433,-0.001810075482353568,0.04228067398071289,0.0,0.0,0.0,0.0,0.0,0.0,0.0,0.0,0.0
1606986616976316609,536413,1606983015971614879,imu_link,0.0035363410133868456,0.009182394482195377,0.5306260585784912,0.8475488424301147,0.0,0.0,0.0,0.0,0.0,0.0,0.0,0.0,0.0,64.10433197021484,0.6767995357513428,0.9018945097923279,0.0,0.0,0.0,0.0,0.0,0.0,0.0,0.0,0.0,-0.014208485372364521,0.012066713534295559,0.03758859261870384,0.0,0.0,0.0,0.0,0.0,0.0,0.0,0.0,0.0
1606986616976330150,536414,1606983015971753445,imu_link,0.0035363410133868456,0.009182394482195377,0.5306260585784912,0.8475488424301147,0.0,0.0,0.0,0.0,0.0,0.0,0.0,0.0,0.0,64.10433197021484,0.6767995357513428,0.9018945097923279,0.0,0.0,0.0,0.0,0.0,0.0,0.0,0.0,0.0,-0.014208485372364521,0.012066713534295559,0.03758859261870384,0.0,0.0,0.0,0.0,0.0,0.0,0.0,0.0,0.0
1606986616976334321,536415,1606983015971840126,imu_link,0.0035330369137227535,0.009179187938570976,0.5306281447410583,0.847547709941864,0.0,0.0,0.0,0.0,0.0,0.0,0.0,0.0,0.0,64.10459899902344,0.6766870021820068,0.9013800024986267,0.0,0.0,0.0,0.0,0.0,0.0,0.0,0.0,0.0,-0.01988171972334385,0.0006820388953201473,0.021096058189868927,0.0,0.0,0.0,0.0,0.0,0.0,0.0,0.0,0.0
1606986616976339600,536416,1606983015971980340,imu_link,0.0035330369137227535,0.009179187938570976,0.5306281447410583,0.847547709941864,0.0,0.0,0.0,0.0,0.0,0.0,0.0,0.0,0.0,64.10459899902344,0.6766870021820068,0.9013800024986267,0.0,0.0,0.0,0.0,0.0,0.0,0.0,0.0,0.0,-0.01988171972334385,0.0006820388953201473,0.021096058189868927,0.0,0.0,0.0,0.0,0.0,0.0,0.0,0.0,0.0
1606986616980276009,536417,1606983015972067166,imu_link,0.0035332683473825455,0.009179094806313515,0.5306302309036255,0.847546398639679,0.0,0.0,0.0,0.0,0.0,0.0,0.0,0.0,0.0,64.10487365722656,0.6766616106033325,0.9013984799385071,0.0,0.0,0.0,0.0,0.0,0.0,0.0,0.0,0.0,-0.013812449760735035,0.0027254449669271708,0.0029130850452929735,0.0,0.0,0.0,0.0,0.0,0.0,0.0,0.0,0.0
1606986616980338202,536418,1606983015972188151,imu_link,0.0035332683473825455,0.009179094806313515,0.5306302309036255,0.847546398639679,0.0,0.0,0.0,0.0,0.0,0.0,0.0,0.0,0.0,64.10487365722656,0.6766616106033325,0.9013984799385071,0.0,0.0,0.0,0.0,0.0,0.0,0.0,0.0,0.0,-0.013812449760735035,0.0027254449669271708,0.0029130850452929735,0.0,0.0,0.0,0.0,0.0,0.0,0.0,0.0,0.0
1606986616980352266,536419,1606983015972289030,imu_link,0.0035344117786735296,0.009175308048725128,0.5306254029273987,0.8475493788719177,0.0,0.0,0.0,0.0,0.0,0.0,0.0,0.0,0.0,64.1042251586914,0.6762294173240662,0.9012755155563354,0.0,0.0,0.0,0.0,0.0,0.0,0.0,0.0,0.0,-0.019192801788449287,0.00601546186953783,0.015121778473258018,0.0,0.0,0.0,0.0,0.0,0.0,0.0,0.0,0.0
1606986616980369550,536420,1606983015983923079,imu_link,0.0035344117786735296,0.009175308048725128,0.5306254029273987,0.8475493788719177,0.0,0.0,0.0,0.0,0.0,0.0,0.0,0.0,0.0,64.1042251586914,0.6762294173240662,0.9012755155563354,0.0,0.0,0.0,0.0,0.0,0.0,0.0,0.0,0.0,-0.019192801788449287,0.00601546186953783,0.015121778473258018,0.0,0.0,0.0,0.0,0.0,0.0,0.0,0.0,0.0
1606986616980377867,536421,1606983015984067203,imu_link,0.0035360793117433786,0.009175291284918785,0.5306254029273987,0.8475494980812073,0.0,0.0,0.0,0.0,0.0,0.0,0.0,0.0,0.0,64.10421752929688,0.6761264801025391,0.9014362692832947,0.0,0.0,0.0,0.0,0.0,0.0,0.0,0.0,0.0,-0.017294390127062798,0.0004057666228618473,0.015604477375745773,0.0,0.0,0.0,0.0,0.0,0.0,0.0,0.0,0.0
1606986616994050839,536422,1606983015984247811,imu_link,0.0035360793117433786,0.009175291284918785,0.5306254029273987,0.8475494980812073,0.0,0.0,0.0,0.0,0.0,0.0,0.0,0.0,0.0,64.10421752929688,0.6761264801025391,0.9014362692832947,0.0,0.0,0.0,0.0,0.0,0.0,0.0,0.0,0.0,-0.017294390127062798,0.0004057666228618473,0.015604477375745773,0.0,0.0,0.0,0.0,0.0,0.0,0.0,0.0,0.0
1606986616994069576,536423,1606983015984343768,imu_link,0.0035396686289459467,0.00917147472500801,0.5306195616722107,0.8475530743598938,0.0,0.0,0.0,0.0,0.0,0.0,0.0,0.0,0.0,64.10342407226562,0.6755436658859253,0.9015482068061829,0.0,0.0,0.0,0.0,0.0,0.0,0.0,0.0,0.0,-0.0019681050907820463,0.0017509537283331156,-0.017284126952290535,0.0,0.0,0.0,0.0,0.0,0.0,0.0,0.0,0.0
1606986616994076800,536424,1606983015984509401,imu_link,0.0035396686289459467,0.00917147472500801,0.5306195616722107,0.8475530743598938,0.0,0.0,0.0,0.0,0.0,0.0,0.0,0.0,0.0,64.10342407226562,0.6755436658859253,0.9015482068061829,0.0,0.0,0.0,0.0,0.0,0.0,0.0,0.0,0.0,-0.0019681050907820463,0.0017509537283331156,-0.017284126952290535,0.0,0.0,0.0,0.0,0.0,0.0,0.0,0.0,0.0
1606986616994082459,536425,1606983015984617371,imu_link,0.003536531701683998,0.009173673577606678,0.5306202173233032,0.8475527167320251,0.0,0.0,0.0,0.0,0.0,0.0,0.0,0.0,0.0,64.10352325439453,0.675947368144989,0.9013776779174805,0.0,0.0,0.0,0.0,0.0,0.0,0.0,0.0,0.0,-0.009358241222798824,0.005082631949335337,-0.02035210281610489,0.0,0.0,0.0,0.0,0.0,0.0,0.0,0.0,0.0
1606986617004952536,536426,1606983015984700659,imu_link,0.003536531701683998,0.009173673577606678,0.5306202173233032,0.8475527167320251,0.0,0.0,0.0,0.0,0.0,0.0,0.0,0.0,0.0,64.10352325439453,0.675947368144989,0.9013776779174805,0.0,0.0,0.0,0.0,0.0,0.0,0.0,0.0,0.0,-0.009358241222798824,0.005082631949335337,-0.02035210281610489,0.0,0.0,0.0,0.0,0.0,0.0,0.0,0.0,0.0
1606986617004979783,536427,1606983015984783931,imu_link,0.003533855313435197,0.009174047969281673,0.5306181907653809,0.8475539684295654,0.0,0.0,0.0,0.0,0.0,0.0,0.0,0.0,0.0,64.1032485961914,0.676148533821106,0.9011390209197998,0.0,0.0,0.0,0.0,0.0,0.0,0.0,0.0,0.0,-0.01344083808362484,0.006664490792900324,0.016895495355129242,0.0,0.0,0.0,0.0,0.0,0.0,0.0,0.0,0.0
1606986617004996766,536428,1606983015984866919,imu_link,0.003533855313435197,0.009174047969281673,0.5306181907653809,0.8475539684295654,0.0,0.0,0.0,0.0,0.0,0.0,0.0,0.0,0.0,64.1032485961914,0.676148533821106,0.9011390209197998,0.0,0.0,0.0,0.0,0.0,0.0,0.0,0.0,0.0,-0.01344083808362484,0.006664490792900324,0.016895495355129242,0.0,0.0,0.0,0.0,0.0,0.0,0.0,0.0,0.0
1606986617005003813,536429,1606983015984949339,imu_link,0.0035346525255590677,0.00917368195950985,0.5306182503700256,0.8475539088249207,0.0,0.0,0.0,0.0,0.0,0.0,0.0,0.0,0.0,64.10325622558594,0.6760644912719727,0.9011942148208618,0.0,0.0,0.0,0.0,0.0,0.0,0.0,0.0,0.0,0.005221773870289326,0.011106145568192005,0.02945082075893879,0.0,0.0,0.0,0.0,0.0,0.0,0.0,0.0,0.0
1606986617005021799,536430,1606983015997676980,imu_link,0.0035346525255590677,0.00917368195950985,0.5306182503700256,0.8475539088249207,0.0,0.0,0.0,0.0,0.0,0.0,0.0,0.0,0.0,64.10325622558594,0.6760644912719727,0.9011942148208618,0.0,0.0,0.0,0.0,0.0,0.0,0.0,0.0,0.0,0.005221773870289326,0.011106145568192005,0.02945082075893879,0.0,0.0,0.0,0.0,0.0,0.0,0.0,0.0,0.0
1606986617110770057,536431,1606983015997819164,imu_link,0.0035329018719494343,0.009171930141746998,0.5306191444396973,0.8475534319877625,0.0,0.0,0.0,0.0,0.0,0.0,0.0,0.0,0.0,64.10336303710938,0.6759999394416809,0.9009181261062622,0.0,0.0,0.0,0.0,0.0,0.0,0.0,0.0,0.0,-0.00024380622198805213,0.013700395822525024,0.028493782505393028,0.0,0.0,0.0,0.0,0.0,0.0,0.0,0.0,0.0
1606986617110804235,536432,1606983015998021257,imu_link,0.0035329018719494343,0.009171930141746998,0.5306191444396973,0.8475534319877625,0.0,0.0,0.0,0.0,0.0,0.0,0.0,0.0,0.0,64.10336303710938,0.6759999394416809,0.9009181261062622,0.0,0.0,0.0,0.0,0.0,0.0,0.0,0.0,0.0,-0.00024380622198805213,0.013700395822525024,0.028493782505393028,0.0,0.0,0.0,0.0,0.0,0.0,0.0,0.0,0.0
1606986617110832511,536433,1606983015998109792,imu_link,0.003532905364409089,0.009171969257295132,0.5306199789047241,0.8475528955459595,0.0,0.0,0.0,0.0,0.0,0.0,0.0,0.0,0.0,64.10347747802734,0.676002562046051,0.9009215235710144,0.0,0.0,0.0,0.0,0.0,0.0,0.0,0.0,0.0,-0.002325250767171383,0.025085324421525,0.029111459851264954,0.0,0.0,0.0,0.0,0.0,0.0,0.0,0.0,0.0
1606986617110894109,536434,1606983015998189065,imu_link,0.003532905364409089,0.009171969257295132,0.5306199789047241,0.8475528955459595,0.0,0.0,0.0,0.0,0.0,0.0,0.0,0.0,0.0,64.10347747802734,0.676002562046051,0.9009215235710144,0.0,0.0,0.0,0.0,0.0,0.0,0.0,0.0,0.0,-0.002325250767171383,0.025085324421525,0.029111459851264954,0.0,0.0,0.0,0.0,0.0,0.0,0.0,0.0,0.0
1606986617114149834,536435,1606983015998270594,imu_link,0.0035275768022984266,0.00916979368776083,0.5306248068809509,0.8475498557090759,0.0,0.0,0.0,0.0,0.0,0.0,0.0,0.0,0.0,64.10413360595703,0.6761102080345154,0.9002756476402283,0.0,0.0,0.0,0.0,0.0,0.0,0.0,0.0,0.0,0.0035374173894524574,0.032664548605680466,0.023856615647673607,0.0,0.0,0.0,0.0,0.0,0.0,0.0,0.0,0.0
1606986617114194434,536436,1606983015998368535,imu_link,0.0035275768022984266,0.00916979368776083,0.5306248068809509,0.8475498557090759,0.0,0.0,0.0,0.0,0.0,0.0,0.0,0.0,0.0,64.10413360595703,0.6761102080345154,0.9002756476402283,0.0,0.0,0.0,0.0,0.0,0.0,0.0,0.0,0.0,0.0035374173894524574,0.032664548605680466,0.023856615647673607,0.0,0.0,0.0,0.0,0.0,0.0,0.0,0.0,0.0
1606986617114204087,536437,1606983015998451763,imu_link,0.0035273893736302853,0.009170065633952618,0.5306264758110046,0.8475488424301147,0.0,0.0,0.0,0.0,0.0,0.0,0.0,0.0,0.0,64.10435485839844,0.6761462092399597,0.9002753496170044,0.0,0.0,0.0,0.0,0.0,0.0,0.0,0.0,0.0,0.010360493324697018,0.03197728842496872,0.005162662826478481,0.0,0.0,0.0,0.0,0.0,0.0,0.0,0.0,0.0
1606986617114213859,536438,1606983015998617136,imu_link,0.0035273893736302853,0.009170065633952618,0.5306264758110046,0.8475488424301147,0.0,0.0,0.0,0.0,0.0,0.0,0.0,0.0,0.0,64.10435485839844,0.6761462092399597,0.9002753496170044,0.0,0.0,0.0,0.0,0.0,0.0,0.0,0.0,0.0,0.010360493324697018,0.03197728842496872,0.005162662826478481,0.0,0.0,0.0,0.0,0.0,0.0,0.0,0.0,0.0
1606986617114228237,536439,1606983015998702047,imu_link,0.0035210554488003254,0.009169153869152069,0.5306300520896912,0.8475466370582581,0.0,0.0,0.0,0.0,0.0,0.0,0.0,0.0,0.0,64.1048355102539,0.6764390468597412,0.8996074795722961,0.0,0.0,0.0,0.0,0.0,0.0,0.0,0.0,0.0,0.0023608077317476273,0.02265281230211258,-0.011690188199281693,0.0,0.0,0.0,0.0,0.0,0.0,0.0,0.0,0.0
1606986617118163598,536440,1606983015998784994,imu_link,0.0035210554488003254,0.009169153869152069,0.5306300520896912,0.8475466370582581,0.0,0.0,0.0,0.0,0.0,0.0,0.0,0.0,0.0,64.1048355102539,0.6764390468597412,0.8996074795722961,0.0,0.0,0.0,0.0,0.0,0.0,0.0,0.0,0.0,0.0023608077317476273,0.02265281230211258,-0.011690188199281693,0.0,0.0,0.0,0.0,0.0,0.0,0.0,0.0,0.0
1606986617118175070,536441,1606983016011049209,imu_link,0.0035221735015511513,0.009168359450995922,0.5306334495544434,0.8475445508956909,0.0,0.0,0.0,0.0,0.0,0.0,0.0,0.0,0.0,64.10529327392578,0.6762903928756714,0.899670422077179,0.0,0.0,0.0,0.0,0.0,0.0,0.0,0.0,0.0,-0.02265172451734543,0.013176278211176395,-0.006652469281107187,0.0,0.0,0.0,0.0,0.0,0.0,0.0,0.0,0.0
1606986617118183568,536442,1606983016011108027,imu_link,0.0035221735015511513,0.009168359450995922,0.5306334495544434,0.8475445508956909,0.0,0.0,0.0,0.0,0.0,0.0,0.0,0.0,0.0,64.10529327392578,0.6762903928756714,0.899670422077179,0.0,0.0,0.0,0.0,0.0,0.0,0.0,0.0,0.0,-0.02265172451734543,0.013176278211176395,-0.006652469281107187,0.0,0.0,0.0,0.0,0.0,0.0,0.0,0.0,0.0
1606986617118195066,536443,1606983016011140504,imu_link,0.0035214792005717754,0.00916313100606203,0.5306305885314941,0.847546398639679,0.0,0.0,0.0,0.0,0.0,0.0,0.0,0.0,0.0,64.10489654541016,0.6758278608322144,0.8992826342582703,0.0,0.0,0.0,0.0,0.0,0.0,0.0,0.0,0.0,-0.023343827575445175,-0.001342665869742632,0.010800895281136036,0.0,0.0,0.0,0.0,0.0,0.0,0.0,0.0,0.0
1606986617139280647,536444,1606983016011171944,imu_link,0.0035214792005717754,0.00916313100606203,0.5306305885314941,0.847546398639679,0.0,0.0,0.0,0.0,0.0,0.0,0.0,0.0,0.0,64.10489654541016,0.6758278608322144,0.8992826342582703,0.0,0.0,0.0,0.0,0.0,0.0,0.0,0.0,0.0,-0.023343827575445175,-0.001342665869742632,0.010800895281136036,0.0,0.0,0.0,0.0,0.0,0.0,0.0,0.0,0.0
1606986617139296593,536445,1606983016011205808,imu_link,0.0035177217796444893,0.009164789691567421,0.5306296348571777,0.8475468754768372,0.0,0.0,0.0,0.0,0.0,0.0,0.0,0.0,0.0,64.10477447509766,0.6762183308601379,0.8990180492401123,0.0,0.0,0.0,0.0,0.0,0.0,0.0,0.0,0.0,-0.013619529083371162,-0.0005588654894381762,0.013223952613770962,0.0,0.0,0.0,0.0,0.0,0.0,0.0,0.0,0.0
1606986617139313789,536446,1606983016011239056,imu_link,0.0035177217796444893,0.009164789691567421,0.5306296348571777,0.8475468754768372,0.0,0.0,0.0,0.0,0.0,0.0,0.0,0.0,0.0,64.10477447509766,0.6762183308601379,0.8990180492401123,0.0,0.0,0.0,0.0,0.0,0.0,0.0,0.0,0.0,-0.013619529083371162,-0.0005588654894381762,0.013223952613770962,0.0,0.0,0.0,0.0,0.0,0.0,0.0,0.0,0.0
1606986617139321265,536447,1606983016011277453,imu_link,0.00351924542337656,0.009163479320704937,0.5306243300437927,0.8475502133369446,0.0,0.0,0.0,0.0,0.0,0.0,0.0,0.0,0.0,64.10405731201172,0.6760040521621704,0.8990820050239563,0.0,0.0,0.0,0.0,0.0,0.0,0.0,0.0,0.0,-0.008675250224769115,0.0003573320573195815,0.019962146878242493,0.0,0.0,0.0,0.0,0.0,0.0,0.0,0.0,0.0
1606986617139330384,536448,1606983016011310540,imu_link,0.00351924542337656,0.009163479320704937,0.5306243300437927,0.8475502133369446,0.0,0.0,0.0,0.0,0.0,0.0,0.0,0.0,0.0,64.10405731201172,0.6760040521621704,0.8990820050239563,0.0,0.0,0.0,0.0,0.0,0.0,0.0,0.0,0.0,-0.008675250224769115,0.0003573320573195815,0.019962146878242493,0.0,0.0,0.0,0.0,0.0,0.0,0.0,0.0,0.0
1606986617186454283,536449,1606983016011341809,imu_link,0.0035216340329498053,0.009163320064544678,0.5306265950202942,0.84754878282547,0.0,0.0,0.0,0.0,0.0,0.0,0.0,0.0,0.0,64.10436248779297,0.6758409142494202,0.8993061184883118,0.0,0.0,0.0,0.0,0.0,0.0,0.0,0.0,0.0,-0.004232044331729412,-0.008793028071522713,0.014022056013345718,0.0,0.0,0.0,0.0,0.0,0.0,0.0,0.0,0.0
1606986617186481866,536450,1606983016011379439,imu_link,0.0035216340329498053,0.009163320064544678,0.5306265950202942,0.84754878282547,0.0,0.0,0.0,0.0,0.0,0.0,0.0,0.0,0.0,64.10436248779297,0.6758409142494202,0.8993061184883118,0.0,0.0,0.0,0.0,0.0,0.0,0.0,0.0,0.0,-0.004232044331729412,-0.008793028071522713,0.014022056013345718,0.0,0.0,0.0,0.0,0.0,0.0,0.0,0.0,0.0
1606986617186500234,536451,1606983016011412052,imu_link,0.0035234875977039337,0.00916474312543869,0.5306336879730225,0.8475444912910461,0.0,0.0,0.0,0.0,0.0,0.0,0.0,0.0,0.0,64.10531616210938,0.6758590340614319,0.8995782136917114,0.0,0.0,0.0,0.0,0.0,0.0,0.0,0.0,0.0,-0.0026733381673693657,-0.014221644029021263,-0.0006495363195426762,0.0,0.0,0.0,0.0,0.0,0.0,0.0,0.0,0.0
1606986617186516530,536452,1606983016024923867,imu_link,0.0035234875977039337,0.00916474312543869,0.5306336879730225,0.8475444912910461,0.0,0.0,0.0,0.0,0.0,0.0,0.0,0.0,0.0,64.10531616210938,0.6758590340614319,0.8995782136917114,0.0,0.0,0.0,0.0,0.0,0.0,0.0,0.0,0.0,-0.0026733381673693657,-0.014221644029021263,-0.0006495363195426762,0.0,0.0,0.0,0.0,0.0,0.0,0.0,0.0,0.0
1606986617195030241,536453,1606983016025007606,imu_link,0.0035207115579396486,0.009166033938527107,0.5306347608566284,0.8475437760353088,0.0,0.0,0.0,0.0,0.0,0.0,0.0,0.0,0.0,64.10546112060547,0.6761521100997925,0.8993880748748779,0.0,0.0,0.0,0.0,0.0,0.0,0.0,0.0,0.0,0.0012066097697243094,-0.011571982875466347,0.026144666597247124,0.0,0.0,0.0,0.0,0.0,0.0,0.0,0.0,0.0
1606986617195051729,536454,1606983016025107752,imu_link,0.0035207115579396486,0.009166033938527107,0.5306347608566284,0.8475437760353088,0.0,0.0,0.0,0.0,0.0,0.0,0.0,0.0,0.0,64.10546112060547,0.6761521100997925,0.8993880748748779,0.0,0.0,0.0,0.0,0.0,0.0,0.0,0.0,0.0,0.0012066097697243094,-0.011571982875466347,0.026144666597247124,0.0,0.0,0.0,0.0,0.0,0.0,0.0,0.0,0.0
1606986617195104457,536455,1606983016025160331,imu_link,0.0035230685025453568,0.009169152937829494,0.5306428074836731,0.8475385904312134,0.0,0.0,0.0,0.0,0.0,0.0,0.0,0.0,0.0,64.1065673828125,0.6763029098510742,0.8998131155967712,0.0,0.0,0.0,0.0,0.0,0.0,0.0,0.0,0.0,0.004208726342767477,-0.01664045639336109,0.03616085276007652,0.0,0.0,0.0,0.0,0.0,0.0,0.0,0.0,0.0
1606986617195114137,536456,1606983016025211544,imu_link,0.0035230685025453568,0.009169152937829494,0.5306428074836731,0.8475385904312134,0.0,0.0,0.0,0.0,0.0,0.0,0.0,0.0,0.0,64.1065673828125,0.6763029098510742,0.8998131155967712,0.0,0.0,0.0,0.0,0.0,0.0,0.0,0.0,0.0,0.004208726342767477,-0.01664045639336109,0.03616085276007652,0.0,0.0,0.0,0.0,0.0,0.0,0.0,0.0,0.0
1606986617195133816,536457,1606983016025258853,imu_link,0.0035247658379375935,0.009168215095996857,0.5306424498558044,0.8475388884544373,0.0,0.0,0.0,0.0,0.0,0.0,0.0,0.0,0.0,64.10651397705078,0.6761090755462646,0.8999207019805908,0.0,0.0,0.0,0.0,0.0,0.0,0.0,0.0,0.0,0.00039930985076352954,-0.013068382628262043,0.005615504924207926,0.0,0.0,0.0,0.0,0.0,0.0,0.0,0.0,0.0
1606986617199409938,536458,1606983016025319345,imu_link,0.0035247658379375935,0.009168215095996857,0.5306424498558044,0.8475388884544373,0.0,0.0,0.0,0.0,0.0,0.0,0.0,0.0,0.0,64.10651397705078,0.6761090755462646,0.8999207019805908,0.0,0.0,0.0,0.0,0.0,0.0,0.0,0.0,0.0,0.00039930985076352954,-0.013068382628262043,0.005615504924207926,0.0,0.0,0.0,0.0,0.0,0.0,0.0,0.0,0.0
1606986617199433889,536459,1606983016025367324,imu_link,0.0035262727178633213,0.009171112440526485,0.5306342840194702,0.8475440144538879,0.0,0.0,0.0,0.0,0.0,0.0,0.0,0.0,0.0,64.10540771484375,0.6763075590133667,0.9002367854118347,0.0,0.0,0.0,0.0,0.0,0.0,0.0,0.0,0.0,-0.00383507227525115,0.018152140080928802,-0.006318832281976938,0.0,0.0,0.0,0.0,0.0,0.0,0.0,0.0,0.0
1606986617199441544,536460,1606983016025414468,imu_link,0.0035262727178633213,0.009171112440526485,0.5306342840194702,0.8475440144538879,0.0,0.0,0.0,0.0,0.0,0.0,0.0,0.0,0.0,64.10540771484375,0.6763075590133667,0.9002367854118347,0.0,0.0,0.0,0.0,0.0,0.0,0.0,0.0,0.0,-0.00383507227525115,0.018152140080928802,-0.006318832281976938,0.0,0.0,0.0,0.0,0.0,0.0,0.0,0.0,0.0
1606986617199454561,536461,1606983016025461179,imu_link,0.0035239143762737513,0.009170006960630417,0.5306337475776672,0.8475443720817566,0.0,0.0,0.0,0.0,0.0,0.0,0.0,0.0,0.0,64.10533905029297,0.6763441562652588,0.8999398946762085,0.0,0.0,0.0,0.0,0.0,0.0,0.0,0.0,0.0,0.0001695463724900037,0.019718213006854057,0.03977244719862938,0.0,0.0,0.0,0.0,0.0,0.0,0.0,0.0,0.0
1606986617202585299,536462,1606983016025508331,imu_link,0.0035239143762737513,0.009170006960630417,0.5306337475776672,0.8475443720817566,0.0,0.0,0.0,0.0,0.0,0.0,0.0,0.0,0.0,64.10533905029297,0.6763441562652588,0.8999398946762085,0.0,0.0,0.0,0.0,0.0,0.0,0.0,0.0,0.0,0.0001695463724900037,0.019718213006854057,0.03977244719862938,0.0,0.0,0.0,0.0,0.0,0.0,0.0,0.0,0.0
1606986617202611920,536463,1606983016038442275,imu_link,0.003519529476761818,0.0091700479388237,0.5306251049041748,0.8475497961044312,0.0,0.0,0.0,0.0,0.0,0.0,0.0,0.0,0.0,64.10416412353516,0.676624059677124,0.899509608745575,0.0,0.0,0.0,0.0,0.0,0.0,0.0,0.0,0.0,0.017190158367156982,0.007016256917268038,0.052937593311071396,0.0,0.0,0.0,0.0,0.0,0.0,0.0,0.0,0.0
1606986617202647239,536464,1606983016038527550,imu_link,0.003519529476761818,0.0091700479388237,0.5306251049041748,0.8475497961044312,0.0,0.0,0.0,0.0,0.0,0.0,0.0,0.0,0.0,64.10416412353516,0.676624059677124,0.899509608745575,0.0,0.0,0.0,0.0,0.0,0.0,0.0,0.0,0.0,0.017190158367156982,0.007016256917268038,0.052937593311071396,0.0,0.0,0.0,0.0,0.0,0.0,0.0,0.0,0.0
1606986617202662094,536465,1606983016038587537,imu_link,0.0035210212226957083,0.009172068908810616,0.5306234359741211,0.8475508093833923,0.0,0.0,0.0,0.0,0.0,0.0,0.0,0.0,0.0,64.10394287109375,0.676731288433075,0.8997762203216553,0.0,0.0,0.0,0.0,0.0,0.0,0.0,0.0,0.0,0.02063867077231407,0.001700830296613276,0.03616897761821747,0.0,0.0,0.0,0.0,0.0,0.0,0.0,0.0,0.0
1606986617202684360,536466,1606983016038633690,imu_link,0.0035210212226957083,0.009172068908810616,0.5306234359741211,0.8475508093833923,0.0,0.0,0.0,0.0,0.0,0.0,0.0,0.0,0.0,64.10394287109375,0.676731288433075,0.8997762203216553,0.0,0.0,0.0,0.0,0.0,0.0,0.0,0.0,0.0,0.02063867077231407,0.001700830296613276,0.03616897761821747,0.0,0.0,0.0,0.0,0.0,0.0,0.0,0.0,0.0
1606986617252246339,536467,1606983016038683213,imu_link,0.0035189962945878506,0.009177673608064651,0.5306271314620972,0.8475484251976013,0.0,0.0,0.0,0.0,0.0,0.0,0.0,0.0,0.0,64.10445404052734,0.6773949265480042,0.8999235033988953,0.0,0.0,0.0,0.0,0.0,0.0,0.0,0.0,0.0,0.011014175601303577,-0.0009259959915652871,0.027901120483875275,0.0,0.0,0.0,0.0,0.0,0.0,0.0,0.0,0.0
1606986617252278431,536468,1606983016038740451,imu_link,0.0035189962945878506,0.009177673608064651,0.5306271314620972,0.8475484251976013,0.0,0.0,0.0,0.0,0.0,0.0,0.0,0.0,0.0,64.10445404052734,0.6773949265480042,0.8999235033988953,0.0,0.0,0.0,0.0,0.0,0.0,0.0,0.0,0.0,0.011014175601303577,-0.0009259959915652871,0.027901120483875275,0.0,0.0,0.0,0.0,0.0,0.0,0.0,0.0,0.0
1606986617252295593,536469,1606983016038785215,imu_link,0.0035199264530092478,0.009179112501442432,0.5306252837181091,0.847549557685852,0.0,0.0,0.0,0.0,0.0,0.0,0.0,0.0,0.0,64.10420227050781,0.6774800419807434,0.9000996947288513,0.0,0.0,0.0,0.0,0.0,0.0,0.0,0.0,0.0,-0.005965471267700195,0.0010411395924165845,0.0036980051081627607,0.0,0.0,0.0,0.0,0.0,0.0,0.0,0.0,0.0
1606986617252303375,536470,1606983016038832241,imu_link,0.0035199264530092478,0.009179112501442432,0.5306252837181091,0.847549557685852,0.0,0.0,0.0,0.0,0.0,0.0,0.0,0.0,0.0,64.10420227050781,0.6774800419807434,0.9000996947288513,0.0,0.0,0.0,0.0,0.0,0.0,0.0,0.0,0.0,-0.005965471267700195,0.0010411395924165845,0.0036980051081627607,0.0,0.0,0.0,0.0,0.0,0.0,0.0,0.0,0.0
1606986617256301909,536471,1606983016038876071,imu_link,0.003518845420330763,0.00917750597000122,0.5306282639503479,0.847547709941864,0.0,0.0,0.0,0.0,0.0,0.0,0.0,0.0,0.0,64.10460662841797,0.6773865222930908,0.8998994827270508,0.0,0.0,0.0,0.0,0.0,0.0,0.0,0.0,0.0,-0.02011333964765072,-0.00720032537356019,0.017305126413702965,0.0,0.0,0.0,0.0,0.0,0.0,0.0,0.0,0.0
1606986617256323937,536472,1606983016038922670,imu_link,0.003518845420330763,0.00917750597000122,0.5306282639503479,0.847547709941864,0.0,0.0,0.0,0.0,0.0,0.0,0.0,0.0,0.0,64.10460662841797,0.6773865222930908,0.8998994827270508,0.0,0.0,0.0,0.0,0.0,0.0,0.0,0.0,0.0,-0.02011333964765072,-0.00720032537356019,0.017305126413702965,0.0,0.0,0.0,0.0,0.0,0.0,0.0,0.0,0.0
1606986617256331285,536473,1606983016039034378,imu_link,0.003515655640512705,0.009177369065582752,0.5306279063224792,0.8475479483604431,0.0,0.0,0.0,0.0,0.0,0.0,0.0,0.0,0.0,64.10456085205078,0.6775676608085632,0.8995810151100159,0.0,0.0,0.0,0.0,0.0,0.0,0.0,0.0,0.0,-0.00797099620103836,-0.030744370073080063,0.024684200063347816,0.0,0.0,0.0,0.0,0.0,0.0,0.0,0.0,0.0
1606986617256340495,536474,1606983016051339921,imu_link,0.003515655640512705,0.009177369065582752,0.5306279063224792,0.8475479483604431,0.0,0.0,0.0,0.0,0.0,0.0,0.0,0.0,0.0,64.10456085205078,0.6775676608085632,0.8995810151100159,0.0,0.0,0.0,0.0,0.0,0.0,0.0,0.0,0.0,-0.00797099620103836,-0.030744370073080063,0.024684200063347816,0.0,0.0,0.0,0.0,0.0,0.0,0.0,0.0,0.0
1606986617256348143,536475,1606983016051443682,imu_link,0.0035200046841055155,0.009178396314382553,0.530631959438324,0.847545325756073,0.0,0.0,0.0,0.0,0.0,0.0,0.0,0.0,0.0,64.10511016845703,0.6773985624313354,0.9000691771507263,0.0,0.0,0.0,0.0,0.0,0.0,0.0,0.0,0.0,-0.001177939586341381,-0.03562396764755249,0.0136469891294837,0.0,0.0,0.0,0.0,0.0,0.0,0.0,0.0,0.0
1606986617274433752,536476,1606983016051573964,imu_link,0.0035200046841055155,0.009178396314382553,0.530631959438324,0.847545325756073,0.0,0.0,0.0,0.0,0.0,0.0,0.0,0.0,0.0,64.10511016845703,0.6773985624313354,0.9000691771507263,0.0,0.0,0.0,0.0,0.0,0.0,0.0,0.0,0.0,-0.001177939586341381,-0.03562396764755249,0.0136469891294837,0.0,0.0,0.0,0.0,0.0,0.0,0.0,0.0,0.0
1606986617274459547,536477,1606983016051641310,imu_link,0.0035192028153687716,0.00917762704193592,0.5306320786476135,0.8475452661514282,0.0,0.0,0.0,0.0,0.0,0.0,0.0,0.0,0.0,64.1051254272461,0.6773725152015686,0.8999446034431458,0.0,0.0,0.0,0.0,0.0,0.0,0.0,0.0,0.0,0.010976441204547882,-0.008540578186511993,0.023405512794852257,0.0,0.0,0.0,0.0,0.0,0.0,0.0,0.0,0.0
1606986617274541068,536478,1606983016051707874,imu_link,0.0035192028153687716,0.00917762704193592,0.5306320786476135,0.8475452661514282,0.0,0.0,0.0,0.0,0.0,0.0,0.0,0.0,0.0,64.1051254272461,0.6773725152015686,0.8999446034431458,0.0,0.0,0.0,0.0,0.0,0.0,0.0,0.0,0.0,0.010976441204547882,-0.008540578186511993,0.023405512794852257,0.0,0.0,0.0,0.0,0.0,0.0,0.0,0.0,0.0
1606986617274567687,536479,1606983016051780428,imu_link,0.003515508957207203,0.00917923916131258,0.5306351184844971,0.8475433588027954,0.0,0.0,0.0,0.0,0.0,0.0,0.0,0.0,0.0,64.10554504394531,0.6777504086494446,0.899686336517334,0.0,0.0,0.0,0.0,0.0,0.0,0.0,0.0,0.0,0.018420401960611343,-0.0007907027029432356,0.0348229855298996,0.0,0.0,0.0,0.0,0.0,0.0,0.0,0.0,0.0
1606986617277786482,536480,1606983016051841289,imu_link,0.003515508957207203,0.00917923916131258,0.5306351184844971,0.8475433588027954,0.0,0.0,0.0,0.0,0.0,0.0,0.0,0.0,0.0,64.10554504394531,0.6777504086494446,0.899686336517334,0.0,0.0,0.0,0.0,0.0,0.0,0.0,0.0,0.0,0.018420401960611343,-0.0007907027029432356,0.0348229855298996,0.0,0.0,0.0,0.0,0.0,0.0,0.0,0.0,0.0
1606986617277843083,536481,1606983016051900918,imu_link,0.003515342017635703,0.009179058484733105,0.5306358933448792,0.8475428819656372,0.0,0.0,0.0,0.0,0.0,0.0,0.0,0.0,0.0,64.10563659667969,0.6777422428131104,0.8996597528457642,0.0,0.0,0.0,0.0,0.0,0.0,0.0,0.0,0.0,0.01075170561671257,-0.00703735277056694,0.034930504858493805,0.0,0.0,0.0,0.0,0.0,0.0,0.0,0.0,0.0
1606986617277945151,536482,1606983016051959719,imu_link,0.003515342017635703,0.009179058484733105,0.5306358933448792,0.8475428819656372,0.0,0.0,0.0,0.0,0.0,0.0,0.0,0.0,0.0,64.10563659667969,0.6777422428131104,0.8996597528457642,0.0,0.0,0.0,0.0,0.0,0.0,0.0,0.0,0.0,0.01075170561671257,-0.00703735277056694,0.034930504858493805,0.0,0.0,0.0,0.0,0.0,0.0,0.0,0.0,0.0
1606986617277960176,536483,1606983016052019362,imu_link,0.0035155490040779114,0.009181552566587925,0.5306328535079956,0.84754478931427,0.0,0.0,0.0,0.0,0.0,0.0,0.0,0.0,0.0,64.10523223876953,0.6779751181602478,0.8998290300369263,0.0,0.0,0.0,0.0,0.0,0.0,0.0,0.0,0.0,0.004870805889368057,-0.019556086510419846,0.0018270642030984163,0.0,0.0,0.0,0.0,0.0,0.0,0.0,0.0,0.0
1606986617357335539,536484,1606983016065093475,imu_link,0.0035155490040779114,0.009181552566587925,0.5306328535079956,0.84754478931427,0.0,0.0,0.0,0.0,0.0,0.0,0.0,0.0,0.0,64.10523223876953,0.6779751181602478,0.8998290300369263,0.0,0.0,0.0,0.0,0.0,0.0,0.0,0.0,0.0,0.004870805889368057,-0.019556086510419846,0.0018270642030984163,0.0,0.0,0.0,0.0,0.0,0.0,0.0,0.0,0.0
1606986617357357104,536485,1606983016065199367,imu_link,0.0035162861458957195,0.009180099703371525,0.5306330919265747,0.8475446701049805,0.0,0.0,0.0,0.0,0.0,0.0,0.0,0.0,0.0,64.10526275634766,0.6777889132499695,0.8998124599456787,0.0,0.0,0.0,0.0,0.0,0.0,0.0,0.0,0.0,0.0006074622506275773,-0.01844993233680725,-0.0035690278746187687,0.0,0.0,0.0,0.0,0.0,0.0,0.0,0.0,0.0
1606986617357365647,536486,1606983016065328954,imu_link,0.0035162861458957195,0.009180099703371525,0.5306330919265747,0.8475446701049805,0.0,0.0,0.0,0.0,0.0,0.0,0.0,0.0,0.0,64.10526275634766,0.6777889132499695,0.8998124599456787,0.0,0.0,0.0,0.0,0.0,0.0,0.0,0.0,0.0,0.0006074622506275773,-0.01844993233680725,-0.0035690278746187687,0.0,0.0,0.0,0.0,0.0,0.0,0.0,0.0,0.0
1606986617357377005,536487,1606983016065394666,imu_link,0.0035189285408705473,0.00918335746973753,0.5306301712989807,0.847546398639679,0.0,0.0,0.0,0.0,0.0,0.0,0.0,0.0,0.0,64.10487365722656,0.6779477000236511,0.900265097618103,0.0,0.0,0.0,0.0,0.0,0.0,0.0,0.0,0.0,0.0019750867504626513,-0.010164029896259308,0.021690700203180313,0.0,0.0,0.0,0.0,0.0,0.0,0.0,0.0,0.0
1606986617357383869,536488,1606983016065458326,imu_link,0.0035189285408705473,0.00918335746973753,0.5306301712989807,0.847546398639679,0.0,0.0,0.0,0.0,0.0,0.0,0.0,0.0,0.0,64.10487365722656,0.6779477000236511,0.900265097618103,0.0,0.0,0.0,0.0,0.0,0.0,0.0,0.0,0.0,0.0019750867504626513,-0.010164029896259308,0.021690700203180313,0.0,0.0,0.0,0.0,0.0,0.0,0.0,0.0,0.0
1606986617368187077,536489,1606983016065517824,imu_link,0.0035193990916013718,0.009184274822473526,0.5306299328804016,0.8475465774536133,0.0,0.0,0.0,0.0,0.0,0.0,0.0,0.0,0.0,64.10484313964844,0.6780084371566772,0.9003661870956421,0.0,0.0,0.0,0.0,0.0,0.0,0.0,0.0,0.0,0.0006758222007192671,-0.006953275762498379,0.02507404051721096,0.0,0.0,0.0,0.0,0.0,0.0,0.0,0.0,0.0
1606986617368220619,536490,1606983016065589944,imu_link,0.0035193990916013718,0.009184274822473526,0.5306299328804016,0.8475465774536133,0.0,0.0,0.0,0.0,0.0,0.0,0.0,0.0,0.0,64.10484313964844,0.6780084371566772,0.9003661870956421,0.0,0.0,0.0,0.0,0.0,0.0,0.0,0.0,0.0,0.0006758222007192671,-0.006953275762498379,0.02507404051721096,0.0,0.0,0.0,0.0,0.0,0.0,0.0,0.0,0.0
1606986617368229826,536491,1606983016065650896,imu_link,0.00351816532202065,0.00918443500995636,0.530627965927124,0.8475478291511536,0.0,0.0,0.0,0.0,0.0,0.0,0.0,0.0,0.0,64.10457611083984,0.678101122379303,0.9002547264099121,0.0,0.0,0.0,0.0,0.0,0.0,0.0,0.0,0.0,-0.00011355942115187645,0.004877375904470682,0.02575632929801941,0.0,0.0,0.0,0.0,0.0,0.0,0.0,0.0,0.0
1606986617368250213,536492,1606983016065706654,imu_link,0.00351816532202065,0.00918443500995636,0.530627965927124,0.8475478291511536,0.0,0.0,0.0,0.0,0.0,0.0,0.0,0.0,0.0,64.10457611083984,0.678101122379303,0.9002547264099121,0.0,0.0,0.0,0.0,0.0,0.0,0.0,0.0,0.0,-0.00011355942115187645,0.004877375904470682,0.02575632929801941,0.0,0.0,0.0,0.0,0.0,0.0,0.0,0.0,0.0
1606986617375376862,536493,1606983016065764259,imu_link,0.0035164537839591503,0.009185523726046085,0.5306272506713867,0.8475483059883118,0.0,0.0,0.0,0.0,0.0,0.0,0.0,0.0,0.0,64.10447692871094,0.6783117651939392,0.9001541137695312,0.0,0.0,0.0,0.0,0.0,0.0,0.0,0.0,0.0,0.010379363782703876,0.010734005831182003,0.025302095338702202,0.0,0.0,0.0,0.0,0.0,0.0,0.0,0.0,0.0
1606986617375465826,536494,1606983016065824884,imu_link,0.0035164537839591503,0.009185523726046085,0.5306272506713867,0.8475483059883118,0.0,0.0,0.0,0.0,0.0,0.0,0.0,0.0,0.0,64.10447692871094,0.6783117651939392,0.9001541137695312,0.0,0.0,0.0,0.0,0.0,0.0,0.0,0.0,0.0,0.010379363782703876,0.010734005831182003,0.025302095338702202,0.0,0.0,0.0,0.0,0.0,0.0,0.0,0.0,0.0
1606986617375490905,536495,1606983016078563375,imu_link,0.0035122556146234274,0.009186772629618645,0.5306243300437927,0.847550094127655,0.0,0.0,0.0,0.0,0.0,0.0,0.0,0.0,0.0,64.10408782958984,0.6786914467811584,0.8998198509216309,0.0,0.0,0.0,0.0,0.0,0.0,0.0,0.0,0.0,0.01748727075755596,0.010377571918070316,0.03467785194516182,0.0,0.0,0.0,0.0,0.0,0.0,0.0,0.0,0.0
1606986617375502386,536496,1606983016078688841,imu_link,0.0035122556146234274,0.009186772629618645,0.5306243300437927,0.847550094127655,0.0,0.0,0.0,0.0,0.0,0.0,0.0,0.0,0.0,64.10408782958984,0.6786914467811584,0.8998198509216309,0.0,0.0,0.0,0.0,0.0,0.0,0.0,0.0,0.0,0.01748727075755596,0.010377571918070316,0.03467785194516182,0.0,0.0,0.0,0.0,0.0,0.0,0.0,0.0,0.0
1606986617375520217,536497,1606983016078800114,imu_link,0.003511347807943821,0.009188540279865265,0.5306262373924255,0.8475489020347595,0.0,0.0,0.0,0.0,0.0,0.0,0.0,0.0,0.0,64.1043472290039,0.6789162755012512,0.8998408913612366,0.0,0.0,0.0,0.0,0.0,0.0,0.0,0.0,0.0,0.003028595820069313,0.0020218195859342813,0.03685266524553299,0.0,0.0,0.0,0.0,0.0,0.0,0.0,0.0,0.0
1606986617378879268,536498,1606983016078870068,imu_link,0.003511347807943821,0.009188540279865265,0.5306262373924255,0.8475489020347595,0.0,0.0,0.0,0.0,0.0,0.0,0.0,0.0,0.0,64.1043472290039,0.6789162755012512,0.8998408913612366,0.0,0.0,0.0,0.0,0.0,0.0,0.0,0.0,0.0,0.003028595820069313,0.0020218195859342813,0.03685266524553299,0.0,0.0,0.0,0.0,0.0,0.0,0.0,0.0,0.0
1606986617378899012,536499,1606983016078934369,imu_link,0.003510980401188135,0.009190195240080357,0.5306284427642822,0.8475474715232849,0.0,0.0,0.0,0.0,0.0,0.0,0.0,0.0,0.0,64.10465240478516,0.6790969371795654,0.8999077677726746,0.0,0.0,0.0,0.0,0.0,0.0,0.0,0.0,0.0,0.002039139624685049,0.014022992923855782,0.016241755336523056,0.0,0.0,0.0,0.0,0.0,0.0,0.0,0.0,0.0
1606986617378908546,536500,1606983016079021615,imu_link,0.003510980401188135,0.009190195240080357,0.5306284427642822,0.8475474715232849,0.0,0.0,0.0,0.0,0.0,0.0,0.0,0.0,0.0,64.10465240478516,0.6790969371795654,0.8999077677726746,0.0,0.0,0.0,0.0,0.0,0.0,0.0,0.0,0.0,0.002039139624685049,0.014022992923855782,0.016241755336523056,0.0,0.0,0.0,0.0,0.0,0.0,0.0,0.0,0.0
1606986617378934728,536501,1606983016079101556,imu_link,0.0035115082282572985,0.009190094657242298,0.5306273698806763,0.8475481271743774,0.0,0.0,0.0,0.0,0.0,0.0,0.0,0.0,0.0,64.10450744628906,0.6790561676025391,0.8999519944190979,0.0,0.0,0.0,0.0,0.0,0.0,0.0,0.0,0.0,0.0034120846539735794,0.013989229686558247,0.011356666684150696,0.0,0.0,0.0,0.0,0.0,0.0,0.0,0.0,0.0
1606986617433153656,536502,1606983016079163932,imu_link,0.0035115082282572985,0.009190094657242298,0.5306273698806763,0.8475481271743774,0.0,0.0,0.0,0.0,0.0,0.0,0.0,0.0,0.0,64.10450744628906,0.6790561676025391,0.8999519944190979,0.0,0.0,0.0,0.0,0.0,0.0,0.0,0.0,0.0,0.0034120846539735794,0.013989229686558247,0.011356666684150696,0.0,0.0,0.0,0.0,0.0,0.0,0.0,0.0,0.0
1606986617433175006,536503,1606983016079225062,imu_link,0.003508735215291381,0.009189021773636341,0.5306304097175598,0.8475462794303894,0.0,0.0,0.0,0.0,0.0,0.0,0.0,0.0,0.0,64.10491180419922,0.6791174411773682,0.8996197581291199,0.0,0.0,0.0,0.0,0.0,0.0,0.0,0.0,0.0,0.002980644116178155,0.012172911316156387,0.021283121779561043,0.0,0.0,0.0,0.0,0.0,0.0,0.0,0.0,0.0
1606986617433184568,536504,1606983016079285991,imu_link,0.003508735215291381,0.009189021773636341,0.5306304097175598,0.8475462794303894,0.0,0.0,0.0,0.0,0.0,0.0,0.0,0.0,0.0,64.10491180419922,0.6791174411773682,0.8996197581291199,0.0,0.0,0.0,0.0,0.0,0.0,0.0,0.0,0.0,0.002980644116178155,0.012172911316156387,0.021283121779561043,0.0,0.0,0.0,0.0,0.0,0.0,0.0,0.0,0.0
1606986617433193908,536505,1606983016079347990,imu_link,0.0035087375435978174,0.009189063683152199,0.5306313633918762,0.8475456833839417,0.0,0.0,0.0,0.0,0.0,0.0,0.0,0.0,0.0,64.10504150390625,0.6791203618049622,0.8996232748031616,0.0,0.0,0.0,0.0,0.0,0.0,0.0,0.0,0.0,-0.010705195367336273,0.017206186428666115,0.025979014113545418,0.0,0.0,0.0,0.0,0.0,0.0,0.0,0.0,0.0
1606986617433199619,536506,1606983016092549889,imu_link,0.0035087375435978174,0.009189063683152199,0.5306313633918762,0.8475456833839417,0.0,0.0,0.0,0.0,0.0,0.0,0.0,0.0,0.0,64.10504150390625,0.6791203618049622,0.8996232748031616,0.0,0.0,0.0,0.0,0.0,0.0,0.0,0.0,0.0,-0.010705195367336273,0.017206186428666115,0.025979014113545418,0.0,0.0,0.0,0.0,0.0,0.0,0.0,0.0,0.0
1606986617437175469,536507,1606983016092672333,imu_link,0.0035085224080830812,0.009185812436044216,0.5306342244148254,0.8475439548492432,0.0,0.0,0.0,0.0,0.0,0.0,0.0,0.0,0.0,64.10542297363281,0.678814709186554,0.8994068503379822,0.0,0.0,0.0,0.0,0.0,0.0,0.0,0.0,0.0,-0.030893387272953987,0.009994546882808208,0.02273496612906456,0.0,0.0,0.0,0.0,0.0,0.0,0.0,0.0,0.0
1606986617437190388,536508,1606983016092793128,imu_link,0.0035085224080830812,0.009185812436044216,0.5306342244148254,0.8475439548492432,0.0,0.0,0.0,0.0,0.0,0.0,0.0,0.0,0.0,64.10542297363281,0.678814709186554,0.8994068503379822,0.0,0.0,0.0,0.0,0.0,0.0,0.0,0.0,0.0,-0.030893387272953987,0.009994546882808208,0.02273496612906456,0.0,0.0,0.0,0.0,0.0,0.0,0.0,0.0,0.0
1606986617437195366,536509,1606983016092865115,imu_link,0.003508237423375249,0.009186305105686188,0.5306363105773926,0.8475425839424133,0.0,0.0,0.0,0.0,0.0,0.0,0.0,0.0,0.0,64.10570526123047,0.6788776516914368,0.8994109034538269,0.0,0.0,0.0,0.0,0.0,0.0,0.0,0.0,0.0,-0.02090877667069435,-0.005460046697407961,0.021265419200062752,0.0,0.0,0.0,0.0,0.0,0.0,0.0,0.0,0.0
1606986617437208963,536510,1606983016092931044,imu_link,0.003508237423375249,0.009186305105686188,0.5306363105773926,0.8475425839424133,0.0,0.0,0.0,0.0,0.0,0.0,0.0,0.0,0.0,64.10570526123047,0.6788776516914368,0.8994109034538269,0.0,0.0,0.0,0.0,0.0,0.0,0.0,0.0,0.0,-0.02090877667069435,-0.005460046697407961,0.021265419200062752,0.0,0.0,0.0,0.0,0.0,0.0,0.0,0.0,0.0
1606986617445439457,536511,1606983016093012300,imu_link,0.003511222079396248,0.00918253231793642,0.5306393504142761,0.8475406765937805,0.0,0.0,0.0,0.0,0.0,0.0,0.0,0.0,0.0,64.10611724853516,0.678326427936554,0.8994737267494202,0.0,0.0,0.0,0.0,0.0,0.0,0.0,0.0,0.0,-0.0025668481830507517,-0.0238504558801651,0.022896138951182365,0.0,0.0,0.0,0.0,0.0,0.0,0.0,0.0,0.0
1606986617445456693,536512,1606983016093080534,imu_link,0.003511222079396248,0.00918253231793642,0.5306393504142761,0.8475406765937805,0.0,0.0,0.0,0.0,0.0,0.0,0.0,0.0,0.0,64.10611724853516,0.678326427936554,0.8994737267494202,0.0,0.0,0.0,0.0,0.0,0.0,0.0,0.0,0.0,-0.0025668481830507517,-0.0238504558801651,0.022896138951182365,0.0,0.0,0.0,0.0,0.0,0.0,0.0,0.0,0.0
1606986617445473943,536513,1606983016093149300,imu_link,0.0035113508347421885,0.00918195303529501,0.530639111995697,0.8475409150123596,0.0,0.0,0.0,0.0,0.0,0.0,0.0,0.0,0.0,64.1060791015625,0.6782626509666443,0.8994507193565369,0.0,0.0,0.0,0.0,0.0,0.0,0.0,0.0,0.0,-0.01061334740370512,-0.022848030552268028,0.017902325838804245,0.0,0.0,0.0,0.0,0.0,0.0,0.0,0.0,0.0
1606986617445489437,536514,1606983016093202527,imu_link,0.0035113508347421885,0.00918195303529501,0.530639111995697,0.8475409150123596,0.0,0.0,0.0,0.0,0.0,0.0,0.0,0.0,0.0,64.1060791015625,0.6782626509666443,0.8994507193565369,0.0,0.0,0.0,0.0,0.0,0.0,0.0,0.0,0.0,-0.01061334740370512,-0.022848030552268028,0.017902325838804245,0.0,0.0,0.0,0.0,0.0,0.0,0.0,0.0,0.0
1606986617445500009,536515,1606983016093261757,imu_link,0.0035180775448679924,0.009181231260299683,0.5306412577629089,0.847539484500885,0.0,0.0,0.0,0.0,0.0,0.0,0.0,0.0,0.0,64.10637664794922,0.6777811646461487,0.9000619053840637,0.0,0.0,0.0,0.0,0.0,0.0,0.0,0.0,0.0,-0.020278139039874077,-0.012022574432194233,-0.00628260150551796,0.0,0.0,0.0,0.0,0.0,0.0,0.0,0.0,0.0
1606986617449392088,536516,1606983016093317299,imu_link,0.0035180775448679924,0.009181231260299683,0.5306412577629089,0.847539484500885,0.0,0.0,0.0,0.0,0.0,0.0,0.0,0.0,0.0,64.10637664794922,0.6777811646461487,0.9000619053840637,0.0,0.0,0.0,0.0,0.0,0.0,0.0,0.0,0.0,-0.020278139039874077,-0.012022574432194233,-0.00628260150551796,0.0,0.0,0.0,0.0,0.0,0.0,0.0,0.0,0.0
1606986617449405405,536517,1606983016105235351,imu_link,0.003517120610922575,0.009181695058941841,0.5306428074836731,0.8475385308265686,0.0,0.0,0.0,0.0,0.0,0.0,0.0,0.0,0.0,64.10658264160156,0.6778827905654907,0.8999984860420227,0.0,0.0,0.0,0.0,0.0,0.0,0.0,0.0,0.0,-0.0007235094672068954,-0.009026389569044113,-0.013669099658727646,0.0,0.0,0.0,0.0,0.0,0.0,0.0,0.0,0.0
1606986617449410448,536518,1606983016105324931,imu_link,0.003517120610922575,0.009181695058941841,0.5306428074836731,0.8475385308265686,0.0,0.0,0.0,0.0,0.0,0.0,0.0,0.0,0.0,64.10658264160156,0.6778827905654907,0.8999984860420227,0.0,0.0,0.0,0.0,0.0,0.0,0.0,0.0,0.0,-0.0007235094672068954,-0.009026389569044113,-0.013669099658727646,0.0,0.0,0.0,0.0,0.0,0.0,0.0,0.0,0.0
1606986617449427289,536519,1606983016105391392,imu_link,0.0035186558961868286,0.009182991459965706,0.5306446552276611,0.8475373387336731,0.0,0.0,0.0,0.0,0.0,0.0,0.0,0.0,0.0,64.1068344116211,0.6779133081436157,0.900227963924408,0.0,0.0,0.0,0.0,0.0,0.0,0.0,0.0,0.0,0.02046445570886135,0.0006627999246120453,0.014232497662305832,0.0,0.0,0.0,0.0,0.0,0.0,0.0,0.0,0.0
1606986617530051828,536520,1606983016105443526,imu_link,0.0035186558961868286,0.009182991459965706,0.5306446552276611,0.8475373387336731,0.0,0.0,0.0,0.0,0.0,0.0,0.0,0.0,0.0,64.1068344116211,0.6779133081436157,0.900227963924408,0.0,0.0,0.0,0.0,0.0,0.0,0.0,0.0,0.0,0.02046445570886135,0.0006627999246120453,0.014232497662305832,0.0,0.0,0.0,0.0,0.0,0.0,0.0,0.0,0.0
1606986617530068848,536521,1606983016105497755,imu_link,0.0035180589184165,0.009182699024677277,0.5306450724601746,0.847537100315094,0.0,0.0,0.0,0.0,0.0,0.0,0.0,0.0,0.0,64.10689544677734,0.6779207587242126,0.9001523852348328,0.0,0.0,0.0,0.0,0.0,0.0,0.0,0.0,0.0,0.01988377422094345,0.022002171725034714,0.02771080657839775,0.0,0.0,0.0,0.0,0.0,0.0,0.0,0.0,0.0
1606986617530087763,536522,1606983016105564977,imu_link,0.0035180589184165,0.009182699024677277,0.5306450724601746,0.847537100315094,0.0,0.0,0.0,0.0,0.0,0.0,0.0,0.0,0.0,64.10689544677734,0.6779207587242126,0.9001523852348328,0.0,0.0,0.0,0.0,0.0,0.0,0.0,0.0,0.0,0.01988377422094345,0.022002171725034714,0.02771080657839775,0.0,0.0,0.0,0.0,0.0,0.0,0.0,0.0,0.0
1606986617530098548,536523,1606983016105620526,imu_link,0.003511448623612523,0.00918511301279068,0.530639111995697,0.8475408554077148,0.0,0.0,0.0,0.0,0.0,0.0,0.0,0.0,0.0,64.1060791015625,0.6785635948181152,0.8996525406837463,0.0,0.0,0.0,0.0,0.0,0.0,0.0,0.0,0.0,-0.0007054132292978466,0.024815620854496956,0.04299967363476753,0.0,0.0,0.0,0.0,0.0,0.0,0.0,0.0,0.0
1606986617530107076,536524,1606983016105701784,imu_link,0.003511448623612523,0.00918511301279068,0.530639111995697,0.8475408554077148,0.0,0.0,0.0,0.0,0.0,0.0,0.0,0.0,0.0,64.1060791015625,0.6785635948181152,0.8996525406837463,0.0,0.0,0.0,0.0,0.0,0.0,0.0,0.0,0.0,-0.0007054132292978466,0.024815620854496956,0.04299967363476753,0.0,0.0,0.0,0.0,0.0,0.0,0.0,0.0,0.0
1606986617536923891,536525,1606983016105756701,imu_link,0.0035106914583593607,0.009184216149151325,0.5306394100189209,0.8475406765937805,0.0,0.0,0.0,0.0,0.0,0.0,0.0,0.0,0.0,64.10612487792969,0.6785222291946411,0.8995245695114136,0.0,0.0,0.0,0.0,0.0,0.0,0.0,0.0,0.0,-0.018723495304584503,0.0031669423915445805,0.033919572830200195,0.0,0.0,0.0,0.0,0.0,0.0,0.0,0.0,0.0
1606986617536942593,536526,1606983016105812450,imu_link,0.0035106914583593607,0.009184216149151325,0.5306394100189209,0.8475406765937805,0.0,0.0,0.0,0.0,0.0,0.0,0.0,0.0,0.0,64.10612487792969,0.6785222291946411,0.8995245695114136,0.0,0.0,0.0,0.0,0.0,0.0,0.0,0.0,0.0,-0.018723495304584503,0.0031669423915445805,0.033919572830200195,0.0,0.0,0.0,0.0,0.0,0.0,0.0,0.0,0.0
1606986617536952934,536527,1606983016118858024,imu_link,0.003511267015710473,0.00918089784681797,0.5306344628334045,0.8475438356399536,0.0,0.0,0.0,0.0,0.0,0.0,0.0,0.0,0.0,64.1054458618164,0.6781702637672424,0.8993747234344482,0.0,0.0,0.0,0.0,0.0,0.0,0.0,0.0,0.0,-0.0064815329387784,-0.0038109193556010723,0.038755543529987335,0.0,0.0,0.0,0.0,0.0,0.0,0.0,0.0,0.0
1606986617536972851,536528,1606983016119019945,imu_link,0.003511267015710473,0.00918089784681797,0.5306344628334045,0.8475438356399536,0.0,0.0,0.0,0.0,0.0,0.0,0.0,0.0,0.0,64.1054458618164,0.6781702637672424,0.8993747234344482,0.0,0.0,0.0,0.0,0.0,0.0,0.0,0.0,0.0,-0.0064815329387784,-0.0038109193556010723,0.038755543529987335,0.0,0.0,0.0,0.0,0.0,0.0,0.0,0.0,0.0
1606986617565401244,536529,1606983016119101721,imu_link,0.0035095748025923967,0.009182390756905079,0.5306339263916016,0.8475441336631775,0.0,0.0,0.0,0.0,0.0,0.0,0.0,0.0,0.0,64.10537719726562,0.6784186959266663,0.8993006348609924,0.0,0.0,0.0,0.0,0.0,0.0,0.0,0.0,0.0,0.00858994759619236,0.008027453906834126,0.05222810059785843,0.0,0.0,0.0,0.0,0.0,0.0,0.0,0.0,0.0
1606986617565429359,536530,1606983016119173447,imu_link,0.0035095748025923967,0.009182390756905079,0.5306339263916016,0.8475441336631775,0.0,0.0,0.0,0.0,0.0,0.0,0.0,0.0,0.0,64.10537719726562,0.6784186959266663,0.8993006348609924,0.0,0.0,0.0,0.0,0.0,0.0,0.0,0.0,0.0,0.00858994759619236,0.008027453906834126,0.05222810059785843,0.0,0.0,0.0,0.0,0.0,0.0,0.0,0.0,0.0
1606986617565461668,536531,1606983016119261856,imu_link,0.0035072604659944773,0.009183120913803577,0.530628502368927,0.8475475311279297,0.0,0.0,0.0,0.0,0.0,0.0,0.0,0.0,0.0,64.10464477539062,0.6786360740661621,0.899116039276123,0.0,0.0,0.0,0.0,0.0,0.0,0.0,0.0,0.0,0.014773808419704437,0.002833017148077488,0.020601317286491394,0.0,0.0,0.0,0.0,0.0,0.0,0.0,0.0,0.0
1606986617565471411,536532,1606983016119332643,imu_link,0.0035072604659944773,0.009183120913803577,0.530628502368927,0.8475475311279297,0.0,0.0,0.0,0.0,0.0,0.0,0.0,0.0,0.0,64.10464477539062,0.6786360740661621,0.899116039276123,0.0,0.0,0.0,0.0,0.0,0.0,0.0,0.0,0.0,0.014773808419704437,0.002833017148077488,0.020601317286491394,0.0,0.0,0.0,0.0,0.0,0.0,0.0,0.0,0.0
1606986617565485080,536533,1606983016119434099,imu_link,0.0035083675757050514,0.009184046648442745,0.5306298732757568,0.8475466370582581,0.0,0.0,0.0,0.0,0.0,0.0,0.0,0.0,0.0,64.1048355102539,0.6786572337150574,0.8992807865142822,0.0,0.0,0.0,0.0,0.0,0.0,0.0,0.0,0.0,0.012080573476850986,-0.0071706161834299564,0.011428219266235828,0.0,0.0,0.0,0.0,0.0,0.0,0.0,0.0,0.0
1606986617570171480,536534,1606983016119505897,imu_link,0.0035083675757050514,0.009184046648442745,0.5306298732757568,0.8475466370582581,0.0,0.0,0.0,0.0,0.0,0.0,0.0,0.0,0.0,64.1048355102539,0.6786572337150574,0.8992807865142822,0.0,0.0,0.0,0.0,0.0,0.0,0.0,0.0,0.0,0.012080573476850986,-0.0071706161834299564,0.011428219266235828,0.0,0.0,0.0,0.0,0.0,0.0,0.0,0.0,0.0
1606986617570203744,536535,1606983016119585668,imu_link,0.003508086781948805,0.009185448288917542,0.5306252241134644,0.8475496172904968,0.0,0.0,0.0,0.0,0.0,0.0,0.0,0.0,0.0,64.10420227050781,0.6788154244422913,0.8993352055549622,0.0,0.0,0.0,0.0,0.0,0.0,0.0,0.0,0.0,-0.00245579332113266,-0.004241146147251129,0.014944382943212986,0.0,0.0,0.0,0.0,0.0,0.0,0.0,0.0,0.0
1606986617570222752,536536,1606983016119655612,imu_link,0.003508086781948805,0.009185448288917542,0.5306252241134644,0.8475496172904968,0.0,0.0,0.0,0.0,0.0,0.0,0.0,0.0,0.0,64.10420227050781,0.6788154244422913,0.8993352055549622,0.0,0.0,0.0,0.0,0.0,0.0,0.0,0.0,0.0,-0.00245579332113266,-0.004241146147251129,0.014944382943212986,0.0,0.0,0.0,0.0,0.0,0.0,0.0,0.0,0.0
1606986617570233085,536537,1606983016119725071,imu_link,0.0035084066912531853,0.009181628003716469,0.5306245684623718,0.8475500345230103,0.0,0.0,0.0,0.0,0.0,0.0,0.0,0.0,0.0,64.10411071777344,0.6784256100654602,0.8991333246231079,0.0,0.0,0.0,0.0,0.0,0.0,0.0,0.0,0.0,0.003927457146346569,-0.008610858581960201,0.027483951300382614,0.0,0.0,0.0,0.0,0.0,0.0,0.0,0.0,0.0
1606986617622157475,536538,1606983016132615138,imu_link,0.0035084066912531853,0.009181628003716469,0.5306245684623718,0.8475500345230103,0.0,0.0,0.0,0.0,0.0,0.0,0.0,0.0,0.0,64.10411071777344,0.6784256100654602,0.8991333246231079,0.0,0.0,0.0,0.0,0.0,0.0,0.0,0.0,0.0,0.003927457146346569,-0.008610858581960201,0.027483951300382614,0.0,0.0,0.0,0.0,0.0,0.0,0.0,0.0,0.0
1606986617622186776,536539,1606983016132742851,imu_link,0.0035112889017909765,0.009181268513202667,0.5306228399276733,0.8475509881973267,0.0,0.0,0.0,0.0,0.0,0.0,0.0,0.0,0.0,64.1038818359375,0.6782171726226807,0.8993901610374451,0.0,0.0,0.0,0.0,0.0,0.0,0.0,0.0,0.0,0.015174075961112976,-0.009484083391726017,0.01927216537296772,0.0,0.0,0.0,0.0,0.0,0.0,0.0,0.0,0.0
1606986617622202372,536540,1606983016132836250,imu_link,0.0035112889017909765,0.009181268513202667,0.5306228399276733,0.8475509881973267,0.0,0.0,0.0,0.0,0.0,0.0,0.0,0.0,0.0,64.1038818359375,0.6782171726226807,0.8993901610374451,0.0,0.0,0.0,0.0,0.0,0.0,0.0,0.0,0.0,0.015174075961112976,-0.009484083391726017,0.01927216537296772,0.0,0.0,0.0,0.0,0.0,0.0,0.0,0.0,0.0
1606986617622225060,536541,1606983016132916689,imu_link,0.0035139292012900114,0.009182242676615715,0.5306217670440674,0.8475517630577087,0.0,0.0,0.0,0.0,0.0,0.0,0.0,0.0,0.0,64.1037368774414,0.6781525015830994,0.8997049331665039,0.0,0.0,0.0,0.0,0.0,0.0,0.0,0.0,0.0,0.00506307790055871,0.00999410543590784,-0.00038126163417473435,0.0,0.0,0.0,0.0,0.0,0.0,0.0,0.0,0.0
1606986617622235646,536542,1606983016132999533,imu_link,0.0035139292012900114,0.009182242676615715,0.5306217670440674,0.8475517630577087,0.0,0.0,0.0,0.0,0.0,0.0,0.0,0.0,0.0,64.1037368774414,0.6781525015830994,0.8997049331665039,0.0,0.0,0.0,0.0,0.0,0.0,0.0,0.0,0.0,0.00506307790055871,0.00999410543590784,-0.00038126163417473435,0.0,0.0,0.0,0.0,0.0,0.0,0.0,0.0,0.0
1606986617627019049,536543,1606983016133070806,imu_link,0.003511135932058096,0.00917944684624672,0.5306195616722107,0.8475531339645386,0.0,0.0,0.0,0.0,0.0,0.0,0.0,0.0,0.0,64.10343170166016,0.6780531406402588,0.8992618322372437,0.0,0.0,0.0,0.0,0.0,0.0,0.0,0.0,0.0,-0.01664426177740097,0.00536954402923584,0.011153568513691425,0.0,0.0,0.0,0.0,0.0,0.0,0.0,0.0,0.0
1606986617627034750,536544,1606983016133173840,imu_link,0.003511135932058096,0.00917944684624672,0.5306195616722107,0.8475531339645386,0.0,0.0,0.0,0.0,0.0,0.0,0.0,0.0,0.0,64.10343170166016,0.6780531406402588,0.8992618322372437,0.0,0.0,0.0,0.0,0.0,0.0,0.0,0.0,0.0,-0.01664426177740097,0.00536954402923584,0.011153568513691425,0.0,0.0,0.0,0.0,0.0,0.0,0.0,0.0,0.0
1606986617627044750,536545,1606983016133246399,imu_link,0.003509958740323782,0.009181139059364796,0.5306211113929749,0.8475521802902222,0.0,0.0,0.0,0.0,0.0,0.0,0.0,0.0,0.0,64.10364532470703,0.6782874464988708,0.8992515802383423,0.0,0.0,0.0,0.0,0.0,0.0,0.0,0.0,0.0,-0.018629373982548714,-0.00023998875985853374,0.008345977403223515,0.0,0.0,0.0,0.0,0.0,0.0,0.0,0.0,0.0
1606986617627057006,536546,1606983016133325479,imu_link,0.003509958740323782,0.009181139059364796,0.5306211113929749,0.8475521802902222,0.0,0.0,0.0,0.0,0.0,0.0,0.0,0.0,0.0,64.10364532470703,0.6782874464988708,0.8992515802383423,0.0,0.0,0.0,0.0,0.0,0.0,0.0,0.0,0.0,-0.018629373982548714,-0.00023998875985853374,0.008345977403223515,0.0,0.0,0.0,0.0,0.0,0.0,0.0,0.0,0.0
1606986617636935314,536547,1606983016133399058,imu_link,0.003512154333293438,0.00917786918580532,0.5306227803230286,0.847551167011261,0.0,0.0,0.0,0.0,0.0,0.0,0.0,0.0,0.0,64.1038589477539,0.6778345704078674,0.8992672562599182,0.0,0.0,0.0,0.0,0.0,0.0,0.0,0.0,0.0,-0.01961306668817997,0.005670800805091858,-0.004416950978338718,0.0,0.0,0.0,0.0,0.0,0.0,0.0,0.0,0.0
1606986617636957863,536548,1606983016133468530,imu_link,0.003512154333293438,0.00917786918580532,0.5306227803230286,0.847551167011261,0.0,0.0,0.0,0.0,0.0,0.0,0.0,0.0,0.0,64.1038589477539,0.6778345704078674,0.8992672562599182,0.0,0.0,0.0,0.0,0.0,0.0,0.0,0.0,0.0,-0.01961306668817997,0.005670800805091858,-0.004416950978338718,0.0,0.0,0.0,0.0,0.0,0.0,0.0,0.0,0.0
1606986617636967667,536549,1606983016146135779,imu_link,0.003513188799843192,0.009176874533295631,0.5306228995323181,0.8475511074066162,0.0,0.0,0.0,0.0,0.0,0.0,0.0,0.0,0.0,64.10387420654297,0.6776748895645142,0.8993072509765625,0.0,0.0,0.0,0.0,0.0,0.0,0.0,0.0,0.0,-0.01302320882678032,0.006300512235611677,-0.0059789735823869705,0.0,0.0,0.0,0.0,0.0,0.0,0.0,0.0,0.0
1606986617636974563,536550,1606983016146261871,imu_link,0.003513188799843192,0.009176874533295631,0.5306228995323181,0.8475511074066162,0.0,0.0,0.0,0.0,0.0,0.0,0.0,0.0,0.0,64.10387420654297,0.6776748895645142,0.8993072509765625,0.0,0.0,0.0,0.0,0.0,0.0,0.0,0.0,0.0,-0.01302320882678032,0.006300512235611677,-0.0059789735823869705,0.0,0.0,0.0,0.0,0.0,0.0,0.0,0.0,0.0
1606986617639912573,536551,1606983016146362714,imu_link,0.0035134318750351667,0.009173732250928879,0.5306245684623718,0.847550094127655,0.0,0.0,0.0,0.0,0.0,0.0,0.0,0.0,0.0,64.1041030883789,0.6773532629013062,0.8991410136222839,0.0,0.0,0.0,0.0,0.0,0.0,0.0,0.0,0.0,-0.010325481183826923,-0.005154144484549761,0.006212297827005386,0.0,0.0,0.0,0.0,0.0,0.0,0.0,0.0,0.0
1606986617639931905,536552,1606983016146442913,imu_link,0.0035134318750351667,0.009173732250928879,0.5306245684623718,0.847550094127655,0.0,0.0,0.0,0.0,0.0,0.0,0.0,0.0,0.0,64.1041030883789,0.6773532629013062,0.8991410136222839,0.0,0.0,0.0,0.0,0.0,0.0,0.0,0.0,0.0,-0.010325481183826923,-0.005154144484549761,0.006212297827005386,0.0,0.0,0.0,0.0,0.0,0.0,0.0,0.0,0.0
1606986617639943360,536553,1606983016146527633,imu_link,0.0035118828527629375,0.009176214225590229,0.5306253433227539,0.847549557685852,0.0,0.0,0.0,0.0,0.0,0.0,0.0,0.0,0.0,64.10420227050781,0.6776875853538513,0.8991422653198242,0.0,0.0,0.0,0.0,0.0,0.0,0.0,0.0,0.0,-0.010630220174789429,-0.022689225152134895,0.025658298283815384,0.0,0.0,0.0,0.0,0.0,0.0,0.0,0.0,0.0
1606986617639974241,536554,1606983016146601587,imu_link,0.0035118828527629375,0.009176214225590229,0.5306253433227539,0.847549557685852,0.0,0.0,0.0,0.0,0.0,0.0,0.0,0.0,0.0,64.10420227050781,0.6776875853538513,0.8991422653198242,0.0,0.0,0.0,0.0,0.0,0.0,0.0,0.0,0.0,-0.010630220174789429,-0.022689225152134895,0.025658298283815384,0.0,0.0,0.0,0.0,0.0,0.0,0.0,0.0,0.0
1606986617640002970,536555,1606983016146730984,imu_link,0.0035164491273462772,0.009176444262266159,0.530624508857727,0.8475500345230103,0.0,0.0,0.0,0.0,0.0,0.0,0.0,0.0,0.0,64.1041030883789,0.6774331331253052,0.8995991349220276,0.0,0.0,0.0,0.0,0.0,0.0,0.0,0.0,0.0,-0.0011685020290315151,-0.01804700307548046,0.04866262152791023,0.0,0.0,0.0,0.0,0.0,0.0,0.0,0.0,0.0
1606986617710419741,536556,1606983016146805102,imu_link,0.0035164491273462772,0.009176444262266159,0.530624508857727,0.8475500345230103,0.0,0.0,0.0,0.0,0.0,0.0,0.0,0.0,0.0,64.1041030883789,0.6774331331253052,0.8995991349220276,0.0,0.0,0.0,0.0,0.0,0.0,0.0,0.0,0.0,-0.0011685020290315151,-0.01804700307548046,0.04866262152791023,0.0,0.0,0.0,0.0,0.0,0.0,0.0,0.0,0.0
1606986617710434386,536557,1606983016146918164,imu_link,0.003517677541822195,0.009177017025649548,0.5306231379508972,0.8475508689880371,0.0,0.0,0.0,0.0,0.0,0.0,0.0,0.0,0.0,64.10391998291016,0.6774154305458069,0.8997521996498108,0.0,0.0,0.0,0.0,0.0,0.0,0.0,0.0,0.0,0.011079154908657074,-0.00625964067876339,0.05686372146010399,0.0,0.0,0.0,0.0,0.0,0.0,0.0,0.0,0.0
1606986617710471908,536558,1606983016147020097,imu_link,0.003517677541822195,0.009177017025649548,0.5306231379508972,0.8475508689880371,0.0,0.0,0.0,0.0,0.0,0.0,0.0,0.0,0.0,64.10391998291016,0.6774154305458069,0.8997521996498108,0.0,0.0,0.0,0.0,0.0,0.0,0.0,0.0,0.0,0.011079154908657074,-0.00625964067876339,0.05686372146010399,0.0,0.0,0.0,0.0,0.0,0.0,0.0,0.0,0.0
1606986617710477997,536559,1606983016147095467,imu_link,0.003518070559948683,0.009181531146168709,0.5306212902069092,0.8475520014762878,0.0,0.0,0.0,0.0,0.0,0.0,0.0,0.0,0.0,64.10366821289062,0.6778319478034973,0.9000635147094727,0.0,0.0,0.0,0.0,0.0,0.0,0.0,0.0,0.0,0.028440527617931366,0.003508850699290633,0.029108913615345955,0.0,0.0,0.0,0.0,0.0,0.0,0.0,0.0,0.0
1606986617713906653,536560,1606983016159971594,imu_link,0.003518070559948683,0.009181531146168709,0.5306212902069092,0.8475520014762878,0.0,0.0,0.0,0.0,0.0,0.0,0.0,0.0,0.0,64.10366821289062,0.6778319478034973,0.9000635147094727,0.0,0.0,0.0,0.0,0.0,0.0,0.0,0.0,0.0,0.028440527617931366,0.003508850699290633,0.029108913615345955,0.0,0.0,0.0,0.0,0.0,0.0,0.0,0.0,0.0
1606986617713932992,536561,1606983016160113627,imu_link,0.003516322700306773,0.009180800057947636,0.5306216478347778,0.8475518226623535,0.0,0.0,0.0,0.0,0.0,0.0,0.0,0.0,0.0,64.10371398925781,0.6778668761253357,0.899849534034729,0.0,0.0,0.0,0.0,0.0,0.0,0.0,0.0,0.0,0.0070494599640369415,0.003104615490883589,0.009930937550961971,0.0,0.0,0.0,0.0,0.0,0.0,0.0,0.0,0.0
1606986617713943289,536562,1606983016160266551,imu_link,0.003516322700306773,0.009180800057947636,0.5306216478347778,0.8475518226623535,0.0,0.0,0.0,0.0,0.0,0.0,0.0,0.0,0.0,64.10371398925781,0.6778668761253357,0.899849534034729,0.0,0.0,0.0,0.0,0.0,0.0,0.0,0.0,0.0,0.0070494599640369415,0.003104615490883589,0.009930937550961971,0.0,0.0,0.0,0.0,0.0,0.0,0.0,0.0,0.0
1606986617713956490,536563,1606983016160363480,imu_link,0.0035170530900359154,0.009180616587400436,0.5306265354156494,0.8475486636161804,0.0,0.0,0.0,0.0,0.0,0.0,0.0,0.0,0.0,64.10438537597656,0.6777993440628052,0.8999133110046387,0.0,0.0,0.0,0.0,0.0,0.0,0.0,0.0,0.0,-0.010668089613318443,0.0005326374084688723,0.011816305108368397,0.0,0.0,0.0,0.0,0.0,0.0,0.0,0.0,0.0
1606986617713975111,536564,1606983016160443801,imu_link,0.0035170530900359154,0.009180616587400436,0.5306265354156494,0.8475486636161804,0.0,0.0,0.0,0.0,0.0,0.0,0.0,0.0,0.0,64.10438537597656,0.6777993440628052,0.8999133110046387,0.0,0.0,0.0,0.0,0.0,0.0,0.0,0.0,0.0,-0.010668089613318443,0.0005326374084688723,0.011816305108368397,0.0,0.0,0.0,0.0,0.0,0.0,0.0,0.0,0.0
1606986617754307750,536565,1606983016160545647,imu_link,0.003516674041748047,0.009181163273751736,0.5306265354156494,0.8475486636161804,0.0,0.0,0.0,0.0,0.0,0.0,0.0,0.0,0.0,64.10438537597656,0.6778755187988281,0.8999097943305969,0.0,0.0,0.0,0.0,0.0,0.0,0.0,0.0,0.0,-0.01458218414336443,-0.005981096066534519,0.01766221411526203,0.0,0.0,0.0,0.0,0.0,0.0,0.0,0.0,0.0
1606986617754348011,536566,1606983016160628935,imu_link,0.003516674041748047,0.009181163273751736,0.5306265354156494,0.8475486636161804,0.0,0.0,0.0,0.0,0.0,0.0,0.0,0.0,0.0,64.10438537597656,0.6778755187988281,0.8999097943305969,0.0,0.0,0.0,0.0,0.0,0.0,0.0,0.0,0.0,-0.01458218414336443,-0.005981096066534519,0.01766221411526203,0.0,0.0,0.0,0.0,0.0,0.0,0.0,0.0,0.0
1606986617754360632,536567,1606983016160710453,imu_link,0.003519258927553892,0.00918223150074482,0.5306331515312195,0.8475446105003357,0.0,0.0,0.0,0.0,0.0,0.0,0.0,0.0,0.0,64.10527801513672,0.6778151392936707,0.9002310633659363,0.0,0.0,0.0,0.0,0.0,0.0,0.0,0.0,0.0,-0.016166482120752335,-0.014570701867341995,0.017261499539017677,0.0,0.0,0.0,0.0,0.0,0.0,0.0,0.0,0.0
1606986617754373098,536568,1606983016160792634,imu_link,0.003519258927553892,0.00918223150074482,0.5306331515312195,0.8475446105003357,0.0,0.0,0.0,0.0,0.0,0.0,0.0,0.0,0.0,64.10527801513672,0.6778151392936707,0.9002310633659363,0.0,0.0,0.0,0.0,0.0,0.0,0.0,0.0,0.0,-0.016166482120752335,-0.014570701867341995,0.017261499539017677,0.0,0.0,0.0,0.0,0.0,0.0,0.0,0.0,0.0
1606986617757865213,536569,1606983016160871682,imu_link,0.003519403515383601,0.009183807298541069,0.5306324362754822,0.8475450277328491,0.0,0.0,0.0,0.0,0.0,0.0,0.0,0.0,0.0,64.10517883300781,0.6779600381851196,0.90034019947052,0.0,0.0,0.0,0.0,0.0,0.0,0.0,0.0,0.0,0.00025044375797733665,-0.01424140390008688,0.003617738839238882,0.0,0.0,0.0,0.0,0.0,0.0,0.0,0.0,0.0
1606986617757961852,536570,1606983016160952423,imu_link,0.003519403515383601,0.009183807298541069,0.5306324362754822,0.8475450277328491,0.0,0.0,0.0,0.0,0.0,0.0,0.0,0.0,0.0,64.10517883300781,0.6779600381851196,0.90034019947052,0.0,0.0,0.0,0.0,0.0,0.0,0.0,0.0,0.0,0.00025044375797733665,-0.01424140390008688,0.003617738839238882,0.0,0.0,0.0,0.0,0.0,0.0,0.0,0.0,0.0
1606986617757990951,536571,1606983016172751305,imu_link,0.003520008409395814,0.009184138849377632,0.5306277275085449,0.8475479483604431,0.0,0.0,0.0,0.0,0.0,0.0,0.0,0.0,0.0,64.10454559326172,0.6779605150222778,0.9004153609275818,0.0,0.0,0.0,0.0,0.0,0.0,0.0,0.0,0.0,0.029189957305788994,0.002182968892157078,0.03501634672284126,0.0,0.0,0.0,0.0,0.0,0.0,0.0,0.0,0.0
1606986617758013363,536572,1606983016172876670,imu_link,0.003520008409395814,0.009184138849377632,0.5306277275085449,0.8475479483604431,0.0,0.0,0.0,0.0,0.0,0.0,0.0,0.0,0.0,64.10454559326172,0.6779605150222778,0.9004153609275818,0.0,0.0,0.0,0.0,0.0,0.0,0.0,0.0,0.0,0.029189957305788994,0.002182968892157078,0.03501634672284126,0.0,0.0,0.0,0.0,0.0,0.0,0.0,0.0,0.0
1606986617758029076,536573,1606983016173055218,imu_link,0.0035198424011468887,0.009182708337903023,0.5306289792060852,0.847547173500061,0.0,0.0,0.0,0.0,0.0,0.0,0.0,0.0,0.0,64.1047134399414,0.6778303980827332,0.9003133177757263,0.0,0.0,0.0,0.0,0.0,0.0,0.0,0.0,0.0,0.024310864508152008,0.004613909870386124,0.056933507323265076,0.0,0.0,0.0,0.0,0.0,0.0,0.0,0.0,0.0
1606986617843540713,536574,1606983016173139478,imu_link,0.0035198424011468887,0.009182708337903023,0.5306289792060852,0.847547173500061,0.0,0.0,0.0,0.0,0.0,0.0,0.0,0.0,0.0,64.1047134399414,0.6778303980827332,0.9003133177757263,0.0,0.0,0.0,0.0,0.0,0.0,0.0,0.0,0.0,0.024310864508152008,0.004613909870386124,0.056933507323265076,0.0,0.0,0.0,0.0,0.0,0.0,0.0,0.0,0.0
1606986617843559482,536575,1606983016173228273,imu_link,0.0035198424011468887,0.009186423383653164,0.5306267142295837,0.8475485444068909,0.0,0.0,0.0,0.0,0.0,0.0,0.0,0.0,0.0,64.10440826416016,0.6781935691833496,0.9005374312400818,0.0,0.0,0.0,0.0,0.0,0.0,0.0,0.0,0.0,0.00890550296753645,-0.024583151564002037,0.03161626309156418,0.0,0.0,0.0,0.0,0.0,0.0,0.0,0.0,0.0
1606986617843571650,536576,1606983016173329473,imu_link,0.0035198424011468887,0.009186423383653164,0.5306267142295837,0.8475485444068909,0.0,0.0,0.0,0.0,0.0,0.0,0.0,0.0,0.0,64.10440826416016,0.6781935691833496,0.9005374312400818,0.0,0.0,0.0,0.0,0.0,0.0,0.0,0.0,0.0,0.00890550296753645,-0.024583151564002037,0.03161626309156418,0.0,0.0,0.0,0.0,0.0,0.0,0.0,0.0,0.0
1606986617843585283,536577,1606983016173410615,imu_link,0.0035185853485018015,0.009185022674500942,0.5306273102760315,0.8475481867790222,0.0,0.0,0.0,0.0,0.0,0.0,0.0,0.0,0.0,64.1044921875,0.6781333088874817,0.9003307223320007,0.0,0.0,0.0,0.0,0.0,0.0,0.0,0.0,0.0,0.0071868253871798515,-0.02138170413672924,0.022542985156178474,0.0,0.0,0.0,0.0,0.0,0.0,0.0,0.0,0.0
1606986617847742617,536578,1606983016173490460,imu_link,0.0035185853485018015,0.009185022674500942,0.5306273102760315,0.8475481867790222,0.0,0.0,0.0,0.0,0.0,0.0,0.0,0.0,0.0,64.1044921875,0.6781333088874817,0.9003307223320007,0.0,0.0,0.0,0.0,0.0,0.0,0.0,0.0,0.0,0.0071868253871798515,-0.02138170413672924,0.022542985156178474,0.0,0.0,0.0,0.0,0.0,0.0,0.0,0.0,0.0
1606986617847770719,536579,1606983016173579737,imu_link,0.003519414458423853,0.00918800663203001,0.5306232571601868,0.8475506901741028,0.0,0.0,0.0,0.0,0.0,0.0,0.0,0.0,0.0,64.10394287109375,0.6783769726753235,0.9005895256996155,0.0,0.0,0.0,0.0,0.0,0.0,0.0,0.0,0.0,-0.02037610299885273,0.006532823666930199,0.035007935017347336,0.0,0.0,0.0,0.0,0.0,0.0,0.0,0.0,0.0
1606986617847785586,536580,1606983016173666257,imu_link,0.003519414458423853,0.00918800663203001,0.5306232571601868,0.8475506901741028,0.0,0.0,0.0,0.0,0.0,0.0,0.0,0.0,0.0,64.10394287109375,0.6783769726753235,0.9005895256996155,0.0,0.0,0.0,0.0,0.0,0.0,0.0,0.0,0.0,-0.02037610299885273,0.006532823666930199,0.035007935017347336,0.0,0.0,0.0,0.0,0.0,0.0,0.0,0.0,0.0
1606986617847797243,536581,1606983016186227177,imu_link,0.0035207646433264017,0.009189042262732983,0.5306246876716614,0.8475497961044312,0.0,0.0,0.0,0.0,0.0,0.0,0.0,0.0,0.0,64.1041488647461,0.6783939599990845,0.9007848501205444,0.0,0.0,0.0,0.0,0.0,0.0,0.0,0.0,0.0,-0.02696506679058075,0.023617589846253395,0.02258063666522503,0.0,0.0,0.0,0.0,0.0,0.0,0.0,0.0,0.0
1606986617847833454,536582,1606983016186370433,imu_link,0.0035207646433264017,0.009189042262732983,0.5306246876716614,0.8475497961044312,0.0,0.0,0.0,0.0,0.0,0.0,0.0,0.0,0.0,64.1041488647461,0.6783939599990845,0.9007848501205444,0.0,0.0,0.0,0.0,0.0,0.0,0.0,0.0,0.0,-0.02696506679058075,0.023617589846253395,0.02258063666522503,0.0,0.0,0.0,0.0,0.0,0.0,0.0,0.0,0.0
1606986617858277668,536583,1606983016186474820,imu_link,0.003519443329423666,0.00918353721499443,0.5306205749511719,0.8475524187088013,0.0,0.0,0.0,0.0,0.0,0.0,0.0,0.0,0.0,64.10357666015625,0.6779440641403198,0.9003183245658875,0.0,0.0,0.0,0.0,0.0,0.0,0.0,0.0,0.0,-0.008777424693107605,0.009328462183475494,-0.007140192668884993,0.0,0.0,0.0,0.0,0.0,0.0,0.0,0.0,0.0
1606986617858322890,536584,1606983016186564006,imu_link,0.003519443329423666,0.00918353721499443,0.5306205749511719,0.8475524187088013,0.0,0.0,0.0,0.0,0.0,0.0,0.0,0.0,0.0,64.10357666015625,0.6779440641403198,0.9003183245658875,0.0,0.0,0.0,0.0,0.0,0.0,0.0,0.0,0.0,-0.008777424693107605,0.009328462183475494,-0.007140192668884993,0.0,0.0,0.0,0.0,0.0,0.0,0.0,0.0,0.0
1606986617858345239,536585,1606983016186664138,imu_link,0.00351920910179615,0.009184964932501316,0.5306208729743958,0.8475522398948669,0.0,0.0,0.0,0.0,0.0,0.0,0.0,0.0,0.0,64.10362243652344,0.6780967116355896,0.9003824591636658,0.0,0.0,0.0,0.0,0.0,0.0,0.0,0.0,0.0,-0.002505331300199032,-0.02024361677467823,-0.0007636147201992571,0.0,0.0,0.0,0.0,0.0,0.0,0.0,0.0,0.0
1606986617858365263,536586,1606983016186745937,imu_link,0.00351920910179615,0.009184964932501316,0.5306208729743958,0.8475522398948669,0.0,0.0,0.0,0.0,0.0,0.0,0.0,0.0,0.0,64.10362243652344,0.6780967116355896,0.9003824591636658,0.0,0.0,0.0,0.0,0.0,0.0,0.0,0.0,0.0,-0.002505331300199032,-0.02024361677467823,-0.0007636147201992571,0.0,0.0,0.0,0.0,0.0,0.0,0.0,0.0,0.0
1606986617862230539,536587,1606983016186863885,imu_link,0.00352087477222085,0.00918573047965765,0.5306248664855957,0.8475496768951416,0.0,0.0,0.0,0.0,0.0,0.0,0.0,0.0,0.0,64.10416412353516,0.6780654191970825,0.9005942344665527,0.0,0.0,0.0,0.0,0.0,0.0,0.0,0.0,0.0,-0.0043263742700219154,-0.02833889238536358,0.015177173539996147,0.0,0.0,0.0,0.0,0.0,0.0,0.0,0.0,0.0
1606986617862268422,536588,1606983016186978481,imu_link,0.00352087477222085,0.00918573047965765,0.5306248664855957,0.8475496768951416,0.0,0.0,0.0,0.0,0.0,0.0,0.0,0.0,0.0,64.10416412353516,0.6780654191970825,0.9005942344665527,0.0,0.0,0.0,0.0,0.0,0.0,0.0,0.0,0.0,-0.0043263742700219154,-0.02833889238536358,0.015177173539996147,0.0,0.0,0.0,0.0,0.0,0.0,0.0,0.0,0.0
1606986617862320778,536589,1606983016187066209,imu_link,0.003520722733810544,0.009184940718114376,0.5306246280670166,0.8475498557090759,0.0,0.0,0.0,0.0,0.0,0.0,0.0,0.0,0.0,64.1041259765625,0.6779982447624207,0.9005311727523804,0.0,0.0,0.0,0.0,0.0,0.0,0.0,0.0,0.0,-0.007811919320374727,-0.011922914534807205,0.02533787675201893,0.0,0.0,0.0,0.0,0.0,0.0,0.0,0.0,0.0
1606986617862341405,536590,1606983016187145622,imu_link,0.003520722733810544,0.009184940718114376,0.5306246280670166,0.8475498557090759,0.0,0.0,0.0,0.0,0.0,0.0,0.0,0.0,0.0,64.1041259765625,0.6779982447624207,0.9005311727523804,0.0,0.0,0.0,0.0,0.0,0.0,0.0,0.0,0.0,-0.007811919320374727,-0.011922914534807205,0.02533787675201893,0.0,0.0,0.0,0.0,0.0,0.0,0.0,0.0,0.0
1606986617862400511,536591,1606983016187265099,imu_link,0.0035235555842518806,0.009184494614601135,0.5306274890899658,0.8475481271743774,0.0,0.0,0.0,0.0,0.0,0.0,0.0,0.0,0.0,64.1045150756836,0.6777796745300293,0.9007813930511475,0.0,0.0,0.0,0.0,0.0,0.0,0.0,0.0,0.0,-0.02145797200500965,-0.0054113962687551975,0.036782748997211456,0.0,0.0,0.0,0.0,0.0,0.0,0.0,0.0,0.0
1606986617935629400,536592,1606983016200101992,imu_link,0.0035235555842518806,0.009184494614601135,0.5306274890899658,0.8475481271743774,0.0,0.0,0.0,0.0,0.0,0.0,0.0,0.0,0.0,64.1045150756836,0.6777796745300293,0.9007813930511475,0.0,0.0,0.0,0.0,0.0,0.0,0.0,0.0,0.0,-0.02145797200500965,-0.0054113962687551975,0.036782748997211456,0.0,0.0,0.0,0.0,0.0,0.0,0.0,0.0,0.0
1606986617935672876,536593,1606983016200248662,imu_link,0.003524619620293379,0.009182378649711609,0.5306272506713867,0.847548246383667,0.0,0.0,0.0,0.0,0.0,0.0,0.0,0.0,0.0,64.10447692871094,0.6775096654891968,0.9007558822631836,0.0,0.0,0.0,0.0,0.0,0.0,0.0,0.0,0.0,-0.015384991653263569,-0.01076496858149767,0.03520185500383377,0.0,0.0,0.0,0.0,0.0,0.0,0.0,0.0,0.0
1606986617935699094,536594,1606983016200351745,imu_link,0.003524619620293379,0.009182378649711609,0.5306272506713867,0.847548246383667,0.0,0.0,0.0,0.0,0.0,0.0,0.0,0.0,0.0,64.10447692871094,0.6775096654891968,0.9007558822631836,0.0,0.0,0.0,0.0,0.0,0.0,0.0,0.0,0.0,-0.015384991653263569,-0.01076496858149767,0.03520185500383377,0.0,0.0,0.0,0.0,0.0,0.0,0.0,0.0,0.0
1606986617935713088,536595,1606983016200447312,imu_link,0.0035281952004879713,0.009179682470858097,0.5306300520896912,0.8475465178489685,0.0,0.0,0.0,0.0,0.0,0.0,0.0,0.0,0.0,64.1048583984375,0.6770273447036743,0.9009413719177246,0.0,0.0,0.0,0.0,0.0,0.0,0.0,0.0,0.0,0.0014322287170216441,-0.013667787425220013,0.02157922275364399,0.0,0.0,0.0,0.0,0.0,0.0,0.0,0.0,0.0
1606986617939240260,536596,1606983016200535501,imu_link,0.0035281952004879713,0.009179682470858097,0.5306300520896912,0.8475465178489685,0.0,0.0,0.0,0.0,0.0,0.0,0.0,0.0,0.0,64.1048583984375,0.6770273447036743,0.9009413719177246,0.0,0.0,0.0,0.0,0.0,0.0,0.0,0.0,0.0,0.0014322287170216441,-0.013667787425220013,0.02157922275364399,0.0,0.0,0.0,0.0,0.0,0.0,0.0,0.0,0.0
1606986617939261421,536597,1606983016200616949,imu_link,0.0035289982333779335,0.009179338812828064,0.5306305885314941,0.8475461602210999,0.0,0.0,0.0,0.0,0.0,0.0,0.0,0.0,0.0,64.10492706298828,0.6769446134567261,0.9009988903999329,0.0,0.0,0.0,0.0,0.0,0.0,0.0,0.0,0.0,0.012796818278729916,-0.007520216982811689,-0.005012983456254005,0.0,0.0,0.0,0.0,0.0,0.0,0.0,0.0,0.0
1606986617939276028,536598,1606983016200718539,imu_link,0.0035289982333779335,0.009179338812828064,0.5306305885314941,0.8475461602210999,0.0,0.0,0.0,0.0,0.0,0.0,0.0,0.0,0.0,64.10492706298828,0.6769446134567261,0.9009988903999329,0.0,0.0,0.0,0.0,0.0,0.0,0.0,0.0,0.0,0.012796818278729916,-0.007520216982811689,-0.005012983456254005,0.0,0.0,0.0,0.0,0.0,0.0,0.0,0.0,0.0
1606986617939282314,536599,1606983016200802007,imu_link,0.0035300268791615963,0.009179790504276752,0.530633270740509,0.8475444316864014,0.0,0.0,0.0,0.0,0.0,0.0,0.0,0.0,0.0,64.10529327392578,0.6769230365753174,0.9011285901069641,0.0,0.0,0.0,0.0,0.0,0.0,0.0,0.0,0.0,0.022866515442728996,0.005828063003718853,-0.03372732922434807,0.0,0.0,0.0,0.0,0.0,0.0,0.0,0.0,0.0
1606986617939293352,536600,1606983016200883586,imu_link,0.0035300268791615963,0.009179790504276752,0.530633270740509,0.8475444316864014,0.0,0.0,0.0,0.0,0.0,0.0,0.0,0.0,0.0,64.10529327392578,0.6769230365753174,0.9011285901069641,0.0,0.0,0.0,0.0,0.0,0.0,0.0,0.0,0.0,0.022866515442728996,0.005828063003718853,-0.03372732922434807,0.0,0.0,0.0,0.0,0.0,0.0,0.0,0.0,0.0
1606986617946816465,536601,1606983016200963912,imu_link,0.003529933514073491,0.009177218191325665,0.530630886554718,0.8475460410118103,0.0,0.0,0.0,0.0,0.0,0.0,0.0,0.0,0.0,64.10496520996094,0.6766815185546875,0.9009609222412109,0.0,0.0,0.0,0.0,0.0,0.0,0.0,0.0,0.0,0.016688337549567223,0.012949292548000813,-0.015089883469045162,0.0,0.0,0.0,0.0,0.0,0.0,0.0,0.0,0.0
1606986617946876689,536602,1606983016201045391,imu_link,0.003529933514073491,0.009177218191325665,0.530630886554718,0.8475460410118103,0.0,0.0,0.0,0.0,0.0,0.0,0.0,0.0,0.0,64.10496520996094,0.6766815185546875,0.9009609222412109,0.0,0.0,0.0,0.0,0.0,0.0,0.0,0.0,0.0,0.016688337549567223,0.012949292548000813,-0.015089883469045162,0.0,0.0,0.0,0.0,0.0,0.0,0.0,0.0,0.0
1606986617946890042,536603,1606983016213562469,imu_link,0.003528029192239046,0.009178792126476765,0.5306339859962463,0.8475439548492432,0.0,0.0,0.0,0.0,0.0,0.0,0.0,0.0,0.0,64.10539245605469,0.676946759223938,0.9008743762969971,0.0,0.0,0.0,0.0,0.0,0.0,0.0,0.0,0.0,0.009406819939613342,0.012643481604754925,0.020431753247976303,0.0,0.0,0.0,0.0,0.0,0.0,0.0,0.0,0.0
1606986617946899048,536604,1606983016213709148,imu_link,0.003528029192239046,0.009178792126476765,0.5306339859962463,0.8475439548492432,0.0,0.0,0.0,0.0,0.0,0.0,0.0,0.0,0.0,64.10539245605469,0.676946759223938,0.9008743762969971,0.0,0.0,0.0,0.0,0.0,0.0,0.0,0.0,0.0,0.009406819939613342,0.012643481604754925,0.020431753247976303,0.0,0.0,0.0,0.0,0.0,0.0,0.0,0.0,0.0
1606986617951351816,536605,1606983016213816457,imu_link,0.003528701839968562,0.00917925126850605,0.530633807182312,0.8475440740585327,0.0,0.0,0.0,0.0,0.0,0.0,0.0,0.0,0.0,64.10536193847656,0.6769506335258484,0.900967538356781,0.0,0.0,0.0,0.0,0.0,0.0,0.0,0.0,0.0,0.009781020693480968,0.009084238670766354,0.02022409811615944,0.0,0.0,0.0,0.0,0.0,0.0,0.0,0.0,0.0
1606986617951383509,536606,1606983016213907728,imu_link,0.003528701839968562,0.00917925126850605,0.530633807182312,0.8475440740585327,0.0,0.0,0.0,0.0,0.0,0.0,0.0,0.0,0.0,64.10536193847656,0.6769506335258484,0.900967538356781,0.0,0.0,0.0,0.0,0.0,0.0,0.0,0.0,0.0,0.009781020693480968,0.009084238670766354,0.02022409811615944,0.0,0.0,0.0,0.0,0.0,0.0,0.0,0.0,0.0
1606986617951402706,536607,1606983016214004632,imu_link,0.0035279637668281794,0.009180939756333828,0.5306357741355896,0.847542941570282,0.0,0.0,0.0,0.0,0.0,0.0,0.0,0.0,0.0,64.10562896728516,0.6771575212478638,0.9009999632835388,0.0,0.0,0.0,0.0,0.0,0.0,0.0,0.0,0.0,0.017256103456020355,-0.004940046463161707,0.0027502558659762144,0.0,0.0,0.0,0.0,0.0,0.0,0.0,0.0,0.0
1606986617951412551,536608,1606983016214103842,imu_link,0.0035279637668281794,0.009180939756333828,0.5306357741355896,0.847542941570282,0.0,0.0,0.0,0.0,0.0,0.0,0.0,0.0,0.0,64.10562896728516,0.6771575212478638,0.9009999632835388,0.0,0.0,0.0,0.0,0.0,0.0,0.0,0.0,0.0,0.017256103456020355,-0.004940046463161707,0.0027502558659762144,0.0,0.0,0.0,0.0,0.0,0.0,0.0,0.0,0.0
1606986617951429686,536609,1606983016214188057,imu_link,0.003528447588905692,0.009180963039398193,0.5306353569030762,0.8475431203842163,0.0,0.0,0.0,0.0,0.0,0.0,0.0,0.0,0.0,64.10558319091797,0.6771306991577148,0.9010481238365173,0.0,0.0,0.0,0.0,0.0,0.0,0.0,0.0,0.0,0.022337177768349648,0.002375009236857295,-0.0031700152903795242,0.0,0.0,0.0,0.0,0.0,0.0,0.0,0.0,0.0
1606986618059588583,536610,1606983016214269961,imu_link,0.003528447588905692,0.009180963039398193,0.5306353569030762,0.8475431203842163,0.0,0.0,0.0,0.0,0.0,0.0,0.0,0.0,0.0,64.10558319091797,0.6771306991577148,0.9010481238365173,0.0,0.0,0.0,0.0,0.0,0.0,0.0,0.0,0.0,0.022337177768349648,0.002375009236857295,-0.0031700152903795242,0.0,0.0,0.0,0.0,0.0,0.0,0.0,0.0,0.0
1606986618059634477,536611,1606983016214367828,imu_link,0.003526973072439432,0.009185520000755787,0.5306366086006165,0.8475423455238342,0.0,0.0,0.0,0.0,0.0,0.0,0.0,0.0,0.0,64.10575103759766,0.677661657333374,0.9011831283569336,0.0,0.0,0.0,0.0,0.0,0.0,0.0,0.0,0.0,0.0023189084604382515,0.009791634045541286,0.0007242521387524903,0.0,0.0,0.0,0.0,0.0,0.0,0.0,0.0,0.0
1606986618059646895,536612,1606983016214447302,imu_link,0.003526973072439432,0.009185520000755787,0.5306366086006165,0.8475423455238342,0.0,0.0,0.0,0.0,0.0,0.0,0.0,0.0,0.0,64.10575103759766,0.677661657333374,0.9011831283569336,0.0,0.0,0.0,0.0,0.0,0.0,0.0,0.0,0.0,0.0023189084604382515,0.009791634045541286,0.0007242521387524903,0.0,0.0,0.0,0.0,0.0,0.0,0.0,0.0,0.0
1606986618059657250,536613,1606983016214538197,imu_link,0.003528002882376313,0.009183071553707123,0.530637264251709,0.8475419878959656,0.0,0.0,0.0,0.0,0.0,0.0,0.0,0.0,0.0,64.1058349609375,0.6773605942726135,0.9011346697807312,0.0,0.0,0.0,0.0,0.0,0.0,0.0,0.0,0.0,-0.016668790951371193,-0.0051160529255867004,-0.006534187588840723,0.0,0.0,0.0,0.0,0.0,0.0,0.0,0.0,0.0
1606986618063283587,536614,1606983016226417003,imu_link,0.003528002882376313,0.009183071553707123,0.530637264251709,0.8475419878959656,0.0,0.0,0.0,0.0,0.0,0.0,0.0,0.0,0.0,64.1058349609375,0.6773605942726135,0.9011346697807312,0.0,0.0,0.0,0.0,0.0,0.0,0.0,0.0,0.0,-0.016668790951371193,-0.0051160529255867004,-0.006534187588840723,0.0,0.0,0.0,0.0,0.0,0.0,0.0,0.0,0.0
1606986618063321154,536615,1606983016226556586,imu_link,0.0035310431849211454,0.00918304082006216,0.5306387543678284,0.8475410342216492,0.0,0.0,0.0,0.0,0.0,0.0,0.0,0.0,0.0,64.10603332519531,0.6771711111068726,0.9014292359352112,0.0,0.0,0.0,0.0,0.0,0.0,0.0,0.0,0.0,-0.005045045167207718,-0.0032575202640146017,-0.0002697397430893034,0.0,0.0,0.0,0.0,0.0,0.0,0.0,0.0,0.0
1606986618063341358,536616,1606983016226743033,imu_link,0.0035310431849211454,0.00918304082006216,0.5306387543678284,0.8475410342216492,0.0,0.0,0.0,0.0,0.0,0.0,0.0,0.0,0.0,64.10603332519531,0.6771711111068726,0.9014292359352112,0.0,0.0,0.0,0.0,0.0,0.0,0.0,0.0,0.0,-0.005045045167207718,-0.0032575202640146017,-0.0002697397430893034,0.0,0.0,0.0,0.0,0.0,0.0,0.0,0.0,0.0
1606986618063356999,536617,1606983016226831237,imu_link,0.003532200353220105,0.009182912297546864,0.5306377410888672,0.8475416898727417,0.0,0.0,0.0,0.0,0.0,0.0,0.0,0.0,0.0,64.10589599609375,0.6770893931388855,0.9015330672264099,0.0,0.0,0.0,0.0,0.0,0.0,0.0,0.0,0.0,-0.006013695150613785,0.001171556068584323,0.017144812270998955,0.0,0.0,0.0,0.0,0.0,0.0,0.0,0.0,0.0
1606986618063379451,536618,1606983016226910420,imu_link,0.003532200353220105,0.009182912297546864,0.5306377410888672,0.8475416898727417,0.0,0.0,0.0,0.0,0.0,0.0,0.0,0.0,0.0,64.10589599609375,0.6770893931388855,0.9015330672264099,0.0,0.0,0.0,0.0,0.0,0.0,0.0,0.0,0.0,-0.006013695150613785,0.001171556068584323,0.017144812270998955,0.0,0.0,0.0,0.0,0.0,0.0,0.0,0.0,0.0
1606986618072847760,536619,1606983016227043553,imu_link,0.0035346783697605133,0.009182530455291271,0.5306397080421448,0.8475404381752014,0.0,0.0,0.0,0.0,0.0,0.0,0.0,0.0,0.0,64.10617065429688,0.6768994331359863,0.9017519354820251,0.0,0.0,0.0,0.0,0.0,0.0,0.0,0.0,0.0,-0.022334042936563492,0.003672625869512558,0.036790087819099426,0.0,0.0,0.0,0.0,0.0,0.0,0.0,0.0,0.0
1606986618072873810,536620,1606983016227130028,imu_link,0.0035346783697605133,0.009182530455291271,0.5306397080421448,0.8475404381752014,0.0,0.0,0.0,0.0,0.0,0.0,0.0,0.0,0.0,64.10617065429688,0.6768994331359863,0.9017519354820251,0.0,0.0,0.0,0.0,0.0,0.0,0.0,0.0,0.0,-0.022334042936563492,0.003672625869512558,0.036790087819099426,0.0,0.0,0.0,0.0,0.0,0.0,0.0,0.0,0.0
1606986618072886596,536621,1606983016227209126,imu_link,0.0035341910552233458,0.009183868765830994,0.5306400656700134,0.8475401997566223,0.0,0.0,0.0,0.0,0.0,0.0,0.0,0.0,0.0,64.10621643066406,0.6770586967468262,0.9017863869667053,0.0,0.0,0.0,0.0,0.0,0.0,0.0,0.0,0.0,-0.007242694031447172,0.010633894242346287,0.024266919121146202,0.0,0.0,0.0,0.0,0.0,0.0,0.0,0.0,0.0
1606986618072896317,536622,1606983016227289953,imu_link,0.0035341910552233458,0.009183868765830994,0.5306400656700134,0.8475401997566223,0.0,0.0,0.0,0.0,0.0,0.0,0.0,0.0,0.0,64.10621643066406,0.6770586967468262,0.9017863869667053,0.0,0.0,0.0,0.0,0.0,0.0,0.0,0.0,0.0,-0.007242694031447172,0.010633894242346287,0.024266919121146202,0.0,0.0,0.0,0.0,0.0,0.0,0.0,0.0,0.0
1606986618076370300,536623,1606983016227370630,imu_link,0.003535113064572215,0.009182452224195004,0.5306428670883179,0.847538411617279,0.0,0.0,0.0,0.0,0.0,0.0,0.0,0.0,0.0,64.10659790039062,0.6768620610237122,0.901792049407959,0.0,0.0,0.0,0.0,0.0,0.0,0.0,0.0,0.0,0.020865032449364662,-0.002644945401698351,0.019329097121953964,0.0,0.0,0.0,0.0,0.0,0.0,0.0,0.0,0.0
1606986618076388047,536624,1606983016240270735,imu_link,0.003535113064572215,0.009182452224195004,0.5306428670883179,0.847538411617279,0.0,0.0,0.0,0.0,0.0,0.0,0.0,0.0,0.0,64.10659790039062,0.6768620610237122,0.901792049407959,0.0,0.0,0.0,0.0,0.0,0.0,0.0,0.0,0.0,0.020865032449364662,-0.002644945401698351,0.019329097121953964,0.0,0.0,0.0,0.0,0.0,0.0,0.0,0.0,0.0
1606986618076394937,536625,1606983016240413540,imu_link,0.0035344248171895742,0.009184174239635468,0.5306435823440552,0.8475379943847656,0.0,0.0,0.0,0.0,0.0,0.0,0.0,0.0,0.0,64.106689453125,0.6770704388618469,0.9018304944038391,0.0,0.0,0.0,0.0,0.0,0.0,0.0,0.0,0.0,0.01264942716807127,-0.007072851061820984,0.02966545708477497,0.0,0.0,0.0,0.0,0.0,0.0,0.0,0.0,0.0
1606986618076402899,536626,1606983016240516940,imu_link,0.0035344248171895742,0.009184174239635468,0.5306435823440552,0.8475379943847656,0.0,0.0,0.0,0.0,0.0,0.0,0.0,0.0,0.0,64.106689453125,0.6770704388618469,0.9018304944038391,0.0,0.0,0.0,0.0,0.0,0.0,0.0,0.0,0.0,0.01264942716807127,-0.007072851061820984,0.02966545708477497,0.0,0.0,0.0,0.0,0.0,0.0,0.0,0.0,0.0
1606986618131381603,536627,1606983016240609980,imu_link,0.003536488162353635,0.009186070412397385,0.5306432247161865,0.8475381731987,0.0,0.0,0.0,0.0,0.0,0.0,0.0,0.0,0.0,64.10665130615234,0.6771293878555298,0.9021459817886353,0.0,0.0,0.0,0.0,0.0,0.0,0.0,0.0,0.0,-0.015060408972203732,-0.0071271988563239574,0.01479724794626236,0.0,0.0,0.0,0.0,0.0,0.0,0.0,0.0,0.0
1606986618131411842,536628,1606983016240707761,imu_link,0.003536488162353635,0.009186070412397385,0.5306432247161865,0.8475381731987,0.0,0.0,0.0,0.0,0.0,0.0,0.0,0.0,0.0,64.10665130615234,0.6771293878555298,0.9021459817886353,0.0,0.0,0.0,0.0,0.0,0.0,0.0,0.0,0.0,-0.015060408972203732,-0.0071271988563239574,0.01479724794626236,0.0,0.0,0.0,0.0,0.0,0.0,0.0,0.0,0.0
1606986618131456246,536629,1606983016240797870,imu_link,0.00353807071223855,0.009185021743178368,0.5306410193443298,0.8475395441055298,0.0,0.0,0.0,0.0,0.0,0.0,0.0,0.0,0.0,64.1063461303711,0.6769336462020874,0.9022341370582581,0.0,0.0,0.0,0.0,0.0,0.0,0.0,0.0,0.0,-0.015715189278125763,-0.017898067831993103,0.03504842519760132,0.0,0.0,0.0,0.0,0.0,0.0,0.0,0.0,0.0
1606986618131466754,536630,1606983016240910561,imu_link,0.00353807071223855,0.009185021743178368,0.5306410193443298,0.8475395441055298,0.0,0.0,0.0,0.0,0.0,0.0,0.0,0.0,0.0,64.1063461303711,0.6769336462020874,0.9022341370582581,0.0,0.0,0.0,0.0,0.0,0.0,0.0,0.0,0.0,-0.015715189278125763,-0.017898067831993103,0.03504842519760132,0.0,0.0,0.0,0.0,0.0,0.0,0.0,0.0,0.0
1606986618131494724,536631,1606983016240995086,imu_link,0.00354072661139071,0.009183703921735287,0.5306435227394104,0.8475378751754761,0.0,0.0,0.0,0.0,0.0,0.0,0.0,0.0,0.0,64.10669708251953,0.6766414046287537,0.9024141430854797,0.0,0.0,0.0,0.0,0.0,0.0,0.0,0.0,0.0,-0.0034635900519788265,-0.0018290586303919554,0.04044200852513313,0.0,0.0,0.0,0.0,0.0,0.0,0.0,0.0,0.0
1606986618134837378,536632,1606983016241088102,imu_link,0.00354072661139071,0.009183703921735287,0.5306435227394104,0.8475378751754761,0.0,0.0,0.0,0.0,0.0,0.0,0.0,0.0,0.0,64.10669708251953,0.6766414046287537,0.9024141430854797,0.0,0.0,0.0,0.0,0.0,0.0,0.0,0.0,0.0,-0.0034635900519788265,-0.0018290586303919554,0.04044200852513313,0.0,0.0,0.0,0.0,0.0,0.0,0.0,0.0,0.0
1606986618134869912,536633,1606983016241166949,imu_link,0.0035413908772170544,0.009184700436890125,0.5306428670883179,0.847538411617279,0.0,0.0,0.0,0.0,0.0,0.0,0.0,0.0,0.0,64.10659790039062,0.6766986846923828,0.9025384783744812,0.0,0.0,0.0,0.0,0.0,0.0,0.0,0.0,0.0,-0.00804295763373375,0.005121211055666208,0.02959521673619747,0.0,0.0,0.0,0.0,0.0,0.0,0.0,0.0,0.0
1606986618134883427,536634,1606983016241252066,imu_link,0.0035413908772170544,0.009184700436890125,0.5306428670883179,0.847538411617279,0.0,0.0,0.0,0.0,0.0,0.0,0.0,0.0,0.0,64.10659790039062,0.6766986846923828,0.9025384783744812,0.0,0.0,0.0,0.0,0.0,0.0,0.0,0.0,0.0,-0.00804295763373375,0.005121211055666208,0.02959521673619747,0.0,0.0,0.0,0.0,0.0,0.0,0.0,0.0,0.0
1606986618134891946,536635,1606983016253688202,imu_link,0.0035439729690551758,0.009181736968457699,0.5306459665298462,0.8475365042686462,0.0,0.0,0.0,0.0,0.0,0.0,0.0,0.0,0.0,64.10701751708984,0.6762504577636719,0.9026113748550415,0.0,0.0,0.0,0.0,0.0,0.0,0.0,0.0,0.0,-0.01083963830024004,0.002479651477187872,0.03128838911652565,0.0,0.0,0.0,0.0,0.0,0.0,0.0,0.0,0.0
1606986618143070784,536636,1606983016253832676,imu_link,0.0035439729690551758,0.009181736968457699,0.5306459665298462,0.8475365042686462,0.0,0.0,0.0,0.0,0.0,0.0,0.0,0.0,0.0,64.10701751708984,0.6762504577636719,0.9026113748550415,0.0,0.0,0.0,0.0,0.0,0.0,0.0,0.0,0.0,-0.01083963830024004,0.002479651477187872,0.03128838911652565,0.0,0.0,0.0,0.0,0.0,0.0,0.0,0.0,0.0
1606986618143097060,536637,1606983016253935755,imu_link,0.00354560324922204,0.009180910885334015,0.530645489692688,0.8475367426872253,0.0,0.0,0.0,0.0,0.0,0.0,0.0,0.0,0.0,64.10694885253906,0.6760715842247009,0.902719259262085,0.0,0.0,0.0,0.0,0.0,0.0,0.0,0.0,0.0,-0.004688948392868042,0.006470272317528725,0.0008852802566252649,0.0,0.0,0.0,0.0,0.0,0.0,0.0,0.0,0.0
1606986618143111445,536638,1606983016254030509,imu_link,0.00354560324922204,0.009180910885334015,0.530645489692688,0.8475367426872253,0.0,0.0,0.0,0.0,0.0,0.0,0.0,0.0,0.0,64.10694885253906,0.6760715842247009,0.902719259262085,0.0,0.0,0.0,0.0,0.0,0.0,0.0,0.0,0.0,-0.004688948392868042,0.006470272317528725,0.0008852802566252649,0.0,0.0,0.0,0.0,0.0,0.0,0.0,0.0,0.0
1606986618143124370,536639,1606983016254124161,imu_link,0.0035462374798953533,0.009180737659335136,0.5306486487388611,0.8475347757339478,0.0,0.0,0.0,0.0,0.0,0.0,0.0,0.0,0.0,64.10738372802734,0.6760128140449524,0.902772843837738,0.0,0.0,0.0,0.0,0.0,0.0,0.0,0.0,0.0,-0.013935077004134655,0.018833739683032036,-0.014248298481106758,0.0,0.0,0.0,0.0,0.0,0.0,0.0,0.0,0.0
1606986618143138516,536640,1606983016254207128,imu_link,0.0035462374798953533,0.009180737659335136,0.5306486487388611,0.8475347757339478,0.0,0.0,0.0,0.0,0.0,0.0,0.0,0.0,0.0,64.10738372802734,0.6760128140449524,0.902772843837738,0.0,0.0,0.0,0.0,0.0,0.0,0.0,0.0,0.0,-0.013935077004134655,0.018833739683032036,-0.014248298481106758,0.0,0.0,0.0,0.0,0.0,0.0,0.0,0.0,0.0
1606986618146761000,536641,1606983016254308332,imu_link,0.003545425832271576,0.009180238470435143,0.5306486487388611,0.8475347757339478,0.0,0.0,0.0,0.0,0.0,0.0,0.0,0.0,0.0,64.10738372802734,0.676013708114624,0.9026637673377991,0.0,0.0,0.0,0.0,0.0,0.0,0.0,0.0,0.0,-0.012826134450733662,0.014366933144629002,-0.014765729196369648,0.0,0.0,0.0,0.0,0.0,0.0,0.0,0.0,0.0
1606986618146807160,536642,1606983016254392026,imu_link,0.003545425832271576,0.009180238470435143,0.5306486487388611,0.8475347757339478,0.0,0.0,0.0,0.0,0.0,0.0,0.0,0.0,0.0,64.10738372802734,0.676013708114624,0.9026637673377991,0.0,0.0,0.0,0.0,0.0,0.0,0.0,0.0,0.0,-0.012826134450733662,0.014366933144629002,-0.014765729196369648,0.0,0.0,0.0,0.0,0.0,0.0,0.0,0.0,0.0
1606986618146823843,536643,1606983016254476311,imu_link,0.0035419482737779617,0.009178722277283669,0.5306497812271118,0.8475340604782104,0.0,0.0,0.0,0.0,0.0,0.0,0.0,0.0,0.0,64.10752868652344,0.6760767102241516,0.9022346138954163,0.0,0.0,0.0,0.0,0.0,0.0,0.0,0.0,0.0,-0.006592236924916506,0.0039291707798838615,0.011646203696727753,0.0,0.0,0.0,0.0,0.0,0.0,0.0,0.0,0.0
1606986618146844553,536644,1606983016254557559,imu_link,0.0035419482737779617,0.009178722277283669,0.5306497812271118,0.8475340604782104,0.0,0.0,0.0,0.0,0.0,0.0,0.0,0.0,0.0,64.10752868652344,0.6760767102241516,0.9022346138954163,0.0,0.0,0.0,0.0,0.0,0.0,0.0,0.0,0.0,-0.006592236924916506,0.0039291707798838615,0.011646203696727753,0.0,0.0,0.0,0.0,0.0,0.0,0.0,0.0,0.0
1606986618232382739,536645,1606983016254641689,imu_link,0.003541613230481744,0.009181289933621883,0.5306520462036133,0.8475326299667358,0.0,0.0,0.0,0.0,0.0,0.0,0.0,0.0,0.0,64.10784149169922,0.6763440370559692,0.9023600220680237,0.0,0.0,0.0,0.0,0.0,0.0,0.0,0.0,0.0,-0.01708746701478958,-0.006941556930541992,0.045385681092739105,0.0,0.0,0.0,0.0,0.0,0.0,0.0,0.0,0.0
1606986618232404157,536646,1606983016267545632,imu_link,0.003541613230481744,0.009181289933621883,0.5306520462036133,0.8475326299667358,0.0,0.0,0.0,0.0,0.0,0.0,0.0,0.0,0.0,64.10784149169922,0.6763440370559692,0.9023600220680237,0.0,0.0,0.0,0.0,0.0,0.0,0.0,0.0,0.0,-0.01708746701478958,-0.006941556930541992,0.045385681092739105,0.0,0.0,0.0,0.0,0.0,0.0,0.0,0.0,0.0
1606986618232471122,536647,1606983016267709627,imu_link,0.003544904524460435,0.00917943473905325,0.5306529402732849,0.8475320935249329,0.0,0.0,0.0,0.0,0.0,0.0,0.0,0.0,0.0,64.10796356201172,0.6759627461433411,0.9025673866271973,0.0,0.0,0.0,0.0,0.0,0.0,0.0,0.0,0.0,-0.0037175428587943316,-0.013210834003984928,0.03138883411884308,0.0,0.0,0.0,0.0,0.0,0.0,0.0,0.0,0.0
1606986618232482153,536648,1606983016267806962,imu_link,0.003544904524460435,0.00917943473905325,0.5306529402732849,0.8475320935249329,0.0,0.0,0.0,0.0,0.0,0.0,0.0,0.0,0.0,64.10796356201172,0.6759627461433411,0.9025673866271973,0.0,0.0,0.0,0.0,0.0,0.0,0.0,0.0,0.0,-0.0037175428587943316,-0.013210834003984928,0.03138883411884308,0.0,0.0,0.0,0.0,0.0,0.0,0.0,0.0,0.0
1606986618232505690,536649,1606983016267889984,imu_link,0.003545316169038415,0.00918121449649334,0.5306511521339417,0.8475332260131836,0.0,0.0,0.0,0.0,0.0,0.0,0.0,0.0,0.0,64.10771179199219,0.6761125326156616,0.9027143716812134,0.0,0.0,0.0,0.0,0.0,0.0,0.0,0.0,0.0,0.008357850834727287,-0.0011873476905748248,0.020752185955643654,0.0,0.0,0.0,0.0,0.0,0.0,0.0,0.0,0.0
1606986618237164298,536650,1606983016267969568,imu_link,0.003545316169038415,0.00918121449649334,0.5306511521339417,0.8475332260131836,0.0,0.0,0.0,0.0,0.0,0.0,0.0,0.0,0.0,64.10771179199219,0.6761125326156616,0.9027143716812134,0.0,0.0,0.0,0.0,0.0,0.0,0.0,0.0,0.0,0.008357850834727287,-0.0011873476905748248,0.020752185955643654,0.0,0.0,0.0,0.0,0.0,0.0,0.0,0.0,0.0
1606986618237200379,536651,1606983016268069535,imu_link,0.0035461208317428827,0.00918207410722971,0.5306528210639954,0.8475322127342224,0.0,0.0,0.0,0.0,0.0,0.0,0.0,0.0,0.0,64.10794830322266,0.6761453151702881,0.9028460383415222,0.0,0.0,0.0,0.0,0.0,0.0,0.0,0.0,0.0,-0.0020874831825494766,0.005532098468393087,0.03803015127778053,0.0,0.0,0.0,0.0,0.0,0.0,0.0,0.0,0.0
1606986618237246748,536652,1606983016268170423,imu_link,0.0035461208317428827,0.00918207410722971,0.5306528210639954,0.8475322127342224,0.0,0.0,0.0,0.0,0.0,0.0,0.0,0.0,0.0,64.10794830322266,0.6761453151702881,0.9028460383415222,0.0,0.0,0.0,0.0,0.0,0.0,0.0,0.0,0.0,-0.0020874831825494766,0.005532098468393087,0.03803015127778053,0.0,0.0,0.0,0.0,0.0,0.0,0.0,0.0,0.0
1606986618237275422,536653,1606983016268253766,imu_link,0.003545501036569476,0.009181533940136433,0.5306512713432312,0.8475331664085388,0.0,0.0,0.0,0.0,0.0,0.0,0.0,0.0,0.0,64.10772705078125,0.6761322021484375,0.9027518033981323,0.0,0.0,0.0,0.0,0.0,0.0,0.0,0.0,0.0,-0.0029632397927343845,0.015669969841837883,0.05251803249120712,0.0,0.0,0.0,0.0,0.0,0.0,0.0,0.0,0.0
1606986618246255116,536654,1606983016268332979,imu_link,0.003545501036569476,0.009181533940136433,0.5306512713432312,0.8475331664085388,0.0,0.0,0.0,0.0,0.0,0.0,0.0,0.0,0.0,64.10772705078125,0.6761322021484375,0.9027518033981323,0.0,0.0,0.0,0.0,0.0,0.0,0.0,0.0,0.0,-0.0029632397927343845,0.015669969841837883,0.05251803249120712,0.0,0.0,0.0,0.0,0.0,0.0,0.0,0.0,0.0
1606986618246279478,536655,1606983016268421755,imu_link,0.0035438903141766787,0.009179326705634594,0.5306543111801147,0.847531259059906,0.0,0.0,0.0,0.0,0.0,0.0,0.0,0.0,0.0,64.10813903808594,0.6760125756263733,0.9024635553359985,0.0,0.0,0.0,0.0,0.0,0.0,0.0,0.0,0.0,-0.001789408503100276,0.010308030992746353,0.0449836440384388,0.0,0.0,0.0,0.0,0.0,0.0,0.0,0.0,0.0
1606986618246313772,536656,1606983016268502552,imu_link,0.0035438903141766787,0.009179326705634594,0.5306543111801147,0.847531259059906,0.0,0.0,0.0,0.0,0.0,0.0,0.0,0.0,0.0,64.10813903808594,0.6760125756263733,0.9024635553359985,0.0,0.0,0.0,0.0,0.0,0.0,0.0,0.0,0.0,-0.001789408503100276,0.010308030992746353,0.0449836440384388,0.0,0.0,0.0,0.0,0.0,0.0,0.0,0.0,0.0
1606986618246331415,536657,1606983016281043721,imu_link,0.003543740836903453,0.009180719964206219,0.5306563973426819,0.847529947757721,0.0,0.0,0.0,0.0,0.0,0.0,0.0,0.0,0.0,64.10842895507812,0.6761546730995178,0.9025353789329529,0.0,0.0,0.0,0.0,0.0,0.0,0.0,0.0,0.0,0.0009272433817386627,-0.00699344277381897,0.024313844740390778,0.0,0.0,0.0,0.0,0.0,0.0,0.0,0.0,0.0
1606986618246348470,536658,1606983016281191743,imu_link,0.003543740836903453,0.009180719964206219,0.5306563973426819,0.847529947757721,0.0,0.0,0.0,0.0,0.0,0.0,0.0,0.0,0.0,64.10842895507812,0.6761546730995178,0.9025353789329529,0.0,0.0,0.0,0.0,0.0,0.0,0.0,0.0,0.0,0.0009272433817386627,-0.00699344277381897,0.024313844740390778,0.0,0.0,0.0,0.0,0.0,0.0,0.0,0.0,0.0
