%time,field.header.seq,field.header.stamp,field.header.frame_id,field.orientation.x,field.orientation.y,field.orientation.z,field.orientation.w,field.orientation_covariance0,field.orientation_covariance1,field.orientation_covariance2,field.orientation_covariance3,field.orientation_covariance4,field.orientation_covariance5,field.orientation_covariance6,field.orientation_covariance7,field.orientation_covariance8,field.angular_velocity.x,field.angular_velocity.y,field.angular_velocity.z,field.angular_velocity_covariance0,field.angular_velocity_covariance1,field.angular_velocity_covariance2,field.angular_velocity_covariance3,field.angular_velocity_covariance4,field.angular_velocity_covariance5,field.angular_velocity_covariance6,field.angular_velocity_covariance7,field.angular_velocity_covariance8,field.linear_acceleration.x,field.linear_acceleration.y,field.linear_acceleration.z,field.linear_acceleration_covariance0,field.linear_acceleration_covariance1,field.linear_acceleration_covariance2,field.linear_acceleration_covariance3,field.linear_acceleration_covariance4,field.linear_acceleration_covariance5,field.linear_acceleration_covariance6,field.linear_acceleration_covariance7,field.linear_acceleration_covariance8
1606988833883762121,2310172,1606985233202811870,imu_link,-0.005245178937911987,-0.005933928303420544,0.2226007729768753,-0.9748775362968445,0.0,0.0,0.0,0.0,0.0,0.0,0.0,0.0,0.0,-25.721466064453125,0.7967159152030945,0.43463578820228577,0.0,0.0,0.0,0.0,0.0,0.0,0.0,0.0,0.0,0.02451600506901741,0.008938953280448914,0.0272025428712368,0.0,0.0,0.0,0.0,0.0,0.0,0.0,0.0,0.0
1606988833883782820,2310173,1606985233202993391,imu_link,-0.005245007108896971,-0.005932386498898268,0.22260065376758575,-0.9748775362968445,0.0,0.0,0.0,0.0,0.0,0.0,0.0,0.0,0.0,-25.721454620361328,0.7965392470359802,0.4346559941768646,0.0,0.0,0.0,0.0,0.0,0.0,0.0,0.0,0.0,0.024900317192077637,-0.000991647713817656,0.021423034369945526,0.0,0.0,0.0,0.0,0.0,0.0,0.0,0.0,0.0
1606988833883812240,2310174,1606985233203135930,imu_link,-0.005245007108896971,-0.005932386498898268,0.22260065376758575,-0.9748775362968445,0.0,0.0,0.0,0.0,0.0,0.0,0.0,0.0,0.0,-25.721454620361328,0.7965392470359802,0.4346559941768646,0.0,0.0,0.0,0.0,0.0,0.0,0.0,0.0,0.0,0.024900317192077637,-0.000991647713817656,0.021423034369945526,0.0,0.0,0.0,0.0,0.0,0.0,0.0,0.0,0.0
1606988833883826584,2310175,1606985233203219168,imu_link,-0.005246213171631098,-0.005935627967119217,0.22259798645973206,-0.9748781323432922,0.0,0.0,0.0,0.0,0.0,0.0,0.0,0.0,0.0,-25.72113800048828,0.7969309687614441,0.43471023440361023,0.0,0.0,0.0,0.0,0.0,0.0,0.0,0.0,0.0,-0.0010039348853752017,-0.020256781950592995,0.010834621265530586,0.0,0.0,0.0,0.0,0.0,0.0,0.0,0.0,0.0
1606988833888383038,2310176,1606985233203313025,imu_link,-0.005246213171631098,-0.005935627967119217,0.22259798645973206,-0.9748781323432922,0.0,0.0,0.0,0.0,0.0,0.0,0.0,0.0,0.0,-25.72113800048828,0.7969309687614441,0.43471023440361023,0.0,0.0,0.0,0.0,0.0,0.0,0.0,0.0,0.0,-0.0010039348853752017,-0.020256781950592995,0.010834621265530586,0.0,0.0,0.0,0.0,0.0,0.0,0.0,0.0,0.0
1606988833888403302,2310177,1606985233203398689,imu_link,-0.005243620835244656,-0.0059341671876609325,0.22259670495986938,-0.9748784899711609,0.0,0.0,0.0,0.0,0.0,0.0,0.0,0.0,0.0,-25.720989227294922,0.7967010140419006,0.4344589412212372,0.0,0.0,0.0,0.0,0.0,0.0,0.0,0.0,0.0,-0.020763853564858437,-0.0151426512748003,0.03035702183842659,0.0,0.0,0.0,0.0,0.0,0.0,0.0,0.0,0.0
1606988833888410978,2310178,1606985233203505245,imu_link,-0.005243620835244656,-0.0059341671876609325,0.22259670495986938,-0.9748784899711609,0.0,0.0,0.0,0.0,0.0,0.0,0.0,0.0,0.0,-25.720989227294922,0.7967010140419006,0.4344589412212372,0.0,0.0,0.0,0.0,0.0,0.0,0.0,0.0,0.0,-0.020763853564858437,-0.0151426512748003,0.03035702183842659,0.0,0.0,0.0,0.0,0.0,0.0,0.0,0.0,0.0
1606988833888475792,2310179,1606985233203589761,imu_link,-0.005245069041848183,-0.005931210704147816,0.22259467840194702,-0.9748789072036743,0.0,0.0,0.0,0.0,0.0,0.0,0.0,0.0,0.0,-25.72075080871582,0.7964068055152893,0.43469780683517456,0.0,0.0,0.0,0.0,0.0,0.0,0.0,0.0,0.0,-0.007325642742216587,0.015547131188213825,0.05381263047456741,0.0,0.0,0.0,0.0,0.0,0.0,0.0,0.0,0.0
1606988833950691796,2310180,1606985233203666744,imu_link,-0.005245069041848183,-0.005931210704147816,0.22259467840194702,-0.9748789072036743,0.0,0.0,0.0,0.0,0.0,0.0,0.0,0.0,0.0,-25.72075080871582,0.7964068055152893,0.43469780683517456,0.0,0.0,0.0,0.0,0.0,0.0,0.0,0.0,0.0,-0.007325642742216587,0.015547131188213825,0.05381263047456741,0.0,0.0,0.0,0.0,0.0,0.0,0.0,0.0,0.0
1606988833950743626,2310181,1606985233203749921,imu_link,-0.0052484311163425446,-0.005932992324233055,0.22259435057640076,-0.9748789668083191,0.0,0.0,0.0,0.0,0.0,0.0,0.0,0.0,0.0,-25.7207088470459,0.7966914176940918,0.4350282847881317,0.0,0.0,0.0,0.0,0.0,0.0,0.0,0.0,0.0,0.002184111624956131,0.03126111626625061,0.058875784277915955,0.0,0.0,0.0,0.0,0.0,0.0,0.0,0.0,0.0
1606988833950758196,2310182,1606985233203826093,imu_link,-0.0052484311163425446,-0.005932992324233055,0.22259435057640076,-0.9748789668083191,0.0,0.0,0.0,0.0,0.0,0.0,0.0,0.0,0.0,-25.7207088470459,0.7966914176940918,0.4350282847881317,0.0,0.0,0.0,0.0,0.0,0.0,0.0,0.0,0.0,0.002184111624956131,0.03126111626625061,0.058875784277915955,0.0,0.0,0.0,0.0,0.0,0.0,0.0,0.0,0.0
1606988833950768046,2310183,1606985233216342735,imu_link,-0.0052431984804570675,-0.005934029817581177,0.22259320318698883,-0.974879264831543,0.0,0.0,0.0,0.0,0.0,0.0,0.0,0.0,0.0,-25.7205810546875,0.7966733574867249,0.43441808223724365,0.0,0.0,0.0,0.0,0.0,0.0,0.0,0.0,0.0,0.005999484099447727,0.016280503943562508,0.05689099431037903,0.0,0.0,0.0,0.0,0.0,0.0,0.0,0.0,0.0
1606988833950783367,2310184,1606985233216483145,imu_link,-0.0052431984804570675,-0.005934029817581177,0.22259320318698883,-0.974879264831543,0.0,0.0,0.0,0.0,0.0,0.0,0.0,0.0,0.0,-25.7205810546875,0.7966733574867249,0.43441808223724365,0.0,0.0,0.0,0.0,0.0,0.0,0.0,0.0,0.0,0.005999484099447727,0.016280503943562508,0.05689099431037903,0.0,0.0,0.0,0.0,0.0,0.0,0.0,0.0,0.0
1606988833964710265,2310185,1606985233216663668,imu_link,-0.005242836195975542,-0.005934125743806362,0.22259363532066345,-0.9748792052268982,0.0,0.0,0.0,0.0,0.0,0.0,0.0,0.0,0.0,-25.72062873840332,0.7966750860214233,0.4343748390674591,0.0,0.0,0.0,0.0,0.0,0.0,0.0,0.0,0.0,0.010735893622040749,0.0034161112271249294,0.05712021142244339,0.0,0.0,0.0,0.0,0.0,0.0,0.0,0.0,0.0
1606988833964727092,2310186,1606985233216750774,imu_link,-0.005242836195975542,-0.005934125743806362,0.22259363532066345,-0.9748792052268982,0.0,0.0,0.0,0.0,0.0,0.0,0.0,0.0,0.0,-25.72062873840332,0.7966750860214233,0.4343748390674591,0.0,0.0,0.0,0.0,0.0,0.0,0.0,0.0,0.0,0.010735893622040749,0.0034161112271249294,0.05712021142244339,0.0,0.0,0.0,0.0,0.0,0.0,0.0,0.0,0.0
1606988833964732815,2310187,1606985233216829176,imu_link,-0.005242828279733658,-0.005935765337198973,0.22258694469928741,-0.9748806953430176,0.0,0.0,0.0,0.0,0.0,0.0,0.0,0.0,0.0,-25.719844818115234,0.7968550324440002,0.4343376159667969,0.0,0.0,0.0,0.0,0.0,0.0,0.0,0.0,0.0,0.006446095649152994,-0.002445046091452241,0.07738744467496872,0.0,0.0,0.0,0.0,0.0,0.0,0.0,0.0,0.0
1606988833964750714,2310188,1606985233216932891,imu_link,-0.005242828279733658,-0.005935765337198973,0.22258694469928741,-0.9748806953430176,0.0,0.0,0.0,0.0,0.0,0.0,0.0,0.0,0.0,-25.719844818115234,0.7968550324440002,0.4343376159667969,0.0,0.0,0.0,0.0,0.0,0.0,0.0,0.0,0.0,0.006446095649152994,-0.002445046091452241,0.07738744467496872,0.0,0.0,0.0,0.0,0.0,0.0,0.0,0.0,0.0
1606988833975840183,2310189,1606985233217021205,imu_link,-0.005243470426648855,-0.005937333684414625,0.22258970141410828,-0.974880039691925,0.0,0.0,0.0,0.0,0.0,0.0,0.0,0.0,0.0,-25.72016716003418,0.7970477938652039,0.4343671500682831,0.0,0.0,0.0,0.0,0.0,0.0,0.0,0.0,0.0,-0.007669290993362665,-0.002508661011233926,0.07358814030885696,0.0,0.0,0.0,0.0,0.0,0.0,0.0,0.0,0.0
1606988833975860995,2310190,1606985233217100368,imu_link,-0.005243470426648855,-0.005937333684414625,0.22258970141410828,-0.974880039691925,0.0,0.0,0.0,0.0,0.0,0.0,0.0,0.0,0.0,-25.72016716003418,0.7970477938652039,0.4343671500682831,0.0,0.0,0.0,0.0,0.0,0.0,0.0,0.0,0.0,-0.007669290993362665,-0.002508661011233926,0.07358814030885696,0.0,0.0,0.0,0.0,0.0,0.0,0.0,0.0,0.0
1606988833975869223,2310191,1606985233217189344,imu_link,-0.005243074614554644,-0.005935111548751593,0.2225833386182785,-0.9748815298080444,0.0,0.0,0.0,0.0,0.0,0.0,0.0,0.0,0.0,-25.719419479370117,0.7967866659164429,0.4343847930431366,0.0,0.0,0.0,0.0,0.0,0.0,0.0,0.0,0.0,-0.021329553797841072,0.012374555692076683,0.03804552182555199,0.0,0.0,0.0,0.0,0.0,0.0,0.0,0.0,0.0
1606988833975876168,2310192,1606985233217276431,imu_link,-0.005243074614554644,-0.005935111548751593,0.2225833386182785,-0.9748815298080444,0.0,0.0,0.0,0.0,0.0,0.0,0.0,0.0,0.0,-25.719419479370117,0.7967866659164429,0.4343847930431366,0.0,0.0,0.0,0.0,0.0,0.0,0.0,0.0,0.0,-0.021329553797841072,0.012374555692076683,0.03804552182555199,0.0,0.0,0.0,0.0,0.0,0.0,0.0,0.0,0.0
1606988833975881603,2310193,1606985233217355394,imu_link,-0.005242982879281044,-0.005933744367212057,0.22258205711841583,-0.9748818278312683,0.0,0.0,0.0,0.0,0.0,0.0,0.0,0.0,0.0,-25.719268798828125,0.7966310381889343,0.4344104528427124,0.0,0.0,0.0,0.0,0.0,0.0,0.0,0.0,0.0,-0.0072615076787769794,0.007212046533823013,0.05044788494706154,0.0,0.0,0.0,0.0,0.0,0.0,0.0,0.0,0.0
1606988833981840009,2310194,1606985233229256466,imu_link,-0.005242982879281044,-0.005933744367212057,0.22258205711841583,-0.9748818278312683,0.0,0.0,0.0,0.0,0.0,0.0,0.0,0.0,0.0,-25.719268798828125,0.7966310381889343,0.4344104528427124,0.0,0.0,0.0,0.0,0.0,0.0,0.0,0.0,0.0,-0.0072615076787769794,0.007212046533823013,0.05044788494706154,0.0,0.0,0.0,0.0,0.0,0.0,0.0,0.0,0.0
1606988833981855894,2310195,1606985233229401522,imu_link,-0.0052399542182683945,-0.005933789536356926,0.22258774936199188,-0.974880576133728,0.0,0.0,0.0,0.0,0.0,0.0,0.0,0.0,0.0,-25.719938278198242,0.7965613603591919,0.43406620621681213,0.0,0.0,0.0,0.0,0.0,0.0,0.0,0.0,0.0,0.0035247018095105886,-0.015120700933039188,0.07639554888010025,0.0,0.0,0.0,0.0,0.0,0.0,0.0,0.0,0.0
1606988833981878091,2310196,1606985233229579328,imu_link,-0.0052399542182683945,-0.005933789536356926,0.22258774936199188,-0.974880576133728,0.0,0.0,0.0,0.0,0.0,0.0,0.0,0.0,0.0,-25.719938278198242,0.7965613603591919,0.43406620621681213,0.0,0.0,0.0,0.0,0.0,0.0,0.0,0.0,0.0,0.0035247018095105886,-0.015120700933039188,0.07639554888010025,0.0,0.0,0.0,0.0,0.0,0.0,0.0,0.0,0.0
1606988834034854891,2310197,1606985233229677275,imu_link,-0.005239239893853664,-0.005932643543928862,0.22258666157722473,-0.9748808145523071,0.0,0.0,0.0,0.0,0.0,0.0,0.0,0.0,0.0,-25.719812393188477,0.7964146137237549,0.43401649594306946,0.0,0.0,0.0,0.0,0.0,0.0,0.0,0.0,0.0,-0.003466842696070671,-0.015348531305789948,0.05872544273734093,0.0,0.0,0.0,0.0,0.0,0.0,0.0,0.0,0.0
1606988834034872499,2310198,1606985233229757200,imu_link,-0.005239239893853664,-0.005932643543928862,0.22258666157722473,-0.9748808145523071,0.0,0.0,0.0,0.0,0.0,0.0,0.0,0.0,0.0,-25.719812393188477,0.7964146137237549,0.43401649594306946,0.0,0.0,0.0,0.0,0.0,0.0,0.0,0.0,0.0,-0.003466842696070671,-0.015348531305789948,0.05872544273734093,0.0,0.0,0.0,0.0,0.0,0.0,0.0,0.0,0.0
1606988834034879811,2310199,1606985233229863887,imu_link,-0.005241074599325657,-0.0059310575015842915,0.2225920855998993,-0.9748796224594116,0.0,0.0,0.0,0.0,0.0,0.0,0.0,0.0,0.0,-25.720447540283203,0.7962867021560669,0.43425747752189636,0.0,0.0,0.0,0.0,0.0,0.0,0.0,0.0,0.0,-0.015550226904451847,-0.0071548172272741795,0.03765411674976349,0.0,0.0,0.0,0.0,0.0,0.0,0.0,0.0,0.0
1606988834034904971,2310200,1606985233229950397,imu_link,-0.005241074599325657,-0.0059310575015842915,0.2225920855998993,-0.9748796224594116,0.0,0.0,0.0,0.0,0.0,0.0,0.0,0.0,0.0,-25.720447540283203,0.7962867021560669,0.43425747752189636,0.0,0.0,0.0,0.0,0.0,0.0,0.0,0.0,0.0,-0.015550226904451847,-0.0071548172272741795,0.03765411674976349,0.0,0.0,0.0,0.0,0.0,0.0,0.0,0.0,0.0
1606988834039272687,2310201,1606985233230035700,imu_link,-0.005240723956376314,-0.005932350642979145,0.2225915938615799,-0.9748796820640564,0.0,0.0,0.0,0.0,0.0,0.0,0.0,0.0,0.0,-25.72039222717285,0.796422004699707,0.43418577313423157,0.0,0.0,0.0,0.0,0.0,0.0,0.0,0.0,0.0,-0.012487141415476799,0.009212678298354149,0.0371977761387825,0.0,0.0,0.0,0.0,0.0,0.0,0.0,0.0,0.0
1606988834039289446,2310202,1606985233230120977,imu_link,-0.005240723956376314,-0.005932350642979145,0.2225915938615799,-0.9748796820640564,0.0,0.0,0.0,0.0,0.0,0.0,0.0,0.0,0.0,-25.72039222717285,0.796422004699707,0.43418577313423157,0.0,0.0,0.0,0.0,0.0,0.0,0.0,0.0,0.0,-0.012487141415476799,0.009212678298354149,0.0371977761387825,0.0,0.0,0.0,0.0,0.0,0.0,0.0,0.0,0.0
1606988834039306282,2310203,1606985233230203483,imu_link,-0.005238731391727924,-0.00593087263405323,0.22259347140789032,-0.974879264831543,0.0,0.0,0.0,0.0,0.0,0.0,0.0,0.0,0.0,-25.720613479614258,0.7962068319320679,0.43399930000305176,0.0,0.0,0.0,0.0,0.0,0.0,0.0,0.0,0.0,0.0083801643922925,-0.0027657037135213614,0.04117630049586296,0.0,0.0,0.0,0.0,0.0,0.0,0.0,0.0,0.0
1606988834039311256,2310204,1606985233242852872,imu_link,-0.005238731391727924,-0.00593087263405323,0.22259347140789032,-0.974879264831543,0.0,0.0,0.0,0.0,0.0,0.0,0.0,0.0,0.0,-25.720613479614258,0.7962068319320679,0.43399930000305176,0.0,0.0,0.0,0.0,0.0,0.0,0.0,0.0,0.0,0.0083801643922925,-0.0027657037135213614,0.04117630049586296,0.0,0.0,0.0,0.0,0.0,0.0,0.0,0.0,0.0
1606988834052361852,2310205,1606985233243011109,imu_link,-0.005240199156105518,-0.005930784158408642,0.22259007394313812,-0.974880039691925,0.0,0.0,0.0,0.0,0.0,0.0,0.0,0.0,0.0,-25.720211029052734,0.7962328791618347,0.43416833877563477,0.0,0.0,0.0,0.0,0.0,0.0,0.0,0.0,0.0,0.012765450403094292,-0.027372146025300026,0.030294859781861305,0.0,0.0,0.0,0.0,0.0,0.0,0.0,0.0,0.0
1606988834052376000,2310206,1606985233243106735,imu_link,-0.005240199156105518,-0.005930784158408642,0.22259007394313812,-0.974880039691925,0.0,0.0,0.0,0.0,0.0,0.0,0.0,0.0,0.0,-25.720211029052734,0.7962328791618347,0.43416833877563477,0.0,0.0,0.0,0.0,0.0,0.0,0.0,0.0,0.0,0.012765450403094292,-0.027372146025300026,0.030294859781861305,0.0,0.0,0.0,0.0,0.0,0.0,0.0,0.0,0.0
1606988834052395472,2310207,1606985233243188304,imu_link,-0.005244296044111252,-0.00592921394854784,0.2225925326347351,-0.9748794436454773,0.0,0.0,0.0,0.0,0.0,0.0,0.0,0.0,0.0,-25.72049903869629,0.796163022518158,0.4346641004085541,0.0,0.0,0.0,0.0,0.0,0.0,0.0,0.0,0.0,0.007910448126494884,-0.013483389280736446,0.03751223906874657,0.0,0.0,0.0,0.0,0.0,0.0,0.0,0.0,0.0
1606988834052422997,2310208,1606985233243274543,imu_link,-0.005244296044111252,-0.00592921394854784,0.2225925326347351,-0.9748794436454773,0.0,0.0,0.0,0.0,0.0,0.0,0.0,0.0,0.0,-25.72049903869629,0.796163022518158,0.4346641004085541,0.0,0.0,0.0,0.0,0.0,0.0,0.0,0.0,0.0,0.007910448126494884,-0.013483389280736446,0.03751223906874657,0.0,0.0,0.0,0.0,0.0,0.0,0.0,0.0,0.0
1606988834052443456,2310209,1606985233243357976,imu_link,-0.005244842264801264,-0.005929372273385525,0.22259345650672913,-0.974879264831543,0.0,0.0,0.0,0.0,0.0,0.0,0.0,0.0,0.0,-25.72060775756836,0.7961950898170471,0.43472030758857727,0.0,0.0,0.0,0.0,0.0,0.0,0.0,0.0,0.0,-0.016511572524905205,0.001843279809691012,0.0484229251742363,0.0,0.0,0.0,0.0,0.0,0.0,0.0,0.0,0.0
1606988834058118331,2310210,1606985233243460514,imu_link,-0.005244842264801264,-0.005929372273385525,0.22259345650672913,-0.974879264831543,0.0,0.0,0.0,0.0,0.0,0.0,0.0,0.0,0.0,-25.72060775756836,0.7961950898170471,0.43472030758857727,0.0,0.0,0.0,0.0,0.0,0.0,0.0,0.0,0.0,-0.016511572524905205,0.001843279809691012,0.0484229251742363,0.0,0.0,0.0,0.0,0.0,0.0,0.0,0.0,0.0
1606988834058151702,2310211,1606985233243543130,imu_link,-0.005244084168225527,-0.00592885073274374,0.2225961685180664,-0.9748786091804504,0.0,0.0,0.0,0.0,0.0,0.0,0.0,0.0,0.0,-25.720924377441406,0.7961186766624451,0.43464669585227966,0.0,0.0,0.0,0.0,0.0,0.0,0.0,0.0,0.0,-0.026321738958358765,-0.0012606565142050385,0.029922932386398315,0.0,0.0,0.0,0.0,0.0,0.0,0.0,0.0,0.0
1606988834058163352,2310212,1606985233243619727,imu_link,-0.005244084168225527,-0.00592885073274374,0.2225961685180664,-0.9748786091804504,0.0,0.0,0.0,0.0,0.0,0.0,0.0,0.0,0.0,-25.720924377441406,0.7961186766624451,0.43464669585227966,0.0,0.0,0.0,0.0,0.0,0.0,0.0,0.0,0.0,-0.026321738958358765,-0.0012606565142050385,0.029922932386398315,0.0,0.0,0.0,0.0,0.0,0.0,0.0,0.0,0.0
1606988834058169552,2310213,1606985233243702794,imu_link,-0.0052427370101213455,-0.005929151084274054,0.2225959748029709,-0.9748786687850952,0.0,0.0,0.0,0.0,0.0,0.0,0.0,0.0,0.0,-25.72090721130371,0.7961177229881287,0.4344887137413025,0.0,0.0,0.0,0.0,0.0,0.0,0.0,0.0,0.0,-0.005093315616250038,-0.004261172842234373,0.03682185336947441,0.0,0.0,0.0,0.0,0.0,0.0,0.0,0.0,0.0
1606988834151482948,2310214,1606985233243786633,imu_link,-0.0052427370101213455,-0.005929151084274054,0.2225959748029709,-0.9748786687850952,0.0,0.0,0.0,0.0,0.0,0.0,0.0,0.0,0.0,-25.72090721130371,0.7961177229881287,0.4344887137413025,0.0,0.0,0.0,0.0,0.0,0.0,0.0,0.0,0.0,-0.005093315616250038,-0.004261172842234373,0.03682185336947441,0.0,0.0,0.0,0.0,0.0,0.0,0.0,0.0,0.0
1606988834151521638,2310215,1606985233256514079,imu_link,-0.005242917221039534,-0.005926729645580053,0.2225983440876007,-0.9748781323432922,0.0,0.0,0.0,0.0,0.0,0.0,0.0,0.0,0.0,-25.72118377685547,0.7958528995513916,0.4345686733722687,0.0,0.0,0.0,0.0,0.0,0.0,0.0,0.0,0.0,0.007433889899402857,0.004759544041007757,0.054152995347976685,0.0,0.0,0.0,0.0,0.0,0.0,0.0,0.0,0.0
1606988834151541003,2310216,1606985233256659480,imu_link,-0.005242917221039534,-0.005926729645580053,0.2225983440876007,-0.9748781323432922,0.0,0.0,0.0,0.0,0.0,0.0,0.0,0.0,0.0,-25.72118377685547,0.7958528995513916,0.4345686733722687,0.0,0.0,0.0,0.0,0.0,0.0,0.0,0.0,0.0,0.007433889899402857,0.004759544041007757,0.054152995347976685,0.0,0.0,0.0,0.0,0.0,0.0,0.0,0.0,0.0
1606988834151555528,2310217,1606985233256836254,imu_link,-0.005242722108960152,-0.005926080979406834,0.22259697318077087,-0.9748784303665161,0.0,0.0,0.0,0.0,0.0,0.0,0.0,0.0,0.0,-25.721023559570312,0.7957748174667358,0.4345645606517792,0.0,0.0,0.0,0.0,0.0,0.0,0.0,0.0,0.0,0.0038753512781113386,0.007578112650662661,0.048408061265945435,0.0,0.0,0.0,0.0,0.0,0.0,0.0,0.0,0.0
1606988834155356614,2310218,1606985233256930512,imu_link,-0.005242722108960152,-0.005926080979406834,0.22259697318077087,-0.9748784303665161,0.0,0.0,0.0,0.0,0.0,0.0,0.0,0.0,0.0,-25.721023559570312,0.7957748174667358,0.4345645606517792,0.0,0.0,0.0,0.0,0.0,0.0,0.0,0.0,0.0,0.0038753512781113386,0.007578112650662661,0.048408061265945435,0.0,0.0,0.0,0.0,0.0,0.0,0.0,0.0,0.0
1606988834155382169,2310219,1606985233257016822,imu_link,-0.005240519996732473,-0.005927304271608591,0.2226010262966156,-0.9748775362968445,0.0,0.0,0.0,0.0,0.0,0.0,0.0,0.0,0.0,-25.721498489379883,0.7958571314811707,0.4342840015888214,0.0,0.0,0.0,0.0,0.0,0.0,0.0,0.0,0.0,0.0015920476289466023,-0.008145403116941452,0.06351781636476517,0.0,0.0,0.0,0.0,0.0,0.0,0.0,0.0,0.0
1606988834155443143,2310220,1606985233257105182,imu_link,-0.005240519996732473,-0.005927304271608591,0.2226010262966156,-0.9748775362968445,0.0,0.0,0.0,0.0,0.0,0.0,0.0,0.0,0.0,-25.721498489379883,0.7958571314811707,0.4342840015888214,0.0,0.0,0.0,0.0,0.0,0.0,0.0,0.0,0.0,0.0015920476289466023,-0.008145403116941452,0.06351781636476517,0.0,0.0,0.0,0.0,0.0,0.0,0.0,0.0,0.0
1606988834155470564,2310221,1606985233257209488,imu_link,-0.005239247344434261,-0.005929369479417801,0.2225997895002365,-0.9748777747154236,0.0,0.0,0.0,0.0,0.0,0.0,0.0,0.0,0.0,-25.721357345581055,0.7960548400878906,0.43409016728401184,0.0,0.0,0.0,0.0,0.0,0.0,0.0,0.0,0.0,0.0011045372812077403,-0.01883864216506481,0.07348955422639847,0.0,0.0,0.0,0.0,0.0,0.0,0.0,0.0,0.0
1606988834180543027,2310222,1606985233257293287,imu_link,-0.005239247344434261,-0.005929369479417801,0.2225997895002365,-0.9748777747154236,0.0,0.0,0.0,0.0,0.0,0.0,0.0,0.0,0.0,-25.721357345581055,0.7960548400878906,0.43409016728401184,0.0,0.0,0.0,0.0,0.0,0.0,0.0,0.0,0.0,0.0011045372812077403,-0.01883864216506481,0.07348955422639847,0.0,0.0,0.0,0.0,0.0,0.0,0.0,0.0,0.0
1606988834180595086,2310223,1606985233257382368,imu_link,-0.005241382401436567,-0.005926965270191431,0.2226032316684723,-0.9748770594596863,0.0,0.0,0.0,0.0,0.0,0.0,0.0,0.0,0.0,-25.721757888793945,0.7958423495292664,0.43438720703125,0.0,0.0,0.0,0.0,0.0,0.0,0.0,0.0,0.0,-0.00029399615596048534,0.0006477519636973739,0.04998219758272171,0.0,0.0,0.0,0.0,0.0,0.0,0.0,0.0,0.0
1606988834180656268,2310224,1606985233257463781,imu_link,-0.005241382401436567,-0.005926965270191431,0.2226032316684723,-0.9748770594596863,0.0,0.0,0.0,0.0,0.0,0.0,0.0,0.0,0.0,-25.721757888793945,0.7958423495292664,0.43438720703125,0.0,0.0,0.0,0.0,0.0,0.0,0.0,0.0,0.0,-0.00029399615596048534,0.0006477519636973739,0.04998219758272171,0.0,0.0,0.0,0.0,0.0,0.0,0.0,0.0,0.0
1606988834180718433,2310225,1606985233257546583,imu_link,-0.005240947473794222,-0.005926074925810099,0.22260382771492004,-0.9748769402503967,0.0,0.0,0.0,0.0,0.0,0.0,0.0,0.0,0.0,-25.72182846069336,0.7957319617271423,0.4343608319759369,0.0,0.0,0.0,0.0,0.0,0.0,0.0,0.0,0.0,-0.0035092998296022415,0.011378278955817223,0.04178136959671974,0.0,0.0,0.0,0.0,0.0,0.0,0.0,0.0,0.0
1606988834180734826,2310226,1606985233270253150,imu_link,-0.005240947473794222,-0.005926074925810099,0.22260382771492004,-0.9748769402503967,0.0,0.0,0.0,0.0,0.0,0.0,0.0,0.0,0.0,-25.72182846069336,0.7957319617271423,0.4343608319759369,0.0,0.0,0.0,0.0,0.0,0.0,0.0,0.0,0.0,-0.0035092998296022415,0.011378278955817223,0.04178136959671974,0.0,0.0,0.0,0.0,0.0,0.0,0.0,0.0,0.0
1606988834187523663,2310227,1606985233270368582,imu_link,-0.005238939076662064,-0.005926364567130804,0.2225983440876007,-0.974878191947937,0.0,0.0,0.0,0.0,0.0,0.0,0.0,0.0,0.0,-25.72118377685547,0.7957106828689575,0.43413352966308594,0.0,0.0,0.0,0.0,0.0,0.0,0.0,0.0,0.0,-0.013871414586901665,0.009342802688479424,0.041655782610177994,0.0,0.0,0.0,0.0,0.0,0.0,0.0,0.0,0.0
1606988834187564921,2310228,1606985233270448191,imu_link,-0.005238939076662064,-0.005926364567130804,0.2225983440876007,-0.974878191947937,0.0,0.0,0.0,0.0,0.0,0.0,0.0,0.0,0.0,-25.72118377685547,0.7957106828689575,0.43413352966308594,0.0,0.0,0.0,0.0,0.0,0.0,0.0,0.0,0.0,-0.013871414586901665,0.009342802688479424,0.041655782610177994,0.0,0.0,0.0,0.0,0.0,0.0,0.0,0.0,0.0
1606988834187593364,2310229,1606985233270531925,imu_link,-0.005236130207777023,-0.0059266299940645695,0.22259855270385742,-0.9748781323432922,0.0,0.0,0.0,0.0,0.0,0.0,0.0,0.0,0.0,-25.72121238708496,0.7956687211990356,0.4338127076625824,0.0,0.0,0.0,0.0,0.0,0.0,0.0,0.0,0.0,-0.01760762557387352,-0.005002920050173998,0.05045027658343315,0.0,0.0,0.0,0.0,0.0,0.0,0.0,0.0,0.0
1606988834187611870,2310230,1606985233270621558,imu_link,-0.005236130207777023,-0.0059266299940645695,0.22259855270385742,-0.9748781323432922,0.0,0.0,0.0,0.0,0.0,0.0,0.0,0.0,0.0,-25.72121238708496,0.7956687211990356,0.4338127076625824,0.0,0.0,0.0,0.0,0.0,0.0,0.0,0.0,0.0,-0.01760762557387352,-0.005002920050173998,0.05045027658343315,0.0,0.0,0.0,0.0,0.0,0.0,0.0,0.0,0.0
1606988834225913383,2310231,1606985233270707276,imu_link,-0.005236444063484669,-0.005924465600401163,0.22259663045406342,-0.9748785495758057,0.0,0.0,0.0,0.0,0.0,0.0,0.0,0.0,0.0,-25.720989227294922,0.7954340577125549,0.43390461802482605,0.0,0.0,0.0,0.0,0.0,0.0,0.0,0.0,0.0,-0.0008180932491086423,-0.009922758676111698,0.050322987139225006,0.0,0.0,0.0,0.0,0.0,0.0,0.0,0.0,0.0
1606988834225929308,2310232,1606985233270807448,imu_link,-0.005236444063484669,-0.005924465600401163,0.22259663045406342,-0.9748785495758057,0.0,0.0,0.0,0.0,0.0,0.0,0.0,0.0,0.0,-25.720989227294922,0.7954340577125549,0.43390461802482605,0.0,0.0,0.0,0.0,0.0,0.0,0.0,0.0,0.0,-0.0008180932491086423,-0.009922758676111698,0.050322987139225006,0.0,0.0,0.0,0.0,0.0,0.0,0.0,0.0,0.0
1606988834225981048,2310233,1606985233270892334,imu_link,-0.0052367690950632095,-0.005926832556724548,0.22259685397148132,-0.9748784899711609,0.0,0.0,0.0,0.0,0.0,0.0,0.0,0.0,0.0,-25.721012115478516,0.7957069277763367,0.43388038873672485,0.0,0.0,0.0,0.0,0.0,0.0,0.0,0.0,0.0,0.008113610558211803,-0.0026694461703300476,0.05311805009841919,0.0,0.0,0.0,0.0,0.0,0.0,0.0,0.0,0.0
1606988834225988542,2310234,1606985233271006057,imu_link,-0.0052367690950632095,-0.005926832556724548,0.22259685397148132,-0.9748784899711609,0.0,0.0,0.0,0.0,0.0,0.0,0.0,0.0,0.0,-25.721012115478516,0.7957069277763367,0.43388038873672485,0.0,0.0,0.0,0.0,0.0,0.0,0.0,0.0,0.0,0.008113610558211803,-0.0026694461703300476,0.05311805009841919,0.0,0.0,0.0,0.0,0.0,0.0,0.0,0.0,0.0
1606988834230575230,2310235,1606985233271091595,imu_link,-0.005238070152699947,-0.005930507555603981,0.22260062396526337,-0.9748775959014893,0.0,0.0,0.0,0.0,0.0,0.0,0.0,0.0,0.0,-25.721454620361328,0.7961522936820984,0.43392887711524963,0.0,0.0,0.0,0.0,0.0,0.0,0.0,0.0,0.0,0.001660351175814867,-0.009430306032299995,0.059958405792713165,0.0,0.0,0.0,0.0,0.0,0.0,0.0,0.0,0.0
1606988834230592982,2310236,1606985233271167832,imu_link,-0.005238070152699947,-0.005930507555603981,0.22260062396526337,-0.9748775959014893,0.0,0.0,0.0,0.0,0.0,0.0,0.0,0.0,0.0,-25.721454620361328,0.7961522936820984,0.43392887711524963,0.0,0.0,0.0,0.0,0.0,0.0,0.0,0.0,0.0,0.001660351175814867,-0.009430306032299995,0.059958405792713165,0.0,0.0,0.0,0.0,0.0,0.0,0.0,0.0,0.0
1606988834230602431,2310237,1606985233283758751,imu_link,-0.005236916244029999,-0.005930313840508461,0.22260037064552307,-0.974877655506134,0.0,0.0,0.0,0.0,0.0,0.0,0.0,0.0,0.0,-25.7214298248291,0.7961012125015259,0.43380510807037354,0.0,0.0,0.0,0.0,0.0,0.0,0.0,0.0,0.0,-0.00804051011800766,-0.008491565473377705,0.057758182287216187,0.0,0.0,0.0,0.0,0.0,0.0,0.0,0.0,0.0
1606988834230617296,2310238,1606985233283886677,imu_link,-0.005236916244029999,-0.005930313840508461,0.22260037064552307,-0.974877655506134,0.0,0.0,0.0,0.0,0.0,0.0,0.0,0.0,0.0,-25.7214298248291,0.7961012125015259,0.43380510807037354,0.0,0.0,0.0,0.0,0.0,0.0,0.0,0.0,0.0,-0.00804051011800766,-0.008491565473377705,0.057758182287216187,0.0,0.0,0.0,0.0,0.0,0.0,0.0,0.0,0.0
1606988834235714700,2310239,1606985233284052671,imu_link,-0.005237550009042025,-0.005931216292083263,0.22260116040706635,-0.9748774766921997,0.0,0.0,0.0,0.0,0.0,0.0,0.0,0.0,0.0,-25.721519470214844,0.7962184548377991,0.43385228514671326,0.0,0.0,0.0,0.0,0.0,0.0,0.0,0.0,0.0,-0.009932957589626312,0.005270694382488728,0.06926871836185455,0.0,0.0,0.0,0.0,0.0,0.0,0.0,0.0,0.0
1606988834235767574,2310240,1606985233284133122,imu_link,-0.005237550009042025,-0.005931216292083263,0.22260116040706635,-0.9748774766921997,0.0,0.0,0.0,0.0,0.0,0.0,0.0,0.0,0.0,-25.721519470214844,0.7962184548377991,0.43385228514671326,0.0,0.0,0.0,0.0,0.0,0.0,0.0,0.0,0.0,-0.009932957589626312,0.005270694382488728,0.06926871836185455,0.0,0.0,0.0,0.0,0.0,0.0,0.0,0.0,0.0
1606988834235777385,2310241,1606985233284220319,imu_link,-0.0052373758517205715,-0.005933402571827173,0.22260169684886932,-0.9748773574829102,0.0,0.0,0.0,0.0,0.0,0.0,0.0,0.0,0.0,-25.721582412719727,0.7964585423469543,0.4337766170501709,0.0,0.0,0.0,0.0,0.0,0.0,0.0,0.0,0.0,0.009967073798179626,0.012749984860420227,0.07916876673698425,0.0,0.0,0.0,0.0,0.0,0.0,0.0,0.0,0.0
1606988834235783485,2310242,1606985233284316677,imu_link,-0.0052373758517205715,-0.005933402571827173,0.22260169684886932,-0.9748773574829102,0.0,0.0,0.0,0.0,0.0,0.0,0.0,0.0,0.0,-25.721582412719727,0.7964585423469543,0.4337766170501709,0.0,0.0,0.0,0.0,0.0,0.0,0.0,0.0,0.0,0.009967073798179626,0.012749984860420227,0.07916876673698425,0.0,0.0,0.0,0.0,0.0,0.0,0.0,0.0,0.0
1606988834235794745,2310243,1606985233284398727,imu_link,-0.005235422868281603,-0.005935973022133112,0.22260072827339172,-0.9748775959014893,0.0,0.0,0.0,0.0,0.0,0.0,0.0,0.0,0.0,-25.721466064453125,0.7966955304145813,0.43349364399909973,0.0,0.0,0.0,0.0,0.0,0.0,0.0,0.0,0.0,0.006240616552531719,-0.0037818728014826775,0.08427245169878006,0.0,0.0,0.0,0.0,0.0,0.0,0.0,0.0,0.0
1606988834241271316,2310244,1606985233284477053,imu_link,-0.005235422868281603,-0.005935973022133112,0.22260072827339172,-0.9748775959014893,0.0,0.0,0.0,0.0,0.0,0.0,0.0,0.0,0.0,-25.721466064453125,0.7966955304145813,0.43349364399909973,0.0,0.0,0.0,0.0,0.0,0.0,0.0,0.0,0.0,0.006240616552531719,-0.0037818728014826775,0.08427245169878006,0.0,0.0,0.0,0.0,0.0,0.0,0.0,0.0,0.0
1606988834241303244,2310245,1606985233284556888,imu_link,-0.005236790049821138,-0.005935202818363905,0.22260169684886932,-0.9748773574829102,0.0,0.0,0.0,0.0,0.0,0.0,0.0,0.0,0.0,-25.721582412719727,0.7966447472572327,0.43366527557373047,0.0,0.0,0.0,0.0,0.0,0.0,0.0,0.0,0.0,-0.007485254667699337,-0.010112577117979527,0.09561699628829956,0.0,0.0,0.0,0.0,0.0,0.0,0.0,0.0,0.0
1606988834241314473,2310246,1606985233284637735,imu_link,-0.005236790049821138,-0.005935202818363905,0.22260169684886932,-0.9748773574829102,0.0,0.0,0.0,0.0,0.0,0.0,0.0,0.0,0.0,-25.721582412719727,0.7966447472572327,0.43366527557373047,0.0,0.0,0.0,0.0,0.0,0.0,0.0,0.0,0.0,-0.007485254667699337,-0.010112577117979527,0.09561699628829956,0.0,0.0,0.0,0.0,0.0,0.0,0.0,0.0,0.0
1606988834369234230,2310247,1606985233284723033,imu_link,-0.005237064324319363,-0.005934218410402536,0.22260144352912903,-0.9748774170875549,0.0,0.0,0.0,0.0,0.0,0.0,0.0,0.0,0.0,-25.721553802490234,0.7965416312217712,0.43372124433517456,0.0,0.0,0.0,0.0,0.0,0.0,0.0,0.0,0.0,-0.011127201840281487,-0.0014806315302848816,0.09776630252599716,0.0,0.0,0.0,0.0,0.0,0.0,0.0,0.0,0.0
1606988834369259368,2310248,1606985233296722463,imu_link,-0.005237064324319363,-0.005934218410402536,0.22260144352912903,-0.9748774170875549,0.0,0.0,0.0,0.0,0.0,0.0,0.0,0.0,0.0,-25.721553802490234,0.7965416312217712,0.43372124433517456,0.0,0.0,0.0,0.0,0.0,0.0,0.0,0.0,0.0,-0.011127201840281487,-0.0014806315302848816,0.09776630252599716,0.0,0.0,0.0,0.0,0.0,0.0,0.0,0.0,0.0
1606988834369268956,2310249,1606985233296868085,imu_link,-0.005236017983406782,-0.005933986511081457,0.22260122001171112,-0.9748774766921997,0.0,0.0,0.0,0.0,0.0,0.0,0.0,0.0,0.0,-25.721527099609375,0.7964889407157898,0.4336104393005371,0.0,0.0,0.0,0.0,0.0,0.0,0.0,0.0,0.0,-0.014485932886600494,-0.0049825673922896385,0.06749940663576126,0.0,0.0,0.0,0.0,0.0,0.0,0.0,0.0,0.0
1606988834369276739,2310250,1606985233297060696,imu_link,-0.005236017983406782,-0.005933986511081457,0.22260122001171112,-0.9748774766921997,0.0,0.0,0.0,0.0,0.0,0.0,0.0,0.0,0.0,-25.721527099609375,0.7964889407157898,0.4336104393005371,0.0,0.0,0.0,0.0,0.0,0.0,0.0,0.0,0.0,-0.014485932886600494,-0.0049825673922896385,0.06749940663576126,0.0,0.0,0.0,0.0,0.0,0.0,0.0,0.0,0.0
1606988834373273614,2310251,1606985233297154453,imu_link,-0.0052353860810399055,-0.005932600237429142,0.22260917723178864,-0.9748756885528564,0.0,0.0,0.0,0.0,0.0,0.0,0.0,0.0,0.0,-25.722463607788086,0.796321451663971,0.43356868624687195,0.0,0.0,0.0,0.0,0.0,0.0,0.0,0.0,0.0,-0.007182801607996225,-0.00804405938833952,0.054159410297870636,0.0,0.0,0.0,0.0,0.0,0.0,0.0,0.0,0.0
1606988834373303680,2310252,1606985233297240231,imu_link,-0.0052353860810399055,-0.005932600237429142,0.22260917723178864,-0.9748756885528564,0.0,0.0,0.0,0.0,0.0,0.0,0.0,0.0,0.0,-25.722463607788086,0.796321451663971,0.43356868624687195,0.0,0.0,0.0,0.0,0.0,0.0,0.0,0.0,0.0,-0.007182801607996225,-0.00804405938833952,0.054159410297870636,0.0,0.0,0.0,0.0,0.0,0.0,0.0,0.0,0.0
1606988834373322667,2310253,1606985233297350466,imu_link,-0.005231482442468405,-0.005932858679443598,0.22261084616184235,-0.9748753309249878,0.0,0.0,0.0,0.0,0.0,0.0,0.0,0.0,0.0,-25.722660064697266,0.7962515354156494,0.4331245422363281,0.0,0.0,0.0,0.0,0.0,0.0,0.0,0.0,0.0,0.0026821685023605824,-0.017824534326791763,0.061652615666389465,0.0,0.0,0.0,0.0,0.0,0.0,0.0,0.0,0.0
1606988834373337248,2310254,1606985233297433007,imu_link,-0.005231482442468405,-0.005932858679443598,0.22261084616184235,-0.9748753309249878,0.0,0.0,0.0,0.0,0.0,0.0,0.0,0.0,0.0,-25.722660064697266,0.7962515354156494,0.4331245422363281,0.0,0.0,0.0,0.0,0.0,0.0,0.0,0.0,0.0,0.0026821685023605824,-0.017824534326791763,0.061652615666389465,0.0,0.0,0.0,0.0,0.0,0.0,0.0,0.0,0.0
1606988834377577367,2310255,1606985233297512852,imu_link,-0.005235153250396252,-0.0059341732412576675,0.2226160615682602,-0.9748740792274475,0.0,0.0,0.0,0.0,0.0,0.0,0.0,0.0,0.0,-25.723270416259766,0.7964943647384644,0.43349689245224,0.0,0.0,0.0,0.0,0.0,0.0,0.0,0.0,0.0,-0.009070347063243389,-0.009598319418728352,0.059897229075431824,0.0,0.0,0.0,0.0,0.0,0.0,0.0,0.0,0.0
1606988834377604527,2310256,1606985233297600269,imu_link,-0.005235153250396252,-0.0059341732412576675,0.2226160615682602,-0.9748740792274475,0.0,0.0,0.0,0.0,0.0,0.0,0.0,0.0,0.0,-25.723270416259766,0.7964943647384644,0.43349689245224,0.0,0.0,0.0,0.0,0.0,0.0,0.0,0.0,0.0,-0.009070347063243389,-0.009598319418728352,0.059897229075431824,0.0,0.0,0.0,0.0,0.0,0.0,0.0,0.0,0.0
1606988834377626636,2310257,1606985233297682715,imu_link,-0.005236342549324036,-0.00593439070507884,0.22261671721935272,-0.9748739004135132,0.0,0.0,0.0,0.0,0.0,0.0,0.0,0.0,0.0,-25.723350524902344,0.7965492606163025,0.43362370133399963,0.0,0.0,0.0,0.0,0.0,0.0,0.0,0.0,0.0,-0.015482976101338863,-0.003961222246289253,0.05577855929732323,0.0,0.0,0.0,0.0,0.0,0.0,0.0,0.0,0.0
1606988834377638761,2310258,1606985233310501712,imu_link,-0.005236342549324036,-0.00593439070507884,0.22261671721935272,-0.9748739004135132,0.0,0.0,0.0,0.0,0.0,0.0,0.0,0.0,0.0,-25.723350524902344,0.7965492606163025,0.43362370133399963,0.0,0.0,0.0,0.0,0.0,0.0,0.0,0.0,0.0,-0.015482976101338863,-0.003961222246289253,0.05577855929732323,0.0,0.0,0.0,0.0,0.0,0.0,0.0,0.0,0.0
1606988834377690794,2310259,1606985233310645525,imu_link,-0.005237307399511337,-0.005934149958193302,0.22262024879455566,-0.9748731255531311,0.0,0.0,0.0,0.0,0.0,0.0,0.0,0.0,0.0,-25.72376251220703,0.7965485453605652,0.4337347447872162,0.0,0.0,0.0,0.0,0.0,0.0,0.0,0.0,0.0,-0.0035485997796058655,-0.011065722443163395,0.05546034500002861,0.0,0.0,0.0,0.0,0.0,0.0,0.0,0.0,0.0
1606988834383224281,2310260,1606985233310821282,imu_link,-0.005237307399511337,-0.005934149958193302,0.22262024879455566,-0.9748731255531311,0.0,0.0,0.0,0.0,0.0,0.0,0.0,0.0,0.0,-25.72376251220703,0.7965485453605652,0.4337347447872162,0.0,0.0,0.0,0.0,0.0,0.0,0.0,0.0,0.0,-0.0035485997796058655,-0.011065722443163395,0.05546034500002861,0.0,0.0,0.0,0.0,0.0,0.0,0.0,0.0,0.0
1606988834383250303,2310261,1606985233310930645,imu_link,-0.005238530226051807,-0.005934805143624544,0.22262144088745117,-0.9748728275299072,0.0,0.0,0.0,0.0,0.0,0.0,0.0,0.0,0.0,-25.723901748657227,0.7966534495353699,0.4338536858558655,0.0,0.0,0.0,0.0,0.0,0.0,0.0,0.0,0.0,0.002581356791779399,-0.004118290729820728,0.05285003408789635,0.0,0.0,0.0,0.0,0.0,0.0,0.0,0.0,0.0
1606988834383257934,2310262,1606985233311059368,imu_link,-0.005238530226051807,-0.005934805143624544,0.22262144088745117,-0.9748728275299072,0.0,0.0,0.0,0.0,0.0,0.0,0.0,0.0,0.0,-25.723901748657227,0.7966534495353699,0.4338536858558655,0.0,0.0,0.0,0.0,0.0,0.0,0.0,0.0,0.0,0.002581356791779399,-0.004118290729820728,0.05285003408789635,0.0,0.0,0.0,0.0,0.0,0.0,0.0,0.0,0.0
1606988834383274743,2310263,1606985233311146214,imu_link,-0.005239816848188639,-0.0059364899061620235,0.2226235270500183,-0.9748724102973938,0.0,0.0,0.0,0.0,0.0,0.0,0.0,0.0,0.0,-25.72414779663086,0.796875536441803,0.43395277857780457,0.0,0.0,0.0,0.0,0.0,0.0,0.0,0.0,0.0,0.007353201042860746,-0.00693113449960947,0.0357036329805851,0.0,0.0,0.0,0.0,0.0,0.0,0.0,0.0,0.0
1606988834460166684,2310264,1606985233311251898,imu_link,-0.005239816848188639,-0.0059364899061620235,0.2226235270500183,-0.9748724102973938,0.0,0.0,0.0,0.0,0.0,0.0,0.0,0.0,0.0,-25.72414779663086,0.796875536441803,0.43395277857780457,0.0,0.0,0.0,0.0,0.0,0.0,0.0,0.0,0.0,0.007353201042860746,-0.00693113449960947,0.0357036329805851,0.0,0.0,0.0,0.0,0.0,0.0,0.0,0.0,0.0
1606988834460188381,2310265,1606985233311337958,imu_link,-0.005240499507635832,-0.0059362431056797504,0.22262464463710785,-0.9748721122741699,0.0,0.0,0.0,0.0,0.0,0.0,0.0,0.0,0.0,-25.724275588989258,0.7968658208847046,0.43403443694114685,0.0,0.0,0.0,0.0,0.0,0.0,0.0,0.0,0.0,0.0026746666990220547,-0.015086241066455841,0.05048796162009239,0.0,0.0,0.0,0.0,0.0,0.0,0.0,0.0,0.0
1606988834460201099,2310266,1606985233311415287,imu_link,-0.005240499507635832,-0.0059362431056797504,0.22262464463710785,-0.9748721122741699,0.0,0.0,0.0,0.0,0.0,0.0,0.0,0.0,0.0,-25.724275588989258,0.7968658208847046,0.43403443694114685,0.0,0.0,0.0,0.0,0.0,0.0,0.0,0.0,0.0,0.0026746666990220547,-0.015086241066455841,0.05048796162009239,0.0,0.0,0.0,0.0,0.0,0.0,0.0,0.0,0.0
1606988834460209377,2310267,1606985233311495733,imu_link,-0.0052432166412472725,-0.005936138331890106,0.22261573374271393,-0.9748741388320923,0.0,0.0,0.0,0.0,0.0,0.0,0.0,0.0,0.0,-25.723224639892578,0.7969194650650024,0.4343479573726654,0.0,0.0,0.0,0.0,0.0,0.0,0.0,0.0,0.0,0.003104299772530794,-0.007598673924803734,0.07930957525968552,0.0,0.0,0.0,0.0,0.0,0.0,0.0,0.0,0.0
1606988834463575896,2310268,1606985233311580288,imu_link,-0.0052432166412472725,-0.005936138331890106,0.22261573374271393,-0.9748741388320923,0.0,0.0,0.0,0.0,0.0,0.0,0.0,0.0,0.0,-25.723224639892578,0.7969194650650024,0.4343479573726654,0.0,0.0,0.0,0.0,0.0,0.0,0.0,0.0,0.0,0.003104299772530794,-0.007598673924803734,0.07930957525968552,0.0,0.0,0.0,0.0,0.0,0.0,0.0,0.0,0.0
1606988834463595514,2310269,1606985233323787054,imu_link,-0.005242709070444107,-0.0059363688342273235,0.22261717915534973,-0.9748737812042236,0.0,0.0,0.0,0.0,0.0,0.0,0.0,0.0,0.0,-25.72339630126953,0.7969329357147217,0.43428415060043335,0.0,0.0,0.0,0.0,0.0,0.0,0.0,0.0,0.0,-0.003312689019367099,-0.0022995818872004747,0.07922399789094925,0.0,0.0,0.0,0.0,0.0,0.0,0.0,0.0,0.0
1606988834463602000,2310270,1606985233323903303,imu_link,-0.005242709070444107,-0.0059363688342273235,0.22261717915534973,-0.9748737812042236,0.0,0.0,0.0,0.0,0.0,0.0,0.0,0.0,0.0,-25.72339630126953,0.7969329357147217,0.43428415060043335,0.0,0.0,0.0,0.0,0.0,0.0,0.0,0.0,0.0,-0.003312689019367099,-0.0022995818872004747,0.07922399789094925,0.0,0.0,0.0,0.0,0.0,0.0,0.0,0.0,0.0
1606988834463617198,2310271,1606985233323994514,imu_link,-0.00524170370772481,-0.005935379769653082,0.22261004149913788,-0.9748754501342773,0.0,0.0,0.0,0.0,0.0,0.0,0.0,0.0,0.0,-25.722557067871094,0.796793520450592,0.4342028796672821,0.0,0.0,0.0,0.0,0.0,0.0,0.0,0.0,0.0,-0.02036881633102894,-0.005004436243325472,0.0770195871591568,0.0,0.0,0.0,0.0,0.0,0.0,0.0,0.0,0.0
1606988834472103841,2310272,1606985233324084953,imu_link,-0.00524170370772481,-0.005935379769653082,0.22261004149913788,-0.9748754501342773,0.0,0.0,0.0,0.0,0.0,0.0,0.0,0.0,0.0,-25.722557067871094,0.796793520450592,0.4342028796672821,0.0,0.0,0.0,0.0,0.0,0.0,0.0,0.0,0.0,-0.02036881633102894,-0.005004436243325472,0.0770195871591568,0.0,0.0,0.0,0.0,0.0,0.0,0.0,0.0,0.0
1606988834472158440,2310273,1606985233324162397,imu_link,-0.00524217588827014,-0.005934881512075663,0.22261105477809906,-0.9748752117156982,0.0,0.0,0.0,0.0,0.0,0.0,0.0,0.0,0.0,-25.722675323486328,0.7967503666877747,0.4342675507068634,0.0,0.0,0.0,0.0,0.0,0.0,0.0,0.0,0.0,-0.016914859414100647,-0.012725075706839561,0.07461195439100266,0.0,0.0,0.0,0.0,0.0,0.0,0.0,0.0,0.0
1606988834472179849,2310274,1606985233324247574,imu_link,-0.00524217588827014,-0.005934881512075663,0.22261105477809906,-0.9748752117156982,0.0,0.0,0.0,0.0,0.0,0.0,0.0,0.0,0.0,-25.722675323486328,0.7967503666877747,0.4342675507068634,0.0,0.0,0.0,0.0,0.0,0.0,0.0,0.0,0.0,-0.016914859414100647,-0.012725075706839561,0.07461195439100266,0.0,0.0,0.0,0.0,0.0,0.0,0.0,0.0,0.0
1606988834472200675,2310275,1606985233324349375,imu_link,-0.0052417065016925335,-0.005932547152042389,0.2226029932498932,-0.974877119064331,0.0,0.0,0.0,0.0,0.0,0.0,0.0,0.0,0.0,-25.721729278564453,0.7964740991592407,0.43428120017051697,0.0,0.0,0.0,0.0,0.0,0.0,0.0,0.0,0.0,-0.015758972615003586,-0.025352340191602707,0.0548553392291069,0.0,0.0,0.0,0.0,0.0,0.0,0.0,0.0,0.0
1606988834472253517,2310276,1606985233324431635,imu_link,-0.0052417065016925335,-0.005932547152042389,0.2226029932498932,-0.974877119064331,0.0,0.0,0.0,0.0,0.0,0.0,0.0,0.0,0.0,-25.721729278564453,0.7964740991592407,0.43428120017051697,0.0,0.0,0.0,0.0,0.0,0.0,0.0,0.0,0.0,-0.015758972615003586,-0.025352340191602707,0.0548553392291069,0.0,0.0,0.0,0.0,0.0,0.0,0.0,0.0,0.0
1606988834475455243,2310277,1606985233324508172,imu_link,-0.005240396596491337,-0.005931536201387644,0.22260484099388123,-0.9748767018318176,0.0,0.0,0.0,0.0,0.0,0.0,0.0,0.0,0.0,-25.721948623657227,0.7963284850120544,0.43415918946266174,0.0,0.0,0.0,0.0,0.0,0.0,0.0,0.0,0.0,-0.007926284335553646,-0.018857933580875397,0.04793702811002731,0.0,0.0,0.0,0.0,0.0,0.0,0.0,0.0,0.0
1606988834475485631,2310278,1606985233324584304,imu_link,-0.005240396596491337,-0.005931536201387644,0.22260484099388123,-0.9748767018318176,0.0,0.0,0.0,0.0,0.0,0.0,0.0,0.0,0.0,-25.721948623657227,0.7963284850120544,0.43415918946266174,0.0,0.0,0.0,0.0,0.0,0.0,0.0,0.0,0.0,-0.007926284335553646,-0.018857933580875397,0.04793702811002731,0.0,0.0,0.0,0.0,0.0,0.0,0.0,0.0,0.0
1606988834475524057,2310279,1606985233324670729,imu_link,-0.005243869032710791,-0.005929897539317608,0.22259871661663055,-0.9748780727386475,0.0,0.0,0.0,0.0,0.0,0.0,0.0,0.0,0.0,-25.72122573852539,0.7962312698364258,0.43459391593933105,0.0,0.0,0.0,0.0,0.0,0.0,0.0,0.0,0.0,-0.004888369236141443,-0.004767885431647301,0.07185186445713043,0.0,0.0,0.0,0.0,0.0,0.0,0.0,0.0,0.0
1606988834475547283,2310280,1606985233337898001,imu_link,-0.005243869032710791,-0.005929897539317608,0.22259871661663055,-0.9748780727386475,0.0,0.0,0.0,0.0,0.0,0.0,0.0,0.0,0.0,-25.72122573852539,0.7962312698364258,0.43459391593933105,0.0,0.0,0.0,0.0,0.0,0.0,0.0,0.0,0.0,-0.004888369236141443,-0.004767885431647301,0.07185186445713043,0.0,0.0,0.0,0.0,0.0,0.0,0.0,0.0,0.0
1606988834598978112,2310281,1606985233338041528,imu_link,-0.00524556078016758,-0.005931708961725235,0.2225968837738037,-0.9748784899711609,0.0,0.0,0.0,0.0,0.0,0.0,0.0,0.0,0.0,-25.72100830078125,0.7964760661125183,0.4347382187843323,0.0,0.0,0.0,0.0,0.0,0.0,0.0,0.0,0.0,-0.003579392796382308,0.015007685869932175,0.06381305307149887,0.0,0.0,0.0,0.0,0.0,0.0,0.0,0.0,0.0
1606988834599006403,2310282,1606985233338231798,imu_link,-0.00524556078016758,-0.005931708961725235,0.2225968837738037,-0.9748784899711609,0.0,0.0,0.0,0.0,0.0,0.0,0.0,0.0,0.0,-25.72100830078125,0.7964760661125183,0.4347382187843323,0.0,0.0,0.0,0.0,0.0,0.0,0.0,0.0,0.0,-0.003579392796382308,0.015007685869932175,0.06381305307149887,0.0,0.0,0.0,0.0,0.0,0.0,0.0,0.0,0.0
1606988834599019536,2310283,1606985233338324102,imu_link,-0.005242995452135801,-0.005932188127189875,0.22259777784347534,-0.9748783111572266,0.0,0.0,0.0,0.0,0.0,0.0,0.0,0.0,0.0,-25.721115112304688,0.7964645028114319,0.43443864583969116,0.0,0.0,0.0,0.0,0.0,0.0,0.0,0.0,0.0,0.015727244317531586,0.027723731473088264,0.04319431632757187,0.0,0.0,0.0,0.0,0.0,0.0,0.0,0.0,0.0
1606988834599043532,2310284,1606985233338410226,imu_link,-0.005242995452135801,-0.005932188127189875,0.22259777784347534,-0.9748783111572266,0.0,0.0,0.0,0.0,0.0,0.0,0.0,0.0,0.0,-25.721115112304688,0.7964645028114319,0.43443864583969116,0.0,0.0,0.0,0.0,0.0,0.0,0.0,0.0,0.0,0.015727244317531586,0.027723731473088264,0.04319431632757187,0.0,0.0,0.0,0.0,0.0,0.0,0.0,0.0,0.0
1606988834602948457,2310285,1606985233338509641,imu_link,-0.00524287112057209,-0.00592994736507535,0.22259806096553802,-0.9748782515525818,0.0,0.0,0.0,0.0,0.0,0.0,0.0,0.0,0.0,-25.72115135192871,0.7962111234664917,0.4344817101955414,0.0,0.0,0.0,0.0,0.0,0.0,0.0,0.0,0.0,0.011961745098233223,0.018144065514206886,0.04484075307846069,0.0,0.0,0.0,0.0,0.0,0.0,0.0,0.0,0.0
1606988834602996657,2310286,1606985233338593485,imu_link,-0.00524287112057209,-0.00592994736507535,0.22259806096553802,-0.9748782515525818,0.0,0.0,0.0,0.0,0.0,0.0,0.0,0.0,0.0,-25.72115135192871,0.7962111234664917,0.4344817101955414,0.0,0.0,0.0,0.0,0.0,0.0,0.0,0.0,0.0,0.011961745098233223,0.018144065514206886,0.04484075307846069,0.0,0.0,0.0,0.0,0.0,0.0,0.0,0.0,0.0
1606988834603013722,2310287,1606985233338673104,imu_link,-0.005240342579782009,-0.005930734798312187,0.22259677946567535,-0.9748785495758057,0.0,0.0,0.0,0.0,0.0,0.0,0.0,0.0,0.0,-25.720998764038086,0.7962340116500854,0.4341801702976227,0.0,0.0,0.0,0.0,0.0,0.0,0.0,0.0,0.0,-0.0034987216349691153,0.01525134313851595,0.04872918501496315,0.0,0.0,0.0,0.0,0.0,0.0,0.0,0.0,0.0
1606988834603028831,2310288,1606985233338759098,imu_link,-0.005240342579782009,-0.005930734798312187,0.22259677946567535,-0.9748785495758057,0.0,0.0,0.0,0.0,0.0,0.0,0.0,0.0,0.0,-25.720998764038086,0.7962340116500854,0.4341801702976227,0.0,0.0,0.0,0.0,0.0,0.0,0.0,0.0,0.0,-0.0034987216349691153,0.01525134313851595,0.04872918501496315,0.0,0.0,0.0,0.0,0.0,0.0,0.0,0.0,0.0
1606988834609488454,2310289,1606985233338841945,imu_link,-0.005238751880824566,-0.005929554812610149,0.2225968837738037,-0.9748785495758057,0.0,0.0,0.0,0.0,0.0,0.0,0.0,0.0,0.0,-25.721012115478516,0.7960616946220398,0.4340324103832245,0.0,0.0,0.0,0.0,0.0,0.0,0.0,0.0,0.0,-0.010322087444365025,0.008174009621143341,0.0803072527050972,0.0,0.0,0.0,0.0,0.0,0.0,0.0,0.0,0.0
1606988834609557066,2310290,1606985233338923820,imu_link,-0.005238751880824566,-0.005929554812610149,0.2225968837738037,-0.9748785495758057,0.0,0.0,0.0,0.0,0.0,0.0,0.0,0.0,0.0,-25.721012115478516,0.7960616946220398,0.4340324103832245,0.0,0.0,0.0,0.0,0.0,0.0,0.0,0.0,0.0,-0.010322087444365025,0.008174009621143341,0.0803072527050972,0.0,0.0,0.0,0.0,0.0,0.0,0.0,0.0,0.0
1606988834609575165,2310291,1606985233346764705,imu_link,-0.0052372757345438,-0.005930411163717508,0.22259202599525452,-0.9748796224594116,0.0,0.0,0.0,0.0,0.0,0.0,0.0,0.0,0.0,-25.72044563293457,0.7961175441741943,0.43384960293769836,0.0,0.0,0.0,0.0,0.0,0.0,0.0,0.0,0.0,-0.003753586206585169,-0.005031844135373831,0.05718018487095833,0.0,0.0,0.0,0.0,0.0,0.0,0.0,0.0,0.0
1606988834609600934,2310292,1606985233347023139,imu_link,-0.0052372757345438,-0.005930411163717508,0.22259202599525452,-0.9748796224594116,0.0,0.0,0.0,0.0,0.0,0.0,0.0,0.0,0.0,-25.72044563293457,0.7961175441741943,0.43384960293769836,0.0,0.0,0.0,0.0,0.0,0.0,0.0,0.0,0.0,-0.003753586206585169,-0.005031844135373831,0.05718018487095833,0.0,0.0,0.0,0.0,0.0,0.0,0.0,0.0,0.0
1606988834609623002,2310293,1606985233347106175,imu_link,-0.0052356780506670475,-0.005929778795689344,0.22259236872196198,-0.9748795032501221,0.0,0.0,0.0,0.0,0.0,0.0,0.0,0.0,0.0,-25.720489501953125,0.7960062623023987,0.4336870312690735,0.0,0.0,0.0,0.0,0.0,0.0,0.0,0.0,0.0,0.01669905334711075,0.011313218623399734,0.017202123999595642,0.0,0.0,0.0,0.0,0.0,0.0,0.0,0.0,0.0
1606988834614715893,2310294,1606985233347195640,imu_link,-0.0052356780506670475,-0.005929778795689344,0.22259236872196198,-0.9748795032501221,0.0,0.0,0.0,0.0,0.0,0.0,0.0,0.0,0.0,-25.720489501953125,0.7960062623023987,0.4336870312690735,0.0,0.0,0.0,0.0,0.0,0.0,0.0,0.0,0.0,0.01669905334711075,0.011313218623399734,0.017202123999595642,0.0,0.0,0.0,0.0,0.0,0.0,0.0,0.0,0.0
1606988834614742244,2310295,1606985233347251890,imu_link,-0.005235579796135426,-0.0059321108274161816,0.22258636355400085,-0.9748809337615967,0.0,0.0,0.0,0.0,0.0,0.0,0.0,0.0,0.0,-25.71977996826172,0.7962616086006165,0.4336214065551758,0.0,0.0,0.0,0.0,0.0,0.0,0.0,0.0,0.0,0.020193245261907578,0.022389674559235573,0.02889193780720234,0.0,0.0,0.0,0.0,0.0,0.0,0.0,0.0,0.0
1606988834614775334,2310296,1606985233347314034,imu_link,-0.005235579796135426,-0.0059321108274161816,0.22258636355400085,-0.9748809337615967,0.0,0.0,0.0,0.0,0.0,0.0,0.0,0.0,0.0,-25.71977996826172,0.7962616086006165,0.4336214065551758,0.0,0.0,0.0,0.0,0.0,0.0,0.0,0.0,0.0,0.020193245261907578,0.022389674559235573,0.02889193780720234,0.0,0.0,0.0,0.0,0.0,0.0,0.0,0.0,0.0
1606988834614793466,2310297,1606985233347369442,imu_link,-0.005236191209405661,-0.0059328689239919186,0.2225872129201889,-0.9748806953430176,0.0,0.0,0.0,0.0,0.0,0.0,0.0,0.0,0.0,-25.719881057739258,0.7963622808456421,0.433669775724411,0.0,0.0,0.0,0.0,0.0,0.0,0.0,0.0,0.0,0.023504383862018585,0.004366973415017128,0.048114027827978134,0.0,0.0,0.0,0.0,0.0,0.0,0.0,0.0,0.0
1606988834647326093,2310298,1606985233360567174,imu_link,-0.005236191209405661,-0.0059328689239919186,0.2225872129201889,-0.9748806953430176,0.0,0.0,0.0,0.0,0.0,0.0,0.0,0.0,0.0,-25.719881057739258,0.7963622808456421,0.433669775724411,0.0,0.0,0.0,0.0,0.0,0.0,0.0,0.0,0.0,0.023504383862018585,0.004366973415017128,0.048114027827978134,0.0,0.0,0.0,0.0,0.0,0.0,0.0,0.0,0.0
1606988834647341442,2310299,1606985233360693884,imu_link,-0.005236549768596888,-0.005935728549957275,0.22258703410625458,-0.9748806953430176,0.0,0.0,0.0,0.0,0.0,0.0,0.0,0.0,0.0,-25.719860076904297,0.7966907620429993,0.43363699316978455,0.0,0.0,0.0,0.0,0.0,0.0,0.0,0.0,0.0,0.013806638307869434,-0.007980349473655224,0.07009872049093246,0.0,0.0,0.0,0.0,0.0,0.0,0.0,0.0,0.0
1606988834647350529,2310300,1606985233360829210,imu_link,-0.005236549768596888,-0.005935728549957275,0.22258703410625458,-0.9748806953430176,0.0,0.0,0.0,0.0,0.0,0.0,0.0,0.0,0.0,-25.719860076904297,0.7966907620429993,0.43363699316978455,0.0,0.0,0.0,0.0,0.0,0.0,0.0,0.0,0.0,0.013806638307869434,-0.007980349473655224,0.07009872049093246,0.0,0.0,0.0,0.0,0.0,0.0,0.0,0.0,0.0
1606988834647357052,2310301,1606985233360900309,imu_link,-0.005239388439804316,-0.005936847999691963,0.22258532047271729,-0.9748810529708862,0.0,0.0,0.0,0.0,0.0,0.0,0.0,0.0,0.0,-25.719655990600586,0.7968874573707581,0.4339270293712616,0.0,0.0,0.0,0.0,0.0,0.0,0.0,0.0,0.0,-0.005382051225751638,-0.00686344038695097,0.062446802854537964,0.0,0.0,0.0,0.0,0.0,0.0,0.0,0.0,0.0
1606988834651292376,2310302,1606985233360987034,imu_link,-0.005239388439804316,-0.005936847999691963,0.22258532047271729,-0.9748810529708862,0.0,0.0,0.0,0.0,0.0,0.0,0.0,0.0,0.0,-25.719655990600586,0.7968874573707581,0.4339270293712616,0.0,0.0,0.0,0.0,0.0,0.0,0.0,0.0,0.0,-0.005382051225751638,-0.00686344038695097,0.062446802854537964,0.0,0.0,0.0,0.0,0.0,0.0,0.0,0.0,0.0
1606988834651313979,2310303,1606985233361066253,imu_link,-0.005241349805146456,-0.0059365336783230305,0.2225848138332367,-0.9748811721801758,0.0,0.0,0.0,0.0,0.0,0.0,0.0,0.0,0.0,-25.719593048095703,0.7969021797180176,0.43415459990501404,0.0,0.0,0.0,0.0,0.0,0.0,0.0,0.0,0.0,-0.0001283511519432068,-0.0024894324596971273,0.05004929378628731,0.0,0.0,0.0,0.0,0.0,0.0,0.0,0.0,0.0
1606988834651324941,2310304,1606985233361156889,imu_link,-0.005241349805146456,-0.0059365336783230305,0.2225848138332367,-0.9748811721801758,0.0,0.0,0.0,0.0,0.0,0.0,0.0,0.0,0.0,-25.719593048095703,0.7969021797180176,0.43415459990501404,0.0,0.0,0.0,0.0,0.0,0.0,0.0,0.0,0.0,-0.0001283511519432068,-0.0024894324596971273,0.05004929378628731,0.0,0.0,0.0,0.0,0.0,0.0,0.0,0.0,0.0
1606988834651338254,2310305,1606985233361230473,imu_link,-0.005242811515927315,-0.005938188638538122,0.2225850522518158,-0.974881112575531,0.0,0.0,0.0,0.0,0.0,0.0,0.0,0.0,0.0,-25.719619750976562,0.7971245050430298,0.43427544832229614,0.0,0.0,0.0,0.0,0.0,0.0,0.0,0.0,0.0,-0.005200367886573076,0.0043234857730567455,0.04739191010594368,0.0,0.0,0.0,0.0,0.0,0.0,0.0,0.0,0.0
1606988834662829208,2310306,1606985233361300087,imu_link,-0.005242811515927315,-0.005938188638538122,0.2225850522518158,-0.974881112575531,0.0,0.0,0.0,0.0,0.0,0.0,0.0,0.0,0.0,-25.719619750976562,0.7971245050430298,0.43427544832229614,0.0,0.0,0.0,0.0,0.0,0.0,0.0,0.0,0.0,-0.005200367886573076,0.0043234857730567455,0.04739191010594368,0.0,0.0,0.0,0.0,0.0,0.0,0.0,0.0,0.0
1606988834662866676,2310307,1606985233361378656,imu_link,-0.0052396864630281925,-0.00593829620629549,0.2225884199142456,-0.9748803377151489,0.0,0.0,0.0,0.0,0.0,0.0,0.0,0.0,0.0,-25.72001838684082,0.7970582842826843,0.43392089009284973,0.0,0.0,0.0,0.0,0.0,0.0,0.0,0.0,0.0,-0.01821538247168064,0.0008313860162161291,0.04754156991839409,0.0,0.0,0.0,0.0,0.0,0.0,0.0,0.0,0.0
1606988834662888447,2310308,1606985233361452984,imu_link,-0.0052396864630281925,-0.00593829620629549,0.2225884199142456,-0.9748803377151489,0.0,0.0,0.0,0.0,0.0,0.0,0.0,0.0,0.0,-25.72001838684082,0.7970582842826843,0.43392089009284973,0.0,0.0,0.0,0.0,0.0,0.0,0.0,0.0,0.0,-0.01821538247168064,0.0008313860162161291,0.04754156991839409,0.0,0.0,0.0,0.0,0.0,0.0,0.0,0.0,0.0
1606988834662902514,2310309,1606985233373925873,imu_link,-0.005238940007984638,-0.0059404741041362286,0.2225867211818695,-0.9748807549476624,0.0,0.0,0.0,0.0,0.0,0.0,0.0,0.0,0.0,-25.719820022583008,0.797281801700592,0.43378329277038574,0.0,0.0,0.0,0.0,0.0,0.0,0.0,0.0,0.0,-0.019295059144496918,-0.011415508575737476,0.03474775329232216,0.0,0.0,0.0,0.0,0.0,0.0,0.0,0.0,0.0
1606988834662937361,2310310,1606985233374043648,imu_link,-0.005238940007984638,-0.0059404741041362286,0.2225867211818695,-0.9748807549476624,0.0,0.0,0.0,0.0,0.0,0.0,0.0,0.0,0.0,-25.719820022583008,0.797281801700592,0.43378329277038574,0.0,0.0,0.0,0.0,0.0,0.0,0.0,0.0,0.0,-0.019295059144496918,-0.011415508575737476,0.03474775329232216,0.0,0.0,0.0,0.0,0.0,0.0,0.0,0.0,0.0
1606988834666259821,2310311,1606985233374193684,imu_link,-0.005239867139607668,-0.005937935318797827,0.22258910536766052,-0.9748802185058594,0.0,0.0,0.0,0.0,0.0,0.0,0.0,0.0,0.0,-25.72010040283203,0.7970228791236877,0.43394970893859863,0.0,0.0,0.0,0.0,0.0,0.0,0.0,0.0,0.0,-0.018965328112244606,-0.014466797932982445,0.03317224234342575,0.0,0.0,0.0,0.0,0.0,0.0,0.0,0.0,0.0
1606988834666291053,2310312,1606985233374280658,imu_link,-0.005239867139607668,-0.005937935318797827,0.22258910536766052,-0.9748802185058594,0.0,0.0,0.0,0.0,0.0,0.0,0.0,0.0,0.0,-25.72010040283203,0.7970228791236877,0.43394970893859863,0.0,0.0,0.0,0.0,0.0,0.0,0.0,0.0,0.0,-0.018965328112244606,-0.014466797932982445,0.03317224234342575,0.0,0.0,0.0,0.0,0.0,0.0,0.0,0.0,0.0
1606988834666383683,2310313,1606985233374351685,imu_link,-0.005240559112280607,-0.005937332287430763,0.2225886732339859,-0.9748803377151489,0.0,0.0,0.0,0.0,0.0,0.0,0.0,0.0,0.0,-25.720046997070312,0.7969729900360107,0.43404269218444824,0.0,0.0,0.0,0.0,0.0,0.0,0.0,0.0,0.0,-0.014924193732440472,0.007611564826220274,0.05812409147620201,0.0,0.0,0.0,0.0,0.0,0.0,0.0,0.0,0.0
1606988834666392192,2310314,1606985233374426929,imu_link,-0.005240559112280607,-0.005937332287430763,0.2225886732339859,-0.9748803377151489,0.0,0.0,0.0,0.0,0.0,0.0,0.0,0.0,0.0,-25.720046997070312,0.7969729900360107,0.43404269218444824,0.0,0.0,0.0,0.0,0.0,0.0,0.0,0.0,0.0,-0.014924193732440472,0.007611564826220274,0.05812409147620201,0.0,0.0,0.0,0.0,0.0,0.0,0.0,0.0,0.0
1606988834736407855,2310315,1606985233374521251,imu_link,-0.005238569341599941,-0.00593449454754591,0.2225864678621292,-0.9748808741569519,0.0,0.0,0.0,0.0,0.0,0.0,0.0,0.0,0.0,-25.719789505004883,0.7966042160987854,0.433894544839859,0.0,0.0,0.0,0.0,0.0,0.0,0.0,0.0,0.0,-0.0018029850907623768,0.02638132870197296,0.07193157076835632,0.0,0.0,0.0,0.0,0.0,0.0,0.0,0.0,0.0
1606988834736430167,2310316,1606985233374595623,imu_link,-0.005238569341599941,-0.00593449454754591,0.2225864678621292,-0.9748808741569519,0.0,0.0,0.0,0.0,0.0,0.0,0.0,0.0,0.0,-25.719789505004883,0.7966042160987854,0.433894544839859,0.0,0.0,0.0,0.0,0.0,0.0,0.0,0.0,0.0,-0.0018029850907623768,0.02638132870197296,0.07193157076835632,0.0,0.0,0.0,0.0,0.0,0.0,0.0,0.0,0.0
1606988834736467006,2310317,1606985233374663964,imu_link,-0.005238870624452829,-0.00593505147844553,0.22258728742599487,-0.9748806953430176,0.0,0.0,0.0,0.0,0.0,0.0,0.0,0.0,0.0,-25.719884872436523,0.7966745495796204,0.43391335010528564,0.0,0.0,0.0,0.0,0.0,0.0,0.0,0.0,0.0,-0.005488854832947254,0.010125207714736462,0.0672716423869133,0.0,0.0,0.0,0.0,0.0,0.0,0.0,0.0,0.0
1606988834736478701,2310318,1606985233374735992,imu_link,-0.005238870624452829,-0.00593505147844553,0.22258728742599487,-0.9748806953430176,0.0,0.0,0.0,0.0,0.0,0.0,0.0,0.0,0.0,-25.719884872436523,0.7966745495796204,0.43391335010528564,0.0,0.0,0.0,0.0,0.0,0.0,0.0,0.0,0.0,-0.005488854832947254,0.010125207714736462,0.0672716423869133,0.0,0.0,0.0,0.0,0.0,0.0,0.0,0.0,0.0
1606988834742011398,2310319,1606985233374811339,imu_link,-0.0052376482635736465,-0.00593347754329443,0.22258304059505463,-0.9748815894126892,0.0,0.0,0.0,0.0,0.0,0.0,0.0,0.0,0.0,-25.719388961791992,0.7964655756950378,0.4338204264640808,0.0,0.0,0.0,0.0,0.0,0.0,0.0,0.0,0.0,-0.01854565739631653,-0.0023853823076933622,0.04901318997144699,0.0,0.0,0.0,0.0,0.0,0.0,0.0,0.0,0.0
1606988834742036965,2310320,1606985233387830475,imu_link,-0.0052376482635736465,-0.00593347754329443,0.22258304059505463,-0.9748815894126892,0.0,0.0,0.0,0.0,0.0,0.0,0.0,0.0,0.0,-25.719388961791992,0.7964655756950378,0.4338204264640808,0.0,0.0,0.0,0.0,0.0,0.0,0.0,0.0,0.0,-0.01854565739631653,-0.0023853823076933622,0.04901318997144699,0.0,0.0,0.0,0.0,0.0,0.0,0.0,0.0,0.0
1606988834742053786,2310321,1606985233387935278,imu_link,-0.0052382503636181355,-0.005933899432420731,0.22258378565311432,-0.9748815298080444,0.0,0.0,0.0,0.0,0.0,0.0,0.0,0.0,0.0,-25.719472885131836,0.7965285181999207,0.43387630581855774,0.0,0.0,0.0,0.0,0.0,0.0,0.0,0.0,0.0,-0.008159962482750416,-0.00019559625070542097,0.05464725196361542,0.0,0.0,0.0,0.0,0.0,0.0,0.0,0.0,0.0
1606988834742069093,2310322,1606985233388009748,imu_link,-0.0052382503636181355,-0.005933899432420731,0.22258378565311432,-0.9748815298080444,0.0,0.0,0.0,0.0,0.0,0.0,0.0,0.0,0.0,-25.719472885131836,0.7965285181999207,0.43387630581855774,0.0,0.0,0.0,0.0,0.0,0.0,0.0,0.0,0.0,-0.008159962482750416,-0.00019559625070542097,0.05464725196361542,0.0,0.0,0.0,0.0,0.0,0.0,0.0,0.0,0.0
1606988834750579531,2310323,1606985233388083675,imu_link,-0.005238024517893791,-0.00593297416344285,0.2225811630487442,-0.9748820066452026,0.0,0.0,0.0,0.0,0.0,0.0,0.0,0.0,0.0,-25.719165802001953,0.7964181303977966,0.43387678265571594,0.0,0.0,0.0,0.0,0.0,0.0,0.0,0.0,0.0,-0.005586918443441391,-0.005522044375538826,0.06653990596532822,0.0,0.0,0.0,0.0,0.0,0.0,0.0,0.0,0.0
1606988834750633814,2310324,1606985233388152447,imu_link,-0.005238024517893791,-0.00593297416344285,0.2225811630487442,-0.9748820066452026,0.0,0.0,0.0,0.0,0.0,0.0,0.0,0.0,0.0,-25.719165802001953,0.7964181303977966,0.43387678265571594,0.0,0.0,0.0,0.0,0.0,0.0,0.0,0.0,0.0,-0.005586918443441391,-0.005522044375538826,0.06653990596532822,0.0,0.0,0.0,0.0,0.0,0.0,0.0,0.0,0.0
1606988834750648839,2310325,1606985233388228195,imu_link,-0.005239472258836031,-0.005932970438152552,0.2225826233625412,-0.9748817086219788,0.0,0.0,0.0,0.0,0.0,0.0,0.0,0.0,0.0,-25.71933937072754,0.7964553236961365,0.434037446975708,0.0,0.0,0.0,0.0,0.0,0.0,0.0,0.0,0.0,-1.8339487724006176e-05,0.00975426472723484,0.07050468772649765,0.0,0.0,0.0,0.0,0.0,0.0,0.0,0.0,0.0
1606988834750669139,2310326,1606985233388318467,imu_link,-0.005239472258836031,-0.005932970438152552,0.2225826233625412,-0.9748817086219788,0.0,0.0,0.0,0.0,0.0,0.0,0.0,0.0,0.0,-25.71933937072754,0.7964553236961365,0.434037446975708,0.0,0.0,0.0,0.0,0.0,0.0,0.0,0.0,0.0,-1.8339487724006176e-05,0.00975426472723484,0.07050468772649765,0.0,0.0,0.0,0.0,0.0,0.0,0.0,0.0,0.0
1606988834750681067,2310327,1606985233388393658,imu_link,-0.005235167220234871,-0.0059343562461435795,0.22258055210113525,-0.974882185459137,0.0,0.0,0.0,0.0,0.0,0.0,0.0,0.0,0.0,-25.719099044799805,0.7964993119239807,0.4335228204727173,0.0,0.0,0.0,0.0,0.0,0.0,0.0,0.0,0.0,0.00033605308271944523,0.021332142874598503,0.07294678688049316,0.0,0.0,0.0,0.0,0.0,0.0,0.0,0.0,0.0
1606988834755298009,2310328,1606985233388459345,imu_link,-0.005235167220234871,-0.0059343562461435795,0.22258055210113525,-0.974882185459137,0.0,0.0,0.0,0.0,0.0,0.0,0.0,0.0,0.0,-25.719099044799805,0.7964993119239807,0.4335228204727173,0.0,0.0,0.0,0.0,0.0,0.0,0.0,0.0,0.0,0.00033605308271944523,0.021332142874598503,0.07294678688049316,0.0,0.0,0.0,0.0,0.0,0.0,0.0,0.0,0.0
1606988834755322979,2310329,1606985233388537912,imu_link,-0.005233714822679758,-0.005934780463576317,0.22258087992668152,-0.9748821258544922,0.0,0.0,0.0,0.0,0.0,0.0,0.0,0.0,0.0,-25.71913719177246,0.796509861946106,0.4333494305610657,0.0,0.0,0.0,0.0,0.0,0.0,0.0,0.0,0.0,-3.3347110729664564e-05,0.011750315316021442,0.058514613658189774,0.0,0.0,0.0,0.0,0.0,0.0,0.0,0.0,0.0
1606988834755338824,2310330,1606985233388616196,imu_link,-0.005233714822679758,-0.005934780463576317,0.22258087992668152,-0.9748821258544922,0.0,0.0,0.0,0.0,0.0,0.0,0.0,0.0,0.0,-25.71913719177246,0.796509861946106,0.4333494305610657,0.0,0.0,0.0,0.0,0.0,0.0,0.0,0.0,0.0,-3.3347110729664564e-05,0.011750315316021442,0.058514613658189774,0.0,0.0,0.0,0.0,0.0,0.0,0.0,0.0,0.0
1606988834755357162,2310331,1606985233401299190,imu_link,-0.005232022609561682,-0.005933597683906555,0.222582146525383,-0.9748818874359131,0.0,0.0,0.0,0.0,0.0,0.0,0.0,0.0,0.0,-25.71928596496582,0.7963351011276245,0.4331895112991333,0.0,0.0,0.0,0.0,0.0,0.0,0.0,0.0,0.0,0.006179909221827984,0.009331994690001011,0.06826215237379074,0.0,0.0,0.0,0.0,0.0,0.0,0.0,0.0,0.0
1606988834851191380,2310332,1606985233401444591,imu_link,-0.005232022609561682,-0.005933597683906555,0.222582146525383,-0.9748818874359131,0.0,0.0,0.0,0.0,0.0,0.0,0.0,0.0,0.0,-25.71928596496582,0.7963351011276245,0.4331895112991333,0.0,0.0,0.0,0.0,0.0,0.0,0.0,0.0,0.0,0.006179909221827984,0.009331994690001011,0.06826215237379074,0.0,0.0,0.0,0.0,0.0,0.0,0.0,0.0,0.0
1606988834851208626,2310333,1606985233401605223,imu_link,-0.005231100600212812,-0.005932310596108437,0.22257955372333527,-0.9748824834823608,0.0,0.0,0.0,0.0,0.0,0.0,0.0,0.0,0.0,-25.71898078918457,0.7961665987968445,0.4331214427947998,0.0,0.0,0.0,0.0,0.0,0.0,0.0,0.0,0.0,0.0008364650420844555,-0.012804137542843819,0.06483381241559982,0.0,0.0,0.0,0.0,0.0,0.0,0.0,0.0,0.0
1606988834851216585,2310334,1606985233401692410,imu_link,-0.005231100600212812,-0.005932310596108437,0.22257955372333527,-0.9748824834823608,0.0,0.0,0.0,0.0,0.0,0.0,0.0,0.0,0.0,-25.71898078918457,0.7961665987968445,0.4331214427947998,0.0,0.0,0.0,0.0,0.0,0.0,0.0,0.0,0.0,0.0008364650420844555,-0.012804137542843819,0.06483381241559982,0.0,0.0,0.0,0.0,0.0,0.0,0.0,0.0,0.0
1606988834851222573,2310335,1606985233401784448,imu_link,-0.0052332268096506596,-0.005932942498475313,0.2225867509841919,-0.9748808145523071,0.0,0.0,0.0,0.0,0.0,0.0,0.0,0.0,0.0,-25.71982765197754,0.7962946891784668,0.43333700299263,0.0,0.0,0.0,0.0,0.0,0.0,0.0,0.0,0.0,-0.00816330872476101,-0.016605332493782043,0.042859405279159546,0.0,0.0,0.0,0.0,0.0,0.0,0.0,0.0,0.0
1606988834855053693,2310336,1606985233401888143,imu_link,-0.0052332268096506596,-0.005932942498475313,0.2225867509841919,-0.9748808145523071,0.0,0.0,0.0,0.0,0.0,0.0,0.0,0.0,0.0,-25.71982765197754,0.7962946891784668,0.43333700299263,0.0,0.0,0.0,0.0,0.0,0.0,0.0,0.0,0.0,-0.00816330872476101,-0.016605332493782043,0.042859405279159546,0.0,0.0,0.0,0.0,0.0,0.0,0.0,0.0,0.0
1606988834855069822,2310337,1606985233401975931,imu_link,-0.00523286871612072,-0.005935870110988617,0.22258728742599487,-0.9748806953430176,0.0,0.0,0.0,0.0,0.0,0.0,0.0,0.0,0.0,-25.719890594482422,0.7966129183769226,0.4332219362258911,0.0,0.0,0.0,0.0,0.0,0.0,0.0,0.0,0.0,-0.006809527520090342,0.0006651739240624011,0.0451749712228775,0.0,0.0,0.0,0.0,0.0,0.0,0.0,0.0,0.0
1606988834855080376,2310338,1606985233402056297,imu_link,-0.00523286871612072,-0.005935870110988617,0.22258728742599487,-0.9748806953430176,0.0,0.0,0.0,0.0,0.0,0.0,0.0,0.0,0.0,-25.719890594482422,0.7966129183769226,0.4332219362258911,0.0,0.0,0.0,0.0,0.0,0.0,0.0,0.0,0.0,-0.006809527520090342,0.0006651739240624011,0.0451749712228775,0.0,0.0,0.0,0.0,0.0,0.0,0.0,0.0,0.0
1606988834855085942,2310339,1606985233402139670,imu_link,-0.005232234485447407,-0.0059355744160711765,0.2225923240184784,-0.9748795032501221,0.0,0.0,0.0,0.0,0.0,0.0,0.0,0.0,0.0,-25.720483779907227,0.79656583070755,0.43315452337265015,0.0,0.0,0.0,0.0,0.0,0.0,0.0,0.0,0.0,0.009831580333411694,0.012570916675031185,0.0344364158809185,0.0,0.0,0.0,0.0,0.0,0.0,0.0,0.0,0.0
1606988834866634501,2310340,1606985233402219670,imu_link,-0.005232234485447407,-0.0059355744160711765,0.2225923240184784,-0.9748795032501221,0.0,0.0,0.0,0.0,0.0,0.0,0.0,0.0,0.0,-25.720483779907227,0.79656583070755,0.43315452337265015,0.0,0.0,0.0,0.0,0.0,0.0,0.0,0.0,0.0,0.009831580333411694,0.012570916675031185,0.0344364158809185,0.0,0.0,0.0,0.0,0.0,0.0,0.0,0.0,0.0
1606988834866661903,2310341,1606985233402302607,imu_link,-0.005233355797827244,-0.00593518977984786,0.22259318828582764,-0.9748793244361877,0.0,0.0,0.0,0.0,0.0,0.0,0.0,0.0,0.0,-25.720584869384766,0.7965519428253174,0.4332888722419739,0.0,0.0,0.0,0.0,0.0,0.0,0.0,0.0,0.0,0.014600284397602081,0.01306257676333189,0.028713257983326912,0.0,0.0,0.0,0.0,0.0,0.0,0.0,0.0,0.0
1606988834866700689,2310342,1606985233414310898,imu_link,-0.005233355797827244,-0.00593518977984786,0.22259318828582764,-0.9748793244361877,0.0,0.0,0.0,0.0,0.0,0.0,0.0,0.0,0.0,-25.720584869384766,0.7965519428253174,0.4332888722419739,0.0,0.0,0.0,0.0,0.0,0.0,0.0,0.0,0.0,0.014600284397602081,0.01306257676333189,0.028713257983326912,0.0,0.0,0.0,0.0,0.0,0.0,0.0,0.0,0.0
1606988834866711704,2310343,1606985233414452380,imu_link,-0.005232080817222595,-0.005935305263847113,0.2225954383611679,-0.9748788475990295,0.0,0.0,0.0,0.0,0.0,0.0,0.0,0.0,0.0,-25.720849990844727,0.7965333461761475,0.43314164876937866,0.0,0.0,0.0,0.0,0.0,0.0,0.0,0.0,0.0,0.007505020126700401,-0.0046691796742379665,0.05492556095123291,0.0,0.0,0.0,0.0,0.0,0.0,0.0,0.0,0.0
1606988834866734821,2310344,1606985233414610486,imu_link,-0.005232080817222595,-0.005935305263847113,0.2225954383611679,-0.9748788475990295,0.0,0.0,0.0,0.0,0.0,0.0,0.0,0.0,0.0,-25.720849990844727,0.7965333461761475,0.43314164876937866,0.0,0.0,0.0,0.0,0.0,0.0,0.0,0.0,0.0,0.007505020126700401,-0.0046691796742379665,0.05492556095123291,0.0,0.0,0.0,0.0,0.0,0.0,0.0,0.0,0.0
1606988834871013791,2310345,1606985233414704830,imu_link,-0.005231054499745369,-0.0059346784837543964,0.22259508073329926,-0.9748789072036743,0.0,0.0,0.0,0.0,0.0,0.0,0.0,0.0,0.0,-25.720809936523438,0.7964369654655457,0.4330432415008545,0.0,0.0,0.0,0.0,0.0,0.0,0.0,0.0,0.0,-0.0018389294855296612,-0.01711042784154415,0.06311137229204178,0.0,0.0,0.0,0.0,0.0,0.0,0.0,0.0,0.0
1606988834871038764,2310346,1606985233414791811,imu_link,-0.005231054499745369,-0.0059346784837543964,0.22259508073329926,-0.9748789072036743,0.0,0.0,0.0,0.0,0.0,0.0,0.0,0.0,0.0,-25.720809936523438,0.7964369654655457,0.4330432415008545,0.0,0.0,0.0,0.0,0.0,0.0,0.0,0.0,0.0,-0.0018389294855296612,-0.01711042784154415,0.06311137229204178,0.0,0.0,0.0,0.0,0.0,0.0,0.0,0.0,0.0
1606988834871051830,2310347,1606985233414894398,imu_link,-0.005233720410615206,-0.005934176035225391,0.2225896269083023,-0.9748801589012146,0.0,0.0,0.0,0.0,0.0,0.0,0.0,0.0,0.0,-25.720163345336914,0.7964463829994202,0.4333583414554596,0.0,0.0,0.0,0.0,0.0,0.0,0.0,0.0,0.0,0.003410361474379897,-0.01552995853126049,0.059847570955753326,0.0,0.0,0.0,0.0,0.0,0.0,0.0,0.0,0.0
1606988834871062481,2310348,1606985233415009410,imu_link,-0.005233720410615206,-0.005934176035225391,0.2225896269083023,-0.9748801589012146,0.0,0.0,0.0,0.0,0.0,0.0,0.0,0.0,0.0,-25.720163345336914,0.7964463829994202,0.4333583414554596,0.0,0.0,0.0,0.0,0.0,0.0,0.0,0.0,0.0,0.003410361474379897,-0.01552995853126049,0.059847570955753326,0.0,0.0,0.0,0.0,0.0,0.0,0.0,0.0,0.0
1606988834929210799,2310349,1606985233415096832,imu_link,-0.005233356263488531,-0.005932840518653393,0.2225871980190277,-0.9748806953430176,0.0,0.0,0.0,0.0,0.0,0.0,0.0,0.0,0.0,-25.719881057739258,0.7962867617607117,0.4333537220954895,0.0,0.0,0.0,0.0,0.0,0.0,0.0,0.0,0.0,0.006997682154178619,-0.01551479659974575,0.048745542764663696,0.0,0.0,0.0,0.0,0.0,0.0,0.0,0.0,0.0
1606988834929244342,2310350,1606985233415178015,imu_link,-0.005233356263488531,-0.005932840518653393,0.2225871980190277,-0.9748806953430176,0.0,0.0,0.0,0.0,0.0,0.0,0.0,0.0,0.0,-25.719881057739258,0.7962867617607117,0.4333537220954895,0.0,0.0,0.0,0.0,0.0,0.0,0.0,0.0,0.0,0.006997682154178619,-0.01551479659974575,0.048745542764663696,0.0,0.0,0.0,0.0,0.0,0.0,0.0,0.0,0.0
1606988834929262040,2310351,1606985233415260887,imu_link,-0.005237274803221226,-0.005933629348874092,0.22258234024047852,-0.9748818278312683,0.0,0.0,0.0,0.0,0.0,0.0,0.0,0.0,0.0,-25.719308853149414,0.7964727282524109,0.4337753653526306,0.0,0.0,0.0,0.0,0.0,0.0,0.0,0.0,0.0,0.003467374248430133,-0.02396041341125965,0.050383906811475754,0.0,0.0,0.0,0.0,0.0,0.0,0.0,0.0,0.0
1606988834929285233,2310352,1606985233427923632,imu_link,-0.005237274803221226,-0.005933629348874092,0.22258234024047852,-0.9748818278312683,0.0,0.0,0.0,0.0,0.0,0.0,0.0,0.0,0.0,-25.719308853149414,0.7964727282524109,0.4337753653526306,0.0,0.0,0.0,0.0,0.0,0.0,0.0,0.0,0.0,0.003467374248430133,-0.02396041341125965,0.050383906811475754,0.0,0.0,0.0,0.0,0.0,0.0,0.0,0.0,0.0
1606988834929323545,2310353,1606985233428040106,imu_link,-0.0052376119419932365,-0.005932915955781937,0.22258317470550537,-0.974881649017334,0.0,0.0,0.0,0.0,0.0,0.0,0.0,0.0,0.0,-25.719404220581055,0.7964020371437073,0.4338305592536926,0.0,0.0,0.0,0.0,0.0,0.0,0.0,0.0,0.0,0.0033729407005012035,-0.004930930212140083,0.06883654743432999,0.0,0.0,0.0,0.0,0.0,0.0,0.0,0.0,0.0
1606988834933166561,2310354,1606985233428126291,imu_link,-0.0052376119419932365,-0.005932915955781937,0.22258317470550537,-0.974881649017334,0.0,0.0,0.0,0.0,0.0,0.0,0.0,0.0,0.0,-25.719404220581055,0.7964020371437073,0.4338305592536926,0.0,0.0,0.0,0.0,0.0,0.0,0.0,0.0,0.0,0.0033729407005012035,-0.004930930212140083,0.06883654743432999,0.0,0.0,0.0,0.0,0.0,0.0,0.0,0.0,0.0
1606988834933199941,2310355,1606985233428207524,imu_link,-0.005240218713879585,-0.005931687541306019,0.22259028255939484,-0.9748799800872803,0.0,0.0,0.0,0.0,0.0,0.0,0.0,0.0,0.0,-25.720237731933594,0.7963343858718872,0.43414732813835144,0.0,0.0,0.0,0.0,0.0,0.0,0.0,0.0,0.0,-0.0023193492088466883,0.006962919142097235,0.043535809963941574,0.0,0.0,0.0,0.0,0.0,0.0,0.0,0.0,0.0
1606988834933214978,2310356,1606985233428289809,imu_link,-0.005240218713879585,-0.005931687541306019,0.22259028255939484,-0.9748799800872803,0.0,0.0,0.0,0.0,0.0,0.0,0.0,0.0,0.0,-25.720237731933594,0.7963343858718872,0.43414732813835144,0.0,0.0,0.0,0.0,0.0,0.0,0.0,0.0,0.0,-0.0023193492088466883,0.006962919142097235,0.043535809963941574,0.0,0.0,0.0,0.0,0.0,0.0,0.0,0.0,0.0
1606988834933226942,2310357,1606985233428375062,imu_link,-0.005239086225628853,-0.005931143648922443,0.22259195148944855,-0.9748796224594116,0.0,0.0,0.0,0.0,0.0,0.0,0.0,0.0,0.0,-25.720434188842773,0.7962454557418823,0.43403327465057373,0.0,0.0,0.0,0.0,0.0,0.0,0.0,0.0,0.0,-0.009253323078155518,0.0032104146666824818,0.03638405725359917,0.0,0.0,0.0,0.0,0.0,0.0,0.0,0.0,0.0
1606988834970824902,2310358,1606985233428474928,imu_link,-0.005239086225628853,-0.005931143648922443,0.22259195148944855,-0.9748796224594116,0.0,0.0,0.0,0.0,0.0,0.0,0.0,0.0,0.0,-25.720434188842773,0.7962454557418823,0.43403327465057373,0.0,0.0,0.0,0.0,0.0,0.0,0.0,0.0,0.0,-0.009253323078155518,0.0032104146666824818,0.03638405725359917,0.0,0.0,0.0,0.0,0.0,0.0,0.0,0.0,0.0
1606988834970849518,2310359,1606985233428559544,imu_link,-0.00523727061226964,-0.005930186249315739,0.22260020673274994,-0.9748777747154236,0.0,0.0,0.0,0.0,0.0,0.0,0.0,0.0,0.0,-25.721405029296875,0.7960959076881409,0.4338480830192566,0.0,0.0,0.0,0.0,0.0,0.0,0.0,0.0,0.0,-0.01932014338672161,0.00600892398506403,0.057060543447732925,0.0,0.0,0.0,0.0,0.0,0.0,0.0,0.0,0.0
1606988834970881793,2310360,1606985233428632347,imu_link,-0.00523727061226964,-0.005930186249315739,0.22260020673274994,-0.9748777747154236,0.0,0.0,0.0,0.0,0.0,0.0,0.0,0.0,0.0,-25.721405029296875,0.7960959076881409,0.4338480830192566,0.0,0.0,0.0,0.0,0.0,0.0,0.0,0.0,0.0,-0.01932014338672161,0.00600892398506403,0.057060543447732925,0.0,0.0,0.0,0.0,0.0,0.0,0.0,0.0,0.0
1606988834970900304,2310361,1606985233428711225,imu_link,-0.005237338598817587,-0.005929334554821253,0.2226003110408783,-0.974877655506134,0.0,0.0,0.0,0.0,0.0,0.0,0.0,0.0,0.0,-25.721420288085938,0.7960024476051331,0.4338773787021637,0.0,0.0,0.0,0.0,0.0,0.0,0.0,0.0,0.0,-0.017743118107318878,0.00958267878741026,0.05109706148505211,0.0,0.0,0.0,0.0,0.0,0.0,0.0,0.0,0.0
1606988834970915823,2310362,1606985233428790533,imu_link,-0.005237338598817587,-0.005929334554821253,0.2226003110408783,-0.974877655506134,0.0,0.0,0.0,0.0,0.0,0.0,0.0,0.0,0.0,-25.721420288085938,0.7960024476051331,0.4338773787021637,0.0,0.0,0.0,0.0,0.0,0.0,0.0,0.0,0.0,-0.017743118107318878,0.00958267878741026,0.05109706148505211,0.0,0.0,0.0,0.0,0.0,0.0,0.0,0.0,0.0
1606988834977465385,2310363,1606985233441312543,imu_link,-0.005234783515334129,-0.005928325466811657,0.22260905802249908,-0.9748757481575012,0.0,0.0,0.0,0.0,0.0,0.0,0.0,0.0,0.0,-25.722448348999023,0.7958285808563232,0.4336104691028595,0.0,0.0,0.0,0.0,0.0,0.0,0.0,0.0,0.0,-0.018496397882699966,0.017339343205094337,0.058337870985269547,0.0,0.0,0.0,0.0,0.0,0.0,0.0,0.0,0.0
1606988834977496193,2310364,1606985233441428857,imu_link,-0.005234783515334129,-0.005928325466811657,0.22260905802249908,-0.9748757481575012,0.0,0.0,0.0,0.0,0.0,0.0,0.0,0.0,0.0,-25.722448348999023,0.7958285808563232,0.4336104691028595,0.0,0.0,0.0,0.0,0.0,0.0,0.0,0.0,0.0,-0.018496397882699966,0.017339343205094337,0.058337870985269547,0.0,0.0,0.0,0.0,0.0,0.0,0.0,0.0,0.0
1606988834977508940,2310365,1606985233441512696,imu_link,-0.005233235191553831,-0.0059258705005049706,0.22261030972003937,-0.9748754501342773,0.0,0.0,0.0,0.0,0.0,0.0,0.0,0.0,0.0,-25.722599029541016,0.795515239238739,0.4334990978240967,0.0,0.0,0.0,0.0,0.0,0.0,0.0,0.0,0.0,-0.021419353783130646,-0.002679960336536169,0.05368277430534363,0.0,0.0,0.0,0.0,0.0,0.0,0.0,0.0,0.0
1606988834977517185,2310366,1606985233441600900,imu_link,-0.005233235191553831,-0.0059258705005049706,0.22261030972003937,-0.9748754501342773,0.0,0.0,0.0,0.0,0.0,0.0,0.0,0.0,0.0,-25.722599029541016,0.795515239238739,0.4334990978240967,0.0,0.0,0.0,0.0,0.0,0.0,0.0,0.0,0.0,-0.021419353783130646,-0.002679960336536169,0.05368277430534363,0.0,0.0,0.0,0.0,0.0,0.0,0.0,0.0,0.0
1606988835051508779,2310367,1606985233441683316,imu_link,-0.005233536008745432,-0.005921616218984127,0.2226167619228363,-0.9748740196228027,0.0,0.0,0.0,0.0,0.0,0.0,0.0,0.0,0.0,-25.723356246948242,0.7950505614280701,0.433635950088501,0.0,0.0,0.0,0.0,0.0,0.0,0.0,0.0,0.0,-0.01819426193833351,-0.013898830860853195,0.043181631714105606,0.0,0.0,0.0,0.0,0.0,0.0,0.0,0.0,0.0
1606988835051525955,2310368,1606985233441769936,imu_link,-0.005233536008745432,-0.005921616218984127,0.2226167619228363,-0.9748740196228027,0.0,0.0,0.0,0.0,0.0,0.0,0.0,0.0,0.0,-25.723356246948242,0.7950505614280701,0.433635950088501,0.0,0.0,0.0,0.0,0.0,0.0,0.0,0.0,0.0,-0.01819426193833351,-0.013898830860853195,0.043181631714105606,0.0,0.0,0.0,0.0,0.0,0.0,0.0,0.0,0.0
1606988835051543737,2310369,1606985233441866299,imu_link,-0.005232981871813536,-0.005920530296862125,0.22261807322502136,-0.9748737215995789,0.0,0.0,0.0,0.0,0.0,0.0,0.0,0.0,0.0,-25.723512649536133,0.7949156761169434,0.43360063433647156,0.0,0.0,0.0,0.0,0.0,0.0,0.0,0.0,0.0,-0.01445868518203497,0.01120393630117178,0.04128663241863251,0.0,0.0,0.0,0.0,0.0,0.0,0.0,0.0,0.0
1606988835051556363,2310370,1606985233441952304,imu_link,-0.005232981871813536,-0.005920530296862125,0.22261807322502136,-0.9748737215995789,0.0,0.0,0.0,0.0,0.0,0.0,0.0,0.0,0.0,-25.723512649536133,0.7949156761169434,0.43360063433647156,0.0,0.0,0.0,0.0,0.0,0.0,0.0,0.0,0.0,-0.01445868518203497,0.01120393630117178,0.04128663241863251,0.0,0.0,0.0,0.0,0.0,0.0,0.0,0.0,0.0
1606988835051596594,2310371,1606985233442043650,imu_link,-0.005230173468589783,-0.005919782444834709,0.22262148559093475,-0.9748730063438416,0.0,0.0,0.0,0.0,0.0,0.0,0.0,0.0,0.0,-25.72391128540039,0.7947620749473572,0.4333031475543976,0.0,0.0,0.0,0.0,0.0,0.0,0.0,0.0,0.0,-0.009027104824781418,0.01871757209300995,0.038360897451639175,0.0,0.0,0.0,0.0,0.0,0.0,0.0,0.0,0.0
1606988835058008819,2310372,1606985233442127319,imu_link,-0.005230173468589783,-0.005919782444834709,0.22262148559093475,-0.9748730063438416,0.0,0.0,0.0,0.0,0.0,0.0,0.0,0.0,0.0,-25.72391128540039,0.7947620749473572,0.4333031475543976,0.0,0.0,0.0,0.0,0.0,0.0,0.0,0.0,0.0,-0.009027104824781418,0.01871757209300995,0.038360897451639175,0.0,0.0,0.0,0.0,0.0,0.0,0.0,0.0,0.0
1606988835058029886,2310373,1606985233442210817,imu_link,-0.005231413058936596,-0.005920676048845053,0.2226196676492691,-0.974873423576355,0.0,0.0,0.0,0.0,0.0,0.0,0.0,0.0,0.0,-25.723697662353516,0.7948926687240601,0.4334203898906708,0.0,0.0,0.0,0.0,0.0,0.0,0.0,0.0,0.0,-0.010898157022893429,0.003646641969680786,0.05639069527387619,0.0,0.0,0.0,0.0,0.0,0.0,0.0,0.0,0.0
1606988835058041259,2310374,1606985233455280514,imu_link,-0.005231413058936596,-0.005920676048845053,0.2226196676492691,-0.974873423576355,0.0,0.0,0.0,0.0,0.0,0.0,0.0,0.0,0.0,-25.723697662353516,0.7948926687240601,0.4334203898906708,0.0,0.0,0.0,0.0,0.0,0.0,0.0,0.0,0.0,-0.010898157022893429,0.003646641969680786,0.05639069527387619,0.0,0.0,0.0,0.0,0.0,0.0,0.0,0.0,0.0
1606988835058075308,2310375,1606985233455424432,imu_link,-0.005230378359556198,-0.0059192306362092495,0.22262203693389893,-0.974872887134552,0.0,0.0,0.0,0.0,0.0,0.0,0.0,0.0,0.0,-25.723976135253906,0.7947059273719788,0.4333396255970001,0.0,0.0,0.0,0.0,0.0,0.0,0.0,0.0,0.0,-0.008199562318623066,0.005325058475136757,0.07897365093231201,0.0,0.0,0.0,0.0,0.0,0.0,0.0,0.0,0.0
1606988835070610035,2310376,1606985233455601437,imu_link,-0.005230378359556198,-0.0059192306362092495,0.22262203693389893,-0.974872887134552,0.0,0.0,0.0,0.0,0.0,0.0,0.0,0.0,0.0,-25.723976135253906,0.7947059273719788,0.4333396255970001,0.0,0.0,0.0,0.0,0.0,0.0,0.0,0.0,0.0,-0.008199562318623066,0.005325058475136757,0.07897365093231201,0.0,0.0,0.0,0.0,0.0,0.0,0.0,0.0,0.0
1606988835070639490,2310377,1606985233455693921,imu_link,-0.005230599548667669,-0.005917922593653202,0.22262150049209595,-0.9748730063438416,0.0,0.0,0.0,0.0,0.0,0.0,0.0,0.0,0.0,-25.723915100097656,0.7945650815963745,0.43339818716049194,0.0,0.0,0.0,0.0,0.0,0.0,0.0,0.0,0.0,-0.009122103452682495,0.0060394564643502235,0.08131036907434464,0.0,0.0,0.0,0.0,0.0,0.0,0.0,0.0,0.0
1606988835070654685,2310378,1606985233455853951,imu_link,-0.005230599548667669,-0.005917922593653202,0.22262150049209595,-0.9748730063438416,0.0,0.0,0.0,0.0,0.0,0.0,0.0,0.0,0.0,-25.723915100097656,0.7945650815963745,0.43339818716049194,0.0,0.0,0.0,0.0,0.0,0.0,0.0,0.0,0.0,-0.009122103452682495,0.0060394564643502235,0.08131036907434464,0.0,0.0,0.0,0.0,0.0,0.0,0.0,0.0,0.0
1606988835070669958,2310379,1606985233455959305,imu_link,-0.005229910369962454,-0.005915896035730839,0.22261691093444824,-0.9748740792274475,0.0,0.0,0.0,0.0,0.0,0.0,0.0,0.0,0.0,-25.72337532043457,0.7943190932273865,0.43337661027908325,0.0,0.0,0.0,0.0,0.0,0.0,0.0,0.0,0.0,-0.004456761758774519,0.0027181801851838827,0.07466166466474533,0.0,0.0,0.0,0.0,0.0,0.0,0.0,0.0,0.0
1606988835070700281,2310380,1606985233456042593,imu_link,-0.005229910369962454,-0.005915896035730839,0.22261691093444824,-0.9748740792274475,0.0,0.0,0.0,0.0,0.0,0.0,0.0,0.0,0.0,-25.72337532043457,0.7943190932273865,0.43337661027908325,0.0,0.0,0.0,0.0,0.0,0.0,0.0,0.0,0.0,-0.004456761758774519,0.0027181801851838827,0.07466166466474533,0.0,0.0,0.0,0.0,0.0,0.0,0.0,0.0,0.0
1606988835080419367,2310381,1606985233456116048,imu_link,-0.005229232832789421,-0.005916896741837263,0.22261551022529602,-0.9748743772506714,0.0,0.0,0.0,0.0,0.0,0.0,0.0,0.0,0.0,-25.72321319580078,0.7944130301475525,0.43327653408050537,0.0,0.0,0.0,0.0,0.0,0.0,0.0,0.0,0.0,-0.007513496093451977,-0.00746474415063858,0.07256264984607697,0.0,0.0,0.0,0.0,0.0,0.0,0.0,0.0,0.0
1606988835080454321,2310382,1606985233456195527,imu_link,-0.005229232832789421,-0.005916896741837263,0.22261551022529602,-0.9748743772506714,0.0,0.0,0.0,0.0,0.0,0.0,0.0,0.0,0.0,-25.72321319580078,0.7944130301475525,0.43327653408050537,0.0,0.0,0.0,0.0,0.0,0.0,0.0,0.0,0.0,-0.007513496093451977,-0.00746474415063858,0.07256264984607697,0.0,0.0,0.0,0.0,0.0,0.0,0.0,0.0,0.0
1606988835080471958,2310383,1606985233456279576,imu_link,-0.005230539478361607,-0.005916272755712271,0.2226063758134842,-0.9748764634132385,0.0,0.0,0.0,0.0,0.0,0.0,0.0,0.0,0.0,-25.722135543823242,0.79437255859375,0.43344590067863464,0.0,0.0,0.0,0.0,0.0,0.0,0.0,0.0,0.0,-0.013495776802301407,-0.006512912455946207,0.052074696868658066,0.0,0.0,0.0,0.0,0.0,0.0,0.0,0.0,0.0
1606988835080491544,2310384,1606985233456377523,imu_link,-0.005230539478361607,-0.005916272755712271,0.2226063758134842,-0.9748764634132385,0.0,0.0,0.0,0.0,0.0,0.0,0.0,0.0,0.0,-25.722135543823242,0.79437255859375,0.43344590067863464,0.0,0.0,0.0,0.0,0.0,0.0,0.0,0.0,0.0,-0.013495776802301407,-0.006512912455946207,0.052074696868658066,0.0,0.0,0.0,0.0,0.0,0.0,0.0,0.0,0.0
1606988835159084025,2310385,1606985233468163464,imu_link,-0.005231267306953669,-0.005915699061006308,0.22260847687721252,-0.9748759865760803,0.0,0.0,0.0,0.0,0.0,0.0,0.0,0.0,0.0,-25.722383499145508,0.794327974319458,0.43354010581970215,0.0,0.0,0.0,0.0,0.0,0.0,0.0,0.0,0.0,-0.007227507419884205,-9.267224231734872e-05,0.04771987348794937,0.0,0.0,0.0,0.0,0.0,0.0,0.0,0.0,0.0
1606988835159106256,2310386,1606985233468279698,imu_link,-0.005231267306953669,-0.005915699061006308,0.22260847687721252,-0.9748759865760803,0.0,0.0,0.0,0.0,0.0,0.0,0.0,0.0,0.0,-25.722383499145508,0.794327974319458,0.43354010581970215,0.0,0.0,0.0,0.0,0.0,0.0,0.0,0.0,0.0,-0.007227507419884205,-9.267224231734872e-05,0.04771987348794937,0.0,0.0,0.0,0.0,0.0,0.0,0.0,0.0,0.0
1606988835159124167,2310387,1606985233468365958,imu_link,-0.005230933427810669,-0.005913475528359413,0.222613126039505,-0.9748749732971191,0.0,0.0,0.0,0.0,0.0,0.0,0.0,0.0,0.0,-25.722929000854492,0.7940731048583984,0.4335557222366333,0.0,0.0,0.0,0.0,0.0,0.0,0.0,0.0,0.0,-0.007755981292575598,0.0021430854685604572,0.054148077964782715,0.0,0.0,0.0,0.0,0.0,0.0,0.0,0.0,0.0
1606988835159138272,2310388,1606985233468448083,imu_link,-0.005230933427810669,-0.005913475528359413,0.222613126039505,-0.9748749732971191,0.0,0.0,0.0,0.0,0.0,0.0,0.0,0.0,0.0,-25.722929000854492,0.7940731048583984,0.4335557222366333,0.0,0.0,0.0,0.0,0.0,0.0,0.0,0.0,0.0,-0.007755981292575598,0.0021430854685604572,0.054148077964782715,0.0,0.0,0.0,0.0,0.0,0.0,0.0,0.0,0.0
1606988835159162506,2310389,1606985233468528374,imu_link,-0.005230088718235493,-0.005912731401622295,0.22261425852775574,-0.9748746752738953,0.0,0.0,0.0,0.0,0.0,0.0,0.0,0.0,0.0,-25.723066329956055,0.793968915939331,0.4334794282913208,0.0,0.0,0.0,0.0,0.0,0.0,0.0,0.0,0.0,-0.01167667843401432,0.007936042733490467,0.052293989807367325,0.0,0.0,0.0,0.0,0.0,0.0,0.0,0.0,0.0
1606988835162518227,2310390,1606985233468624521,imu_link,-0.005230088718235493,-0.005912731401622295,0.22261425852775574,-0.9748746752738953,0.0,0.0,0.0,0.0,0.0,0.0,0.0,0.0,0.0,-25.723066329956055,0.793968915939331,0.4334794282913208,0.0,0.0,0.0,0.0,0.0,0.0,0.0,0.0,0.0,-0.01167667843401432,0.007936042733490467,0.052293989807367325,0.0,0.0,0.0,0.0,0.0,0.0,0.0,0.0,0.0
1606988835162541484,2310391,1606985233468711357,imu_link,-0.005226526875048876,-0.0059106783010065556,0.2226165235042572,-0.9748741984367371,0.0,0.0,0.0,0.0,0.0,0.0,0.0,0.0,0.0,-25.72333335876465,0.7936496734619141,0.43313196301460266,0.0,0.0,0.0,0.0,0.0,0.0,0.0,0.0,0.0,-0.004805511794984341,0.006607993971556425,0.07044127583503723,0.0,0.0,0.0,0.0,0.0,0.0,0.0,0.0,0.0
1606988835162558889,2310392,1606985233468784135,imu_link,-0.005226526875048876,-0.0059106783010065556,0.2226165235042572,-0.9748741984367371,0.0,0.0,0.0,0.0,0.0,0.0,0.0,0.0,0.0,-25.72333335876465,0.7936496734619141,0.43313196301460266,0.0,0.0,0.0,0.0,0.0,0.0,0.0,0.0,0.0,-0.004805511794984341,0.006607993971556425,0.07044127583503723,0.0,0.0,0.0,0.0,0.0,0.0,0.0,0.0,0.0
1606988835162574462,2310393,1606985233468862968,imu_link,-0.005225355736911297,-0.0059095872566103935,0.2226158231496811,-0.9748743772506714,0.0,0.0,0.0,0.0,0.0,0.0,0.0,0.0,0.0,-25.723255157470703,0.793497622013092,0.43302953243255615,0.0,0.0,0.0,0.0,0.0,0.0,0.0,0.0,0.0,0.0011140223359689116,0.008022640831768513,0.08897802978754044,0.0,0.0,0.0,0.0,0.0,0.0,0.0,0.0,0.0
1606988835172595228,2310394,1606985233468941630,imu_link,-0.005225355736911297,-0.0059095872566103935,0.2226158231496811,-0.9748743772506714,0.0,0.0,0.0,0.0,0.0,0.0,0.0,0.0,0.0,-25.723255157470703,0.793497622013092,0.43302953243255615,0.0,0.0,0.0,0.0,0.0,0.0,0.0,0.0,0.0,0.0011140223359689116,0.008022640831768513,0.08897802978754044,0.0,0.0,0.0,0.0,0.0,0.0,0.0,0.0,0.0
1606988835172649659,2310395,1606985233481439794,imu_link,-0.00522466329857707,-0.005911414977163076,0.22261638939380646,-0.9748742580413818,0.0,0.0,0.0,0.0,0.0,0.0,0.0,0.0,0.0,-25.723316192626953,0.7936844229698181,0.43290504813194275,0.0,0.0,0.0,0.0,0.0,0.0,0.0,0.0,0.0,-0.001495258416980505,-0.003251347690820694,0.0782015398144722,0.0,0.0,0.0,0.0,0.0,0.0,0.0,0.0,0.0
1606988835172666925,2310396,1606985233481556560,imu_link,-0.00522466329857707,-0.005911414977163076,0.22261638939380646,-0.9748742580413818,0.0,0.0,0.0,0.0,0.0,0.0,0.0,0.0,0.0,-25.723316192626953,0.7936844229698181,0.43290504813194275,0.0,0.0,0.0,0.0,0.0,0.0,0.0,0.0,0.0,-0.001495258416980505,-0.003251347690820694,0.0782015398144722,0.0,0.0,0.0,0.0,0.0,0.0,0.0,0.0,0.0
1606988835172680407,2310397,1606985233481642178,imu_link,-0.005224378313869238,-0.005910067819058895,0.2226165384054184,-0.9748741984367371,0.0,0.0,0.0,0.0,0.0,0.0,0.0,0.0,0.0,-25.723337173461914,0.7935267090797424,0.43290749192237854,0.0,0.0,0.0,0.0,0.0,0.0,0.0,0.0,0.0,-0.004794021137058735,-0.004455778747797012,0.05780241638422012,0.0,0.0,0.0,0.0,0.0,0.0,0.0,0.0,0.0
1606988835172696748,2310398,1606985233481718540,imu_link,-0.005224378313869238,-0.005910067819058895,0.2226165384054184,-0.9748741984367371,0.0,0.0,0.0,0.0,0.0,0.0,0.0,0.0,0.0,-25.723337173461914,0.7935267090797424,0.43290749192237854,0.0,0.0,0.0,0.0,0.0,0.0,0.0,0.0,0.0,-0.004794021137058735,-0.004455778747797012,0.05780241638422012,0.0,0.0,0.0,0.0,0.0,0.0,0.0,0.0,0.0
1606988835177881251,2310399,1606985233481800259,imu_link,-0.005224045366048813,-0.005910293199121952,0.22261875867843628,-0.9748736619949341,0.0,0.0,0.0,0.0,0.0,0.0,0.0,0.0,0.0,-25.72359848022461,0.7935442924499512,0.4328627288341522,0.0,0.0,0.0,0.0,0.0,0.0,0.0,0.0,0.0,-0.007856101728975773,0.01626165211200714,0.04728724807500839,0.0,0.0,0.0,0.0,0.0,0.0,0.0,0.0,0.0
1606988835177924161,2310400,1606985233481884544,imu_link,-0.005224045366048813,-0.005910293199121952,0.22261875867843628,-0.9748736619949341,0.0,0.0,0.0,0.0,0.0,0.0,0.0,0.0,0.0,-25.72359848022461,0.7935442924499512,0.4328627288341522,0.0,0.0,0.0,0.0,0.0,0.0,0.0,0.0,0.0,-0.007856101728975773,0.01626165211200714,0.04728724807500839,0.0,0.0,0.0,0.0,0.0,0.0,0.0,0.0,0.0
1606988835177946238,2310401,1606985233481982596,imu_link,-0.005225392524152994,-0.005908912047743797,0.2226167470216751,-0.9748741388320923,0.0,0.0,0.0,0.0,0.0,0.0,0.0,0.0,0.0,-25.72336196899414,0.7934234738349915,0.43305012583732605,0.0,0.0,0.0,0.0,0.0,0.0,0.0,0.0,0.0,-0.005397815257310867,0.014917084015905857,0.047353360801935196,0.0,0.0,0.0,0.0,0.0,0.0,0.0,0.0,0.0
1606988835177961252,2310402,1606985233482074869,imu_link,-0.005225392524152994,-0.005908912047743797,0.2226167470216751,-0.9748741388320923,0.0,0.0,0.0,0.0,0.0,0.0,0.0,0.0,0.0,-25.72336196899414,0.7934234738349915,0.43305012583732605,0.0,0.0,0.0,0.0,0.0,0.0,0.0,0.0,0.0,-0.005397815257310867,0.014917084015905857,0.047353360801935196,0.0,0.0,0.0,0.0,0.0,0.0,0.0,0.0,0.0
1606988835307424501,2310403,1606985233482165319,imu_link,-0.005224066320806742,-0.005909067578613758,0.2226087599992752,-0.9748759865760803,0.0,0.0,0.0,0.0,0.0,0.0,0.0,0.0,0.0,-25.722423553466797,0.7934035062789917,0.432904452085495,0.0,0.0,0.0,0.0,0.0,0.0,0.0,0.0,0.0,-0.0025083934888243675,-0.009231065399944782,0.0562162809073925,0.0,0.0,0.0,0.0,0.0,0.0,0.0,0.0,0.0
1606988835307438346,2310404,1606985233482244777,imu_link,-0.005224066320806742,-0.005909067578613758,0.2226087599992752,-0.9748759865760803,0.0,0.0,0.0,0.0,0.0,0.0,0.0,0.0,0.0,-25.722423553466797,0.7934035062789917,0.432904452085495,0.0,0.0,0.0,0.0,0.0,0.0,0.0,0.0,0.0,-0.0025083934888243675,-0.009231065399944782,0.0562162809073925,0.0,0.0,0.0,0.0,0.0,0.0,0.0,0.0,0.0
1606988835307450267,2310405,1606985233482333869,imu_link,-0.0052228933200240135,-0.00590868154540658,0.22260791063308716,-0.9748761653900146,0.0,0.0,0.0,0.0,0.0,0.0,0.0,0.0,0.0,-25.722326278686523,0.7933301329612732,0.43278396129608154,0.0,0.0,0.0,0.0,0.0,0.0,0.0,0.0,0.0,-0.017159979790449142,-0.0005093420040793717,0.07061205804347992,0.0,0.0,0.0,0.0,0.0,0.0,0.0,0.0,0.0
1606988835307459410,2310406,1606985233495287397,imu_link,-0.0052228933200240135,-0.00590868154540658,0.22260791063308716,-0.9748761653900146,0.0,0.0,0.0,0.0,0.0,0.0,0.0,0.0,0.0,-25.722326278686523,0.7933301329612732,0.43278396129608154,0.0,0.0,0.0,0.0,0.0,0.0,0.0,0.0,0.0,-0.017159979790449142,-0.0005093420040793717,0.07061205804347992,0.0,0.0,0.0,0.0,0.0,0.0,0.0,0.0,0.0
1606988835313638355,2310407,1606985233495392390,imu_link,-0.0052221897058188915,-0.005906009580940008,0.22260116040706635,-0.9748777151107788,0.0,0.0,0.0,0.0,0.0,0.0,0.0,0.0,0.0,-25.721532821655273,0.7930106520652771,0.4327789545059204,0.0,0.0,0.0,0.0,0.0,0.0,0.0,0.0,0.0,-0.026084667071700096,0.0131430234760046,0.055155325680971146,0.0,0.0,0.0,0.0,0.0,0.0,0.0,0.0,0.0
1606988835313655342,2310408,1606985233495466981,imu_link,-0.0052221897058188915,-0.005906009580940008,0.22260116040706635,-0.9748777151107788,0.0,0.0,0.0,0.0,0.0,0.0,0.0,0.0,0.0,-25.721532821655273,0.7930106520652771,0.4327789545059204,0.0,0.0,0.0,0.0,0.0,0.0,0.0,0.0,0.0,-0.026084667071700096,0.0131430234760046,0.055155325680971146,0.0,0.0,0.0,0.0,0.0,0.0,0.0,0.0,0.0
1606988835313667100,2310409,1606985233495537722,imu_link,-0.005220962688326836,-0.005904630292207003,0.2226027399301529,-0.9748773574829102,0.0,0.0,0.0,0.0,0.0,0.0,0.0,0.0,0.0,-25.721717834472656,0.7928258776664734,0.432675838470459,0.0,0.0,0.0,0.0,0.0,0.0,0.0,0.0,0.0,-0.016039902344346046,0.013258627615869045,0.05261053889989853,0.0,0.0,0.0,0.0,0.0,0.0,0.0,0.0,0.0
1606988835313676867,2310410,1606985233495608931,imu_link,-0.005220962688326836,-0.005904630292207003,0.2226027399301529,-0.9748773574829102,0.0,0.0,0.0,0.0,0.0,0.0,0.0,0.0,0.0,-25.721717834472656,0.7928258776664734,0.432675838470459,0.0,0.0,0.0,0.0,0.0,0.0,0.0,0.0,0.0,-0.016039902344346046,0.013258627615869045,0.05261053889989853,0.0,0.0,0.0,0.0,0.0,0.0,0.0,0.0,0.0
1606988835313689018,2310411,1606985233495678907,imu_link,-0.005216989666223526,-0.0059035951271653175,0.2225988805294037,-0.9748783111572266,0.0,0.0,0.0,0.0,0.0,0.0,0.0,0.0,0.0,-25.72126579284668,0.7926072478294373,0.43226149678230286,0.0,0.0,0.0,0.0,0.0,0.0,0.0,0.0,0.0,-0.0024700204376131296,0.00795646384358406,0.0525866337120533,0.0,0.0,0.0,0.0,0.0,0.0,0.0,0.0,0.0
1606988835317136909,2310412,1606985233495765168,imu_link,-0.005216989666223526,-0.0059035951271653175,0.2225988805294037,-0.9748783111572266,0.0,0.0,0.0,0.0,0.0,0.0,0.0,0.0,0.0,-25.72126579284668,0.7926072478294373,0.43226149678230286,0.0,0.0,0.0,0.0,0.0,0.0,0.0,0.0,0.0,-0.0024700204376131296,0.00795646384358406,0.0525866337120533,0.0,0.0,0.0,0.0,0.0,0.0,0.0,0.0,0.0
1606988835317155911,2310413,1606985233495839215,imu_link,-0.005217368248850107,-0.005905271507799625,0.22259655594825745,-0.9748788475990295,0.0,0.0,0.0,0.0,0.0,0.0,0.0,0.0,0.0,-25.720991134643555,0.792803168296814,0.4322628676891327,0.0,0.0,0.0,0.0,0.0,0.0,0.0,0.0,0.0,0.009773812256753445,-0.003209272865206003,0.04245445504784584,0.0,0.0,0.0,0.0,0.0,0.0,0.0,0.0,0.0
1606988835317161012,2310414,1606985233495917259,imu_link,-0.005217368248850107,-0.005905271507799625,0.22259655594825745,-0.9748788475990295,0.0,0.0,0.0,0.0,0.0,0.0,0.0,0.0,0.0,-25.720991134643555,0.792803168296814,0.4322628676891327,0.0,0.0,0.0,0.0,0.0,0.0,0.0,0.0,0.0,0.009773812256753445,-0.003209272865206003,0.04245445504784584,0.0,0.0,0.0,0.0,0.0,0.0,0.0,0.0,0.0
1606988835317168442,2310415,1606985233495996847,imu_link,-0.00521779153496027,-0.005906402599066496,0.2225915938615799,-0.9748799800872803,0.0,0.0,0.0,0.0,0.0,0.0,0.0,0.0,0.0,-25.720409393310547,0.7929381132125854,0.4322853684425354,0.0,0.0,0.0,0.0,0.0,0.0,0.0,0.0,0.0,0.007079717703163624,-0.007292220834642649,0.05415962263941765,0.0,0.0,0.0,0.0,0.0,0.0,0.0,0.0,0.0
1606988835320310548,2310416,1606985233496076841,imu_link,-0.00521779153496027,-0.005906402599066496,0.2225915938615799,-0.9748799800872803,0.0,0.0,0.0,0.0,0.0,0.0,0.0,0.0,0.0,-25.720409393310547,0.7929381132125854,0.4322853684425354,0.0,0.0,0.0,0.0,0.0,0.0,0.0,0.0,0.0,0.007079717703163624,-0.007292220834642649,0.05415962263941765,0.0,0.0,0.0,0.0,0.0,0.0,0.0,0.0,0.0
1606988835320327216,2310417,1606985233508909287,imu_link,-0.005217767786234617,-0.005905567202717066,0.2225930392742157,-0.9748796820640564,0.0,0.0,0.0,0.0,0.0,0.0,0.0,0.0,0.0,-25.720579147338867,0.792844831943512,0.4323028326034546,0.0,0.0,0.0,0.0,0.0,0.0,0.0,0.0,0.0,-0.005198925267904997,-0.006018178537487984,0.04629155248403549,0.0,0.0,0.0,0.0,0.0,0.0,0.0,0.0,0.0
1606988835320392645,2310418,1606985233509050283,imu_link,-0.005217767786234617,-0.005905567202717066,0.2225930392742157,-0.9748796820640564,0.0,0.0,0.0,0.0,0.0,0.0,0.0,0.0,0.0,-25.720579147338867,0.792844831943512,0.4323028326034546,0.0,0.0,0.0,0.0,0.0,0.0,0.0,0.0,0.0,-0.005198925267904997,-0.006018178537487984,0.04629155248403549,0.0,0.0,0.0,0.0,0.0,0.0,0.0,0.0,0.0
1606988835320433207,2310419,1606985233509187165,imu_link,-0.005221277009695768,-0.005905271042138338,0.222597137093544,-0.97487872838974,0.0,0.0,0.0,0.0,0.0,0.0,0.0,0.0,0.0,-25.72105598449707,0.7929030656814575,0.43269914388656616,0.0,0.0,0.0,0.0,0.0,0.0,0.0,0.0,0.0,-0.016760313883423805,-0.009995130822062492,0.041668299585580826,0.0,0.0,0.0,0.0,0.0,0.0,0.0,0.0,0.0
1606988835320443687,2310420,1606985233509284009,imu_link,-0.005221277009695768,-0.005905271042138338,0.222597137093544,-0.97487872838974,0.0,0.0,0.0,0.0,0.0,0.0,0.0,0.0,0.0,-25.72105598449707,0.7929030656814575,0.43269914388656616,0.0,0.0,0.0,0.0,0.0,0.0,0.0,0.0,0.0,-0.016760313883423805,-0.009995130822062492,0.041668299585580826,0.0,0.0,0.0,0.0,0.0,0.0,0.0,0.0,0.0
1606988835409044998,2310421,1606985233509366746,imu_link,-0.0052220141515135765,-0.005906854756176472,0.22259722650051117,-0.9748786687850952,0.0,0.0,0.0,0.0,0.0,0.0,0.0,0.0,0.0,-25.7210693359375,0.7930988669395447,0.43274104595184326,0.0,0.0,0.0,0.0,0.0,0.0,0.0,0.0,0.0,-0.015387183055281639,-0.0019772385712713003,0.03464016318321228,0.0,0.0,0.0,0.0,0.0,0.0,0.0,0.0,0.0
1606988835409063531,2310422,1606985233509439685,imu_link,-0.0052220141515135765,-0.005906854756176472,0.22259722650051117,-0.9748786687850952,0.0,0.0,0.0,0.0,0.0,0.0,0.0,0.0,0.0,-25.7210693359375,0.7930988669395447,0.43274104595184326,0.0,0.0,0.0,0.0,0.0,0.0,0.0,0.0,0.0,-0.015387183055281639,-0.0019772385712713003,0.03464016318321228,0.0,0.0,0.0,0.0,0.0,0.0,0.0,0.0,0.0
1606988835409070146,2310423,1606985233509540252,imu_link,-0.005221663508564234,-0.00590420700609684,0.22260166704654694,-0.974877655506134,0.0,0.0,0.0,0.0,0.0,0.0,0.0,0.0,0.0,-25.72159194946289,0.7927960753440857,0.43276575207710266,0.0,0.0,0.0,0.0,0.0,0.0,0.0,0.0,0.0,0.004404113162308931,0.011010446585714817,0.04357374459505081,0.0,0.0,0.0,0.0,0.0,0.0,0.0,0.0,0.0
1606988835409077160,2310424,1606985233509622503,imu_link,-0.005221663508564234,-0.00590420700609684,0.22260166704654694,-0.974877655506134,0.0,0.0,0.0,0.0,0.0,0.0,0.0,0.0,0.0,-25.72159194946289,0.7927960753440857,0.43276575207710266,0.0,0.0,0.0,0.0,0.0,0.0,0.0,0.0,0.0,0.004404113162308931,0.011010446585714817,0.04357374459505081,0.0,0.0,0.0,0.0,0.0,0.0,0.0,0.0,0.0
1606988835415035254,2310425,1606985233509694900,imu_link,-0.005221453495323658,-0.005906132981181145,0.222602978348732,-0.9748773574829102,0.0,0.0,0.0,0.0,0.0,0.0,0.0,0.0,0.0,-25.721744537353516,0.793006420135498,0.43269211053848267,0.0,0.0,0.0,0.0,0.0,0.0,0.0,0.0,0.0,0.004096086136996746,-0.002359184669330716,0.07131616771221161,0.0,0.0,0.0,0.0,0.0,0.0,0.0,0.0,0.0
1606988835415055324,2310426,1606985233509775316,imu_link,-0.005221453495323658,-0.005906132981181145,0.222602978348732,-0.9748773574829102,0.0,0.0,0.0,0.0,0.0,0.0,0.0,0.0,0.0,-25.721744537353516,0.793006420135498,0.43269211053848267,0.0,0.0,0.0,0.0,0.0,0.0,0.0,0.0,0.0,0.004096086136996746,-0.002359184669330716,0.07131616771221161,0.0,0.0,0.0,0.0,0.0,0.0,0.0,0.0,0.0
1606988835415086576,2310427,1606985233509860478,imu_link,-0.005222173873335123,-0.005905963480472565,0.2226065695285797,-0.9748765230178833,0.0,0.0,0.0,0.0,0.0,0.0,0.0,0.0,0.0,-25.72216796875,0.793007493019104,0.43277403712272644,0.0,0.0,0.0,0.0,0.0,0.0,0.0,0.0,0.0,0.0013532186858356,-0.005696616135537624,0.09095060080289841,0.0,0.0,0.0,0.0,0.0,0.0,0.0,0.0,0.0
1606988835415091075,2310428,1606985233522812513,imu_link,-0.005222173873335123,-0.005905963480472565,0.2226065695285797,-0.9748765230178833,0.0,0.0,0.0,0.0,0.0,0.0,0.0,0.0,0.0,-25.72216796875,0.793007493019104,0.43277403712272644,0.0,0.0,0.0,0.0,0.0,0.0,0.0,0.0,0.0,0.0013532186858356,-0.005696616135537624,0.09095060080289841,0.0,0.0,0.0,0.0,0.0,0.0,0.0,0.0,0.0
1606988835415104880,2310429,1606985233522992891,imu_link,-0.0052199587225914,-0.005907901097089052,0.22260509431362152,-0.974876880645752,0.0,0.0,0.0,0.0,0.0,0.0,0.0,0.0,0.0,-25.721994400024414,0.7931668162345886,0.43247827887535095,0.0,0.0,0.0,0.0,0.0,0.0,0.0,0.0,0.0,0.012729338370263577,0.0014185367617756128,0.11272454261779785,0.0,0.0,0.0,0.0,0.0,0.0,0.0,0.0,0.0
1606988835449350875,2310430,1606985233523081250,imu_link,-0.0052199587225914,-0.005907901097089052,0.22260509431362152,-0.974876880645752,0.0,0.0,0.0,0.0,0.0,0.0,0.0,0.0,0.0,-25.721994400024414,0.7931668162345886,0.43247827887535095,0.0,0.0,0.0,0.0,0.0,0.0,0.0,0.0,0.0,0.012729338370263577,0.0014185367617756128,0.11272454261779785,0.0,0.0,0.0,0.0,0.0,0.0,0.0,0.0,0.0
1606988835449370850,2310431,1606985233523165520,imu_link,-0.005219189450144768,-0.00590921426191926,0.2226071059703827,-0.9748764038085938,0.0,0.0,0.0,0.0,0.0,0.0,0.0,0.0,0.0,-25.722232818603516,0.7932947874069214,0.43235722184181213,0.0,0.0,0.0,0.0,0.0,0.0,0.0,0.0,0.0,0.010912283323705196,0.0029269219376146793,0.10511491447687149,0.0,0.0,0.0,0.0,0.0,0.0,0.0,0.0,0.0
1606988835449378563,2310432,1606985233523249114,imu_link,-0.005219189450144768,-0.00590921426191926,0.2226071059703827,-0.9748764038085938,0.0,0.0,0.0,0.0,0.0,0.0,0.0,0.0,0.0,-25.722232818603516,0.7932947874069214,0.43235722184181213,0.0,0.0,0.0,0.0,0.0,0.0,0.0,0.0,0.0,0.010912283323705196,0.0029269219376146793,0.10511491447687149,0.0,0.0,0.0,0.0,0.0,0.0,0.0,0.0,0.0
1606988835449384722,2310433,1606985233523345342,imu_link,-0.005216450896114111,-0.005908035207539797,0.22260622680187225,-0.9748766422271729,0.0,0.0,0.0,0.0,0.0,0.0,0.0,0.0,0.0,-25.722129821777344,0.7930928468704224,0.43208205699920654,0.0,0.0,0.0,0.0,0.0,0.0,0.0,0.0,0.0,0.012053247541189194,0.003226801985874772,0.08669731765985489,0.0,0.0,0.0,0.0,0.0,0.0,0.0,0.0,0.0
1606988835454165464,2310434,1606985233523429150,imu_link,-0.005216450896114111,-0.005908035207539797,0.22260622680187225,-0.9748766422271729,0.0,0.0,0.0,0.0,0.0,0.0,0.0,0.0,0.0,-25.722129821777344,0.7930928468704224,0.43208205699920654,0.0,0.0,0.0,0.0,0.0,0.0,0.0,0.0,0.0,0.012053247541189194,0.003226801985874772,0.08669731765985489,0.0,0.0,0.0,0.0,0.0,0.0,0.0,0.0,0.0
1606988835454191071,2310435,1606985233523510358,imu_link,-0.005215827375650406,-0.005907169543206692,0.2226051241159439,-0.974876880645752,0.0,0.0,0.0,0.0,0.0,0.0,0.0,0.0,0.0,-25.722000122070312,0.7929797172546387,0.432035356760025,0.0,0.0,0.0,0.0,0.0,0.0,0.0,0.0,0.0,0.003521141828969121,-0.005426488351076841,0.05963589623570442,0.0,0.0,0.0,0.0,0.0,0.0,0.0,0.0,0.0
1606988835454239700,2310436,1606985233523591346,imu_link,-0.005215827375650406,-0.005907169543206692,0.2226051241159439,-0.974876880645752,0.0,0.0,0.0,0.0,0.0,0.0,0.0,0.0,0.0,-25.722000122070312,0.7929797172546387,0.432035356760025,0.0,0.0,0.0,0.0,0.0,0.0,0.0,0.0,0.0,0.003521141828969121,-0.005426488351076841,0.05963589623570442,0.0,0.0,0.0,0.0,0.0,0.0,0.0,0.0,0.0
1606988835454247550,2310437,1606985233523672619,imu_link,-0.005216652061790228,-0.005906553007662296,0.22260501980781555,-0.974876880645752,0.0,0.0,0.0,0.0,0.0,0.0,0.0,0.0,0.0,-25.721988677978516,0.792931854724884,0.43214333057403564,0.0,0.0,0.0,0.0,0.0,0.0,0.0,0.0,0.0,0.0012554675340652466,0.0006805246812291443,0.030200738459825516,0.0,0.0,0.0,0.0,0.0,0.0,0.0,0.0,0.0
1606988835454261977,2310438,1606985233523753381,imu_link,-0.005216652061790228,-0.005906553007662296,0.22260501980781555,-0.974876880645752,0.0,0.0,0.0,0.0,0.0,0.0,0.0,0.0,0.0,-25.721988677978516,0.792931854724884,0.43214333057403564,0.0,0.0,0.0,0.0,0.0,0.0,0.0,0.0,0.0,0.0012554675340652466,0.0006805246812291443,0.030200738459825516,0.0,0.0,0.0,0.0,0.0,0.0,0.0,0.0,0.0
1606988835511478114,2310439,1606985233535521225,imu_link,-0.005215517710894346,-0.005907783284783363,0.22260360419750214,-0.9748772382736206,0.0,0.0,0.0,0.0,0.0,0.0,0.0,0.0,0.0,-25.721820831298828,0.7930397391319275,0.4319863021373749,0.0,0.0,0.0,0.0,0.0,0.0,0.0,0.0,0.0,0.011175887659192085,-0.0029016477055847645,0.04614844173192978,0.0,0.0,0.0,0.0,0.0,0.0,0.0,0.0,0.0
1606988835511496925,2310440,1606985233535637955,imu_link,-0.005215517710894346,-0.005907783284783363,0.22260360419750214,-0.9748772382736206,0.0,0.0,0.0,0.0,0.0,0.0,0.0,0.0,0.0,-25.721820831298828,0.7930397391319275,0.4319863021373749,0.0,0.0,0.0,0.0,0.0,0.0,0.0,0.0,0.0,0.011175887659192085,-0.0029016477055847645,0.04614844173192978,0.0,0.0,0.0,0.0,0.0,0.0,0.0,0.0,0.0
1606988835511502081,2310441,1606985233535723153,imu_link,-0.00521459523588419,-0.005908324848860502,0.2226029485464096,-0.9748773574829102,0.0,0.0,0.0,0.0,0.0,0.0,0.0,0.0,0.0,-25.72174644470215,0.7930763959884644,0.4318699836730957,0.0,0.0,0.0,0.0,0.0,0.0,0.0,0.0,0.0,0.005743346177041531,-0.007274046540260315,0.0635138675570488,0.0,0.0,0.0,0.0,0.0,0.0,0.0,0.0,0.0
1606988835511511112,2310442,1606985233535805959,imu_link,-0.00521459523588419,-0.005908324848860502,0.2226029485464096,-0.9748773574829102,0.0,0.0,0.0,0.0,0.0,0.0,0.0,0.0,0.0,-25.72174644470215,0.7930763959884644,0.4318699836730957,0.0,0.0,0.0,0.0,0.0,0.0,0.0,0.0,0.0,0.005743346177041531,-0.007274046540260315,0.0635138675570488,0.0,0.0,0.0,0.0,0.0,0.0,0.0,0.0,0.0
1606988835518405794,2310443,1606985233535888174,imu_link,-0.005216776859015226,-0.005911427550017834,0.22260425984859467,-0.9748769998550415,0.0,0.0,0.0,0.0,0.0,0.0,0.0,0.0,0.0,-25.72190284729004,0.7934792041778564,0.432033509016037,0.0,0.0,0.0,0.0,0.0,0.0,0.0,0.0,0.0,0.0004231322091072798,0.009801012463867664,0.05028935521841049,0.0,0.0,0.0,0.0,0.0,0.0,0.0,0.0,0.0
1606988835518423027,2310444,1606985233535978574,imu_link,-0.005216776859015226,-0.005911427550017834,0.22260425984859467,-0.9748769998550415,0.0,0.0,0.0,0.0,0.0,0.0,0.0,0.0,0.0,-25.72190284729004,0.7934792041778564,0.432033509016037,0.0,0.0,0.0,0.0,0.0,0.0,0.0,0.0,0.0,0.0004231322091072798,0.009801012463867664,0.05028935521841049,0.0,0.0,0.0,0.0,0.0,0.0,0.0,0.0,0.0
1606988835518443096,2310445,1606985233536058809,imu_link,-0.005219341721385717,-0.005914321634918451,0.2226056605577469,-0.9748767018318176,0.0,0.0,0.0,0.0,0.0,0.0,0.0,0.0,0.0,-25.722063064575195,0.7938686013221741,0.4322451949119568,0.0,0.0,0.0,0.0,0.0,0.0,0.0,0.0,0.0,-0.0009355436195619404,-0.0014510793844237924,0.0237493384629488,0.0,0.0,0.0,0.0,0.0,0.0,0.0,0.0,0.0
1606988835518452632,2310446,1606985233536183408,imu_link,-0.005219341721385717,-0.005914321634918451,0.2226056605577469,-0.9748767018318176,0.0,0.0,0.0,0.0,0.0,0.0,0.0,0.0,0.0,-25.722063064575195,0.7938686013221741,0.4322451949119568,0.0,0.0,0.0,0.0,0.0,0.0,0.0,0.0,0.0,-0.0009355436195619404,-0.0014510793844237924,0.0237493384629488,0.0,0.0,0.0,0.0,0.0,0.0,0.0,0.0,0.0
1606988835518460384,2310447,1606985233536271943,imu_link,-0.005218930076807737,-0.005913146305829287,0.2226075828075409,-0.9748762249946594,0.0,0.0,0.0,0.0,0.0,0.0,0.0,0.0,0.0,-25.722288131713867,0.793727695941925,0.43222758173942566,0.0,0.0,0.0,0.0,0.0,0.0,0.0,0.0,0.0,-0.005847625434398651,-0.015751807019114494,0.03270045295357704,0.0,0.0,0.0,0.0,0.0,0.0,0.0,0.0,0.0
1606988835526886967,2310448,1606985233536348289,imu_link,-0.005218930076807737,-0.005913146305829287,0.2226075828075409,-0.9748762249946594,0.0,0.0,0.0,0.0,0.0,0.0,0.0,0.0,0.0,-25.722288131713867,0.793727695941925,0.43222758173942566,0.0,0.0,0.0,0.0,0.0,0.0,0.0,0.0,0.0,-0.005847625434398651,-0.015751807019114494,0.03270045295357704,0.0,0.0,0.0,0.0,0.0,0.0,0.0,0.0,0.0
1606988835526901886,2310449,1606985233548983636,imu_link,-0.005220220889896154,-0.00591163570061326,0.22260724008083344,-0.974876344203949,0.0,0.0,0.0,0.0,0.0,0.0,0.0,0.0,0.0,-25.722248077392578,0.7935917377471924,0.4324105679988861,0.0,0.0,0.0,0.0,0.0,0.0,0.0,0.0,0.0,-0.010440352372825146,-0.010376726277172565,0.03677394986152649,0.0,0.0,0.0,0.0,0.0,0.0,0.0,0.0,0.0
1606988835526915613,2310450,1606985233549103028,imu_link,-0.005220220889896154,-0.00591163570061326,0.22260724008083344,-0.974876344203949,0.0,0.0,0.0,0.0,0.0,0.0,0.0,0.0,0.0,-25.722248077392578,0.7935917377471924,0.4324105679988861,0.0,0.0,0.0,0.0,0.0,0.0,0.0,0.0,0.0,-0.010440352372825146,-0.010376726277172565,0.03677394986152649,0.0,0.0,0.0,0.0,0.0,0.0,0.0,0.0,0.0
1606988835526921230,2310451,1606985233549188285,imu_link,-0.0052197943441569805,-0.005908912979066372,0.22260181605815887,-0.9748775959014893,0.0,0.0,0.0,0.0,0.0,0.0,0.0,0.0,0.0,-25.721609115600586,0.7932741641998291,0.4324367344379425,0.0,0.0,0.0,0.0,0.0,0.0,0.0,0.0,0.0,-0.005089387763291597,-0.010591701604425907,0.03521587699651718,0.0,0.0,0.0,0.0,0.0,0.0,0.0,0.0,0.0
1606988835530595262,2310452,1606985233549274013,imu_link,-0.0052197943441569805,-0.005908912979066372,0.22260181605815887,-0.9748775959014893,0.0,0.0,0.0,0.0,0.0,0.0,0.0,0.0,0.0,-25.721609115600586,0.7932741641998291,0.4324367344379425,0.0,0.0,0.0,0.0,0.0,0.0,0.0,0.0,0.0,-0.005089387763291597,-0.010591701604425907,0.03521587699651718,0.0,0.0,0.0,0.0,0.0,0.0,0.0,0.0,0.0
1606988835530624316,2310453,1606985233549356093,imu_link,-0.005219390615820885,-0.005908340681344271,0.2226024717092514,-0.9748774766921997,0.0,0.0,0.0,0.0,0.0,0.0,0.0,0.0,0.0,-25.721689224243164,0.7932002544403076,0.4324057102203369,0.0,0.0,0.0,0.0,0.0,0.0,0.0,0.0,0.0,0.004220468923449516,-0.016392763704061508,0.054198309779167175,0.0,0.0,0.0,0.0,0.0,0.0,0.0,0.0,0.0
1606988835530637714,2310454,1606985233549439662,imu_link,-0.005219390615820885,-0.005908340681344271,0.2226024717092514,-0.9748774766921997,0.0,0.0,0.0,0.0,0.0,0.0,0.0,0.0,0.0,-25.721689224243164,0.7932002544403076,0.4324057102203369,0.0,0.0,0.0,0.0,0.0,0.0,0.0,0.0,0.0,0.004220468923449516,-0.016392763704061508,0.054198309779167175,0.0,0.0,0.0,0.0,0.0,0.0,0.0,0.0,0.0
1606988835530683655,2310455,1606985233549545251,imu_link,-0.005222587380558252,-0.0059105707332491875,0.22259916365146637,-0.974878191947937,0.0,0.0,0.0,0.0,0.0,0.0,0.0,0.0,0.0,-25.721298217773438,0.7935294508934021,0.4327087104320526,0.0,0.0,0.0,0.0,0.0,0.0,0.0,0.0,0.0,0.006433328613638878,-0.0027734474278986454,0.06442050635814667,0.0,0.0,0.0,0.0,0.0,0.0,0.0,0.0,0.0
1606988835530712650,2310456,1606985233549626755,imu_link,-0.005222587380558252,-0.0059105707332491875,0.22259916365146637,-0.974878191947937,0.0,0.0,0.0,0.0,0.0,0.0,0.0,0.0,0.0,-25.721298217773438,0.7935294508934021,0.4327087104320526,0.0,0.0,0.0,0.0,0.0,0.0,0.0,0.0,0.0,0.006433328613638878,-0.0027734474278986454,0.06442050635814667,0.0,0.0,0.0,0.0,0.0,0.0,0.0,0.0,0.0
1606988835597406831,2310457,1606985233549747434,imu_link,-0.00522360485047102,-0.0059108915738761425,0.22260020673274994,-0.9748779535293579,0.0,0.0,0.0,0.0,0.0,0.0,0.0,0.0,0.0,-25.721416473388672,0.7935917377471924,0.4328134059906006,0.0,0.0,0.0,0.0,0.0,0.0,0.0,0.0,0.0,0.0051370724104344845,0.0031911032274365425,0.05961333587765694,0.0,0.0,0.0,0.0,0.0,0.0,0.0,0.0,0.0
1606988835597421673,2310458,1606985233549832546,imu_link,-0.00522360485047102,-0.0059108915738761425,0.22260020673274994,-0.9748779535293579,0.0,0.0,0.0,0.0,0.0,0.0,0.0,0.0,0.0,-25.721416473388672,0.7935917377471924,0.4328134059906006,0.0,0.0,0.0,0.0,0.0,0.0,0.0,0.0,0.0,0.0051370724104344845,0.0031911032274365425,0.05961333587765694,0.0,0.0,0.0,0.0,0.0,0.0,0.0,0.0,0.0
1606988835597426534,2310459,1606985233549913348,imu_link,-0.0052237361669540405,-0.005911123938858509,0.2225937694311142,-0.9748793840408325,0.0,0.0,0.0,0.0,0.0,0.0,0.0,0.0,0.0,-25.72066307067871,0.7936182022094727,0.432827353477478,0.0,0.0,0.0,0.0,0.0,0.0,0.0,0.0,0.0,0.01385264191776514,-0.008998118340969086,0.05771254748106003,0.0,0.0,0.0,0.0,0.0,0.0,0.0,0.0,0.0
1606988835597440336,2310460,1606985233562767992,imu_link,-0.0052237361669540405,-0.005911123938858509,0.2225937694311142,-0.9748793840408325,0.0,0.0,0.0,0.0,0.0,0.0,0.0,0.0,0.0,-25.72066307067871,0.7936182022094727,0.432827353477478,0.0,0.0,0.0,0.0,0.0,0.0,0.0,0.0,0.0,0.01385264191776514,-0.008998118340969086,0.05771254748106003,0.0,0.0,0.0,0.0,0.0,0.0,0.0,0.0,0.0
1606988835630576801,2310461,1606985233562886717,imu_link,-0.005224136635661125,-0.005910705775022507,0.2225937843322754,-0.9748793840408325,0.0,0.0,0.0,0.0,0.0,0.0,0.0,0.0,0.0,-25.72066307067871,0.7935817241668701,0.43288275599479675,0.0,0.0,0.0,0.0,0.0,0.0,0.0,0.0,0.0,0.014447957277297974,0.008698049001395702,0.06797675788402557,0.0,0.0,0.0,0.0,0.0,0.0,0.0,0.0,0.0
1606988835630604437,2310462,1606985233563001107,imu_link,-0.005224136635661125,-0.005910705775022507,0.2225937843322754,-0.9748793840408325,0.0,0.0,0.0,0.0,0.0,0.0,0.0,0.0,0.0,-25.72066307067871,0.7935817241668701,0.43288275599479675,0.0,0.0,0.0,0.0,0.0,0.0,0.0,0.0,0.0,0.014447957277297974,0.008698049001395702,0.06797675788402557,0.0,0.0,0.0,0.0,0.0,0.0,0.0,0.0,0.0
1606988835630612922,2310463,1606985233563093897,imu_link,-0.005222869571298361,-0.005913258530199528,0.22259019315242767,-0.9748801589012146,0.0,0.0,0.0,0.0,0.0,0.0,0.0,0.0,0.0,-25.720239639282227,0.7938329577445984,0.43267902731895447,0.0,0.0,0.0,0.0,0.0,0.0,0.0,0.0,0.0,0.01362790446728468,0.007886003702878952,0.07718525826931,0.0,0.0,0.0,0.0,0.0,0.0,0.0,0.0,0.0
1606988835630625243,2310464,1606985233563176423,imu_link,-0.005222869571298361,-0.005913258530199528,0.22259019315242767,-0.9748801589012146,0.0,0.0,0.0,0.0,0.0,0.0,0.0,0.0,0.0,-25.720239639282227,0.7938329577445984,0.43267902731895447,0.0,0.0,0.0,0.0,0.0,0.0,0.0,0.0,0.0,0.01362790446728468,0.007886003702878952,0.07718525826931,0.0,0.0,0.0,0.0,0.0,0.0,0.0,0.0,0.0
1606988835630675865,2310465,1606985233563257761,imu_link,-0.005224073771387339,-0.005911486689001322,0.22259163856506348,-0.9748798608779907,0.0,0.0,0.0,0.0,0.0,0.0,0.0,0.0,0.0,-25.72041130065918,0.7936663627624512,0.43285757303237915,0.0,0.0,0.0,0.0,0.0,0.0,0.0,0.0,0.0,0.007325942162424326,-0.0049168020486831665,0.07882846891880035,0.0,0.0,0.0,0.0,0.0,0.0,0.0,0.0,0.0
1606988835647190627,2310466,1606985233563347905,imu_link,-0.005224073771387339,-0.005911486689001322,0.22259163856506348,-0.9748798608779907,0.0,0.0,0.0,0.0,0.0,0.0,0.0,0.0,0.0,-25.72041130065918,0.7936663627624512,0.43285757303237915,0.0,0.0,0.0,0.0,0.0,0.0,0.0,0.0,0.0,0.007325942162424326,-0.0049168020486831665,0.07882846891880035,0.0,0.0,0.0,0.0,0.0,0.0,0.0,0.0,0.0
1606988835647228219,2310467,1606985233563427534,imu_link,-0.005223729647696018,-0.005911702755838633,0.222593292593956,-0.9748795032501221,0.0,0.0,0.0,0.0,0.0,0.0,0.0,0.0,0.0,-25.720605850219727,0.7936824560165405,0.4328122138977051,0.0,0.0,0.0,0.0,0.0,0.0,0.0,0.0,0.0,-0.007773388177156448,-0.00013122815289534628,0.06214165687561035,0.0,0.0,0.0,0.0,0.0,0.0,0.0,0.0,0.0
1606988835647243216,2310468,1606985233563564786,imu_link,-0.005223729647696018,-0.005911702755838633,0.222593292593956,-0.9748795032501221,0.0,0.0,0.0,0.0,0.0,0.0,0.0,0.0,0.0,-25.720605850219727,0.7936824560165405,0.4328122138977051,0.0,0.0,0.0,0.0,0.0,0.0,0.0,0.0,0.0,-0.007773388177156448,-0.00013122815289534628,0.06214165687561035,0.0,0.0,0.0,0.0,0.0,0.0,0.0,0.0,0.0
1606988835647261456,2310469,1606985233563650114,imu_link,-0.005222756881266832,-0.005911029875278473,0.2225925624370575,-0.9748796820640564,0.0,0.0,0.0,0.0,0.0,0.0,0.0,0.0,0.0,-25.720518112182617,0.7935822010040283,0.4327213764190674,0.0,0.0,0.0,0.0,0.0,0.0,0.0,0.0,0.0,0.007362866774201393,-0.007357526570558548,0.06897658854722977,0.0,0.0,0.0,0.0,0.0,0.0,0.0,0.0,0.0
1606988835650567215,2310470,1606985233563735186,imu_link,-0.005222756881266832,-0.005911029875278473,0.2225925624370575,-0.9748796820640564,0.0,0.0,0.0,0.0,0.0,0.0,0.0,0.0,0.0,-25.720518112182617,0.7935822010040283,0.4327213764190674,0.0,0.0,0.0,0.0,0.0,0.0,0.0,0.0,0.0,0.007362866774201393,-0.007357526570558548,0.06897658854722977,0.0,0.0,0.0,0.0,0.0,0.0,0.0,0.0,0.0
1606988835650592067,2310471,1606985233576253933,imu_link,-0.0052237920463085175,-0.005910297855734825,0.222594752907753,-0.9748792052268982,0.0,0.0,0.0,0.0,0.0,0.0,0.0,0.0,0.0,-25.72077751159668,0.7935277819633484,0.4328538775444031,0.0,0.0,0.0,0.0,0.0,0.0,0.0,0.0,0.0,0.012887784279882908,0.0010346954222768545,0.0771341621875763,0.0,0.0,0.0,0.0,0.0,0.0,0.0,0.0,0.0
1606988835650601256,2310472,1606985233576370999,imu_link,-0.0052237920463085175,-0.005910297855734825,0.222594752907753,-0.9748792052268982,0.0,0.0,0.0,0.0,0.0,0.0,0.0,0.0,0.0,-25.72077751159668,0.7935277819633484,0.4328538775444031,0.0,0.0,0.0,0.0,0.0,0.0,0.0,0.0,0.0,0.012887784279882908,0.0010346954222768545,0.0771341621875763,0.0,0.0,0.0,0.0,0.0,0.0,0.0,0.0,0.0
1606988835650642008,2310473,1606985233576456918,imu_link,-0.005224183201789856,-0.005908514838665724,0.2225957214832306,-0.9748789668083191,0.0,0.0,0.0,0.0,0.0,0.0,0.0,0.0,0.0,-25.72089195251465,0.7933389544487,0.432942271232605,0.0,0.0,0.0,0.0,0.0,0.0,0.0,0.0,0.0,0.002523294184356928,-0.0026877818163484335,0.07717418670654297,0.0,0.0,0.0,0.0,0.0,0.0,0.0,0.0,0.0
1606988835650774054,2310474,1606985233576543799,imu_link,-0.005224183201789856,-0.005908514838665724,0.2225957214832306,-0.9748789668083191,0.0,0.0,0.0,0.0,0.0,0.0,0.0,0.0,0.0,-25.72089195251465,0.7933389544487,0.432942271232605,0.0,0.0,0.0,0.0,0.0,0.0,0.0,0.0,0.0,0.002523294184356928,-0.0026877818163484335,0.07717418670654297,0.0,0.0,0.0,0.0,0.0,0.0,0.0,0.0,0.0
1606988835735291857,2310475,1606985233576626310,imu_link,-0.0052245259284973145,-0.005908728111535311,0.2225952446460724,-0.9748790860176086,0.0,0.0,0.0,0.0,0.0,0.0,0.0,0.0,0.0,-25.720834732055664,0.793371319770813,0.43297550082206726,0.0,0.0,0.0,0.0,0.0,0.0,0.0,0.0,0.0,0.010408095084130764,-0.009400848299264908,0.0651770681142807,0.0,0.0,0.0,0.0,0.0,0.0,0.0,0.0,0.0
1606988835735311414,2310476,1606985233576719485,imu_link,-0.0052245259284973145,-0.005908728111535311,0.2225952446460724,-0.9748790860176086,0.0,0.0,0.0,0.0,0.0,0.0,0.0,0.0,0.0,-25.720834732055664,0.793371319770813,0.43297550082206726,0.0,0.0,0.0,0.0,0.0,0.0,0.0,0.0,0.0,0.010408095084130764,-0.009400848299264908,0.0651770681142807,0.0,0.0,0.0,0.0,0.0,0.0,0.0,0.0,0.0
1606988835735321025,2310477,1606985233576800443,imu_link,-0.005225752014666796,-0.0059085628017783165,0.22259442508220673,-0.974879264831543,0.0,0.0,0.0,0.0,0.0,0.0,0.0,0.0,0.0,-25.720739364624023,0.7933837175369263,0.4331173598766327,0.0,0.0,0.0,0.0,0.0,0.0,0.0,0.0,0.0,0.009431370534002781,0.0010995750781148672,0.05211355537176132,0.0,0.0,0.0,0.0,0.0,0.0,0.0,0.0,0.0
1606988835735328215,2310478,1606985233576920591,imu_link,-0.005225752014666796,-0.0059085628017783165,0.22259442508220673,-0.974879264831543,0.0,0.0,0.0,0.0,0.0,0.0,0.0,0.0,0.0,-25.720739364624023,0.7933837175369263,0.4331173598766327,0.0,0.0,0.0,0.0,0.0,0.0,0.0,0.0,0.0,0.009431370534002781,0.0010995750781148672,0.05211355537176132,0.0,0.0,0.0,0.0,0.0,0.0,0.0,0.0,0.0
1606988835740824628,2310479,1606985233577008249,imu_link,-0.00522479135543108,-0.00591122405603528,0.2225942313671112,-0.9748793244361877,0.0,0.0,0.0,0.0,0.0,0.0,0.0,0.0,0.0,-25.720712661743164,0.7936565279960632,0.43294233083724976,0.0,0.0,0.0,0.0,0.0,0.0,0.0,0.0,0.0,-0.0034401805605739355,-0.005513072479516268,0.06817971915006638,0.0,0.0,0.0,0.0,0.0,0.0,0.0,0.0,0.0
1606988835740841066,2310480,1606985233577089412,imu_link,-0.00522479135543108,-0.00591122405603528,0.2225942313671112,-0.9748793244361877,0.0,0.0,0.0,0.0,0.0,0.0,0.0,0.0,0.0,-25.720712661743164,0.7936565279960632,0.43294233083724976,0.0,0.0,0.0,0.0,0.0,0.0,0.0,0.0,0.0,-0.0034401805605739355,-0.005513072479516268,0.06817971915006638,0.0,0.0,0.0,0.0,0.0,0.0,0.0,0.0,0.0
1606988835740845538,2310481,1606985233577169898,imu_link,-0.0052225105464458466,-0.005912963766604662,0.22259533405303955,-0.9748790860176086,0.0,0.0,0.0,0.0,0.0,0.0,0.0,0.0,0.0,-25.72084617614746,0.7937932014465332,0.43264225125312805,0.0,0.0,0.0,0.0,0.0,0.0,0.0,0.0,0.0,-0.001643740339204669,-0.018335750326514244,0.05528021603822708,0.0,0.0,0.0,0.0,0.0,0.0,0.0,0.0,0.0
1606988835740850952,2310482,1606985233589187535,imu_link,-0.0052225105464458466,-0.005912963766604662,0.22259533405303955,-0.9748790860176086,0.0,0.0,0.0,0.0,0.0,0.0,0.0,0.0,0.0,-25.72084617614746,0.7937932014465332,0.43264225125312805,0.0,0.0,0.0,0.0,0.0,0.0,0.0,0.0,0.0,-0.001643740339204669,-0.018335750326514244,0.05528021603822708,0.0,0.0,0.0,0.0,0.0,0.0,0.0,0.0,0.0
1606988835749533047,2310483,1606985233589302717,imu_link,-0.005224245600402355,-0.005911158863455057,0.22259151935577393,-0.9748798608779907,0.0,0.0,0.0,0.0,0.0,0.0,0.0,0.0,0.0,-25.72039794921875,0.7936340570449829,0.43288522958755493,0.0,0.0,0.0,0.0,0.0,0.0,0.0,0.0,0.0,0.009998535737395287,0.004382501821964979,0.04241279140114784,0.0,0.0,0.0,0.0,0.0,0.0,0.0,0.0,0.0
1606988835749556022,2310484,1606985233589388044,imu_link,-0.005224245600402355,-0.005911158863455057,0.22259151935577393,-0.9748798608779907,0.0,0.0,0.0,0.0,0.0,0.0,0.0,0.0,0.0,-25.72039794921875,0.7936340570449829,0.43288522958755493,0.0,0.0,0.0,0.0,0.0,0.0,0.0,0.0,0.0,0.009998535737395287,0.004382501821964979,0.04241279140114784,0.0,0.0,0.0,0.0,0.0,0.0,0.0,0.0,0.0
1606988835749573305,2310485,1606985233589461650,imu_link,-0.005224112421274185,-0.005910723004490137,0.22259294986724854,-0.9748795628547668,0.0,0.0,0.0,0.0,0.0,0.0,0.0,0.0,0.0,-25.720565795898438,0.7935826778411865,0.4328802525997162,0.0,0.0,0.0,0.0,0.0,0.0,0.0,0.0,0.0,0.013459139503538609,0.023424509912729263,0.048532720655202866,0.0,0.0,0.0,0.0,0.0,0.0,0.0,0.0,0.0
1606988835749586864,2310486,1606985233589540993,imu_link,-0.005224112421274185,-0.005910723004490137,0.22259294986724854,-0.9748795628547668,0.0,0.0,0.0,0.0,0.0,0.0,0.0,0.0,0.0,-25.720565795898438,0.7935826778411865,0.4328802525997162,0.0,0.0,0.0,0.0,0.0,0.0,0.0,0.0,0.0,0.013459139503538609,0.023424509912729263,0.048532720655202866,0.0,0.0,0.0,0.0,0.0,0.0,0.0,0.0,0.0
1606988835749592853,2310487,1606985233589647404,imu_link,-0.005222204141318798,-0.005910768173635006,0.22258815169334412,-0.9748806953430176,0.0,0.0,0.0,0.0,0.0,0.0,0.0,0.0,0.0,-25.720003128051758,0.793536901473999,0.43266984820365906,0.0,0.0,0.0,0.0,0.0,0.0,0.0,0.0,0.0,0.007674474269151688,-0.0005170293152332306,0.0469156913459301,0.0,0.0,0.0,0.0,0.0,0.0,0.0,0.0,0.0
1606988835752937084,2310488,1606985233589728873,imu_link,-0.005222204141318798,-0.005910768173635006,0.22258815169334412,-0.9748806953430176,0.0,0.0,0.0,0.0,0.0,0.0,0.0,0.0,0.0,-25.720003128051758,0.793536901473999,0.43266984820365906,0.0,0.0,0.0,0.0,0.0,0.0,0.0,0.0,0.0,0.007674474269151688,-0.0005170293152332306,0.0469156913459301,0.0,0.0,0.0,0.0,0.0,0.0,0.0,0.0,0.0
1606988835752956291,2310489,1606985233589854183,imu_link,-0.005223236512392759,-0.005909720901399851,0.22258895635604858,-0.9748805165290833,0.0,0.0,0.0,0.0,0.0,0.0,0.0,0.0,0.0,-25.720094680786133,0.7934465408325195,0.4328112006187439,0.0,0.0,0.0,0.0,0.0,0.0,0.0,0.0,0.0,0.004105347208678722,-0.000887624453753233,0.046676382422447205,0.0,0.0,0.0,0.0,0.0,0.0,0.0,0.0,0.0
1606988835752963468,2310490,1606985233589939370,imu_link,-0.005223236512392759,-0.005909720901399851,0.22258895635604858,-0.9748805165290833,0.0,0.0,0.0,0.0,0.0,0.0,0.0,0.0,0.0,-25.720094680786133,0.7934465408325195,0.4328112006187439,0.0,0.0,0.0,0.0,0.0,0.0,0.0,0.0,0.0,0.004105347208678722,-0.000887624453753233,0.046676382422447205,0.0,0.0,0.0,0.0,0.0,0.0,0.0,0.0,0.0
1606988835752969528,2310491,1606985233590021134,imu_link,-0.005222544074058533,-0.0059113334864377975,0.22258435189723969,-0.9748815298080444,0.0,0.0,0.0,0.0,0.0,0.0,0.0,0.0,0.0,-25.71955680847168,0.7936069965362549,0.43269652128219604,0.0,0.0,0.0,0.0,0.0,0.0,0.0,0.0,0.0,0.0033610807731747627,0.002684891689568758,0.03579065576195717,0.0,0.0,0.0,0.0,0.0,0.0,0.0,0.0,0.0
1606988835811203868,2310492,1606985233603072715,imu_link,-0.005222544074058533,-0.0059113334864377975,0.22258435189723969,-0.9748815298080444,0.0,0.0,0.0,0.0,0.0,0.0,0.0,0.0,0.0,-25.71955680847168,0.7936069965362549,0.43269652128219604,0.0,0.0,0.0,0.0,0.0,0.0,0.0,0.0,0.0,0.0033610807731747627,0.002684891689568758,0.03579065576195717,0.0,0.0,0.0,0.0,0.0,0.0,0.0,0.0,0.0
