%time,field.header.seq,field.header.stamp,field.header.frame_id,field.orientation.x,field.orientation.y,field.orientation.z,field.orientation.w,field.orientation_covariance0,field.orientation_covariance1,field.orientation_covariance2,field.orientation_covariance3,field.orientation_covariance4,field.orientation_covariance5,field.orientation_covariance6,field.orientation_covariance7,field.orientation_covariance8,field.angular_velocity.x,field.angular_velocity.y,field.angular_velocity.z,field.angular_velocity_covariance0,field.angular_velocity_covariance1,field.angular_velocity_covariance2,field.angular_velocity_covariance3,field.angular_velocity_covariance4,field.angular_velocity_covariance5,field.angular_velocity_covariance6,field.angular_velocity_covariance7,field.angular_velocity_covariance8,field.linear_acceleration.x,field.linear_acceleration.y,field.linear_acceleration.z,field.linear_acceleration_covariance0,field.linear_acceleration_covariance1,field.linear_acceleration_covariance2,field.linear_acceleration_covariance3,field.linear_acceleration_covariance4,field.linear_acceleration_covariance5,field.linear_acceleration_covariance6,field.linear_acceleration_covariance7,field.linear_acceleration_covariance8
1606991396776156060,4360416,1606987796040691059,imu_link,0.0034209429286420345,0.004715053830295801,0.44602710008621216,0.8950005173683167,0.0,0.0,0.0,0.0,0.0,0.0,0.0,0.0,0.0,52.9807014465332,0.3087274730205536,0.5918600559234619,0.0,0.0,0.0,0.0,0.0,0.0,0.0,0.0,0.0,0.0007821473991498351,0.021792126819491386,0.03462204709649086,0.0,0.0,0.0,0.0,0.0,0.0,0.0,0.0,0.0
1606991396776208909,4360417,1606987796040833654,imu_link,0.003421474015340209,0.0047134170308709145,0.4460187256336212,0.8950046896934509,0.0,0.0,0.0,0.0,0.0,0.0,0.0,0.0,0.0,52.97962951660156,0.3085379898548126,0.5918280482292175,0.0,0.0,0.0,0.0,0.0,0.0,0.0,0.0,0.0,-0.015597646124660969,0.016252538189291954,0.051785074174404144,0.0,0.0,0.0,0.0,0.0,0.0,0.0,0.0,0.0
1606991396776228574,4360418,1606987796040977351,imu_link,0.003421474015340209,0.0047134170308709145,0.4460187256336212,0.8950046896934509,0.0,0.0,0.0,0.0,0.0,0.0,0.0,0.0,0.0,52.97962951660156,0.3085379898548126,0.5918280482292175,0.0,0.0,0.0,0.0,0.0,0.0,0.0,0.0,0.0,-0.015597646124660969,0.016252538189291954,0.051785074174404144,0.0,0.0,0.0,0.0,0.0,0.0,0.0,0.0,0.0
1606991396776266539,4360419,1606987796041066913,imu_link,0.003422429086640477,0.004711958579719067,0.44601741433143616,0.8950053453445435,0.0,0.0,0.0,0.0,0.0,0.0,0.0,0.0,0.0,52.97945785522461,0.3083404302597046,0.5918509364128113,0.0,0.0,0.0,0.0,0.0,0.0,0.0,0.0,0.0,-0.023037688806653023,-0.0010340646840631962,0.06161649897694588,0.0,0.0,0.0,0.0,0.0,0.0,0.0,0.0,0.0
1606991396792487415,4360420,1606987796041142478,imu_link,0.003422429086640477,0.004711958579719067,0.44601741433143616,0.8950053453445435,0.0,0.0,0.0,0.0,0.0,0.0,0.0,0.0,0.0,52.97945785522461,0.3083404302597046,0.5918509364128113,0.0,0.0,0.0,0.0,0.0,0.0,0.0,0.0,0.0,-0.023037688806653023,-0.0010340646840631962,0.06161649897694588,0.0,0.0,0.0,0.0,0.0,0.0,0.0,0.0,0.0
1606991396792621359,4360421,1606987796041244214,imu_link,0.0034213108010590076,0.0047116875648498535,0.44602224230766296,0.8950029611587524,0.0,0.0,0.0,0.0,0.0,0.0,0.0,0.0,0.0,52.980079650878906,0.308366596698761,0.5917240977287292,0.0,0.0,0.0,0.0,0.0,0.0,0.0,0.0,0.0,-0.013208536431193352,-0.004032342229038477,0.06912998110055923,0.0,0.0,0.0,0.0,0.0,0.0,0.0,0.0,0.0
1606991396792660399,4360422,1606987796041325793,imu_link,0.0034213108010590076,0.0047116875648498535,0.44602224230766296,0.8950029611587524,0.0,0.0,0.0,0.0,0.0,0.0,0.0,0.0,0.0,52.980079650878906,0.308366596698761,0.5917240977287292,0.0,0.0,0.0,0.0,0.0,0.0,0.0,0.0,0.0,-0.013208536431193352,-0.004032342229038477,0.06912998110055923,0.0,0.0,0.0,0.0,0.0,0.0,0.0,0.0,0.0
1606991396792700291,4360423,1606987796041421434,imu_link,0.00342169520445168,0.0047108386643230915,0.4460224211215973,0.8950028419494629,0.0,0.0,0.0,0.0,0.0,0.0,0.0,0.0,0.0,52.980098724365234,0.3082598149776459,0.5917202234268188,0.0,0.0,0.0,0.0,0.0,0.0,0.0,0.0,0.0,0.0030177212320268154,-0.0035578501410782337,0.10005060583353043,0.0,0.0,0.0,0.0,0.0,0.0,0.0,0.0,0.0
1606991396860731517,4360424,1606987796041509062,imu_link,0.00342169520445168,0.0047108386643230915,0.4460224211215973,0.8950028419494629,0.0,0.0,0.0,0.0,0.0,0.0,0.0,0.0,0.0,52.980098724365234,0.3082598149776459,0.5917202234268188,0.0,0.0,0.0,0.0,0.0,0.0,0.0,0.0,0.0,0.0030177212320268154,-0.0035578501410782337,0.10005060583353043,0.0,0.0,0.0,0.0,0.0,0.0,0.0,0.0,0.0
1606991396860760361,4360425,1606987796041593036,imu_link,0.0034218619111925364,0.00471114506945014,0.44602659344673157,0.8950008153915405,0.0,0.0,0.0,0.0,0.0,0.0,0.0,0.0,0.0,52.98063278198242,0.30827996134757996,0.5917543768882751,0.0,0.0,0.0,0.0,0.0,0.0,0.0,0.0,0.0,0.005023900885134935,-0.011729316785931587,0.11557158827781677,0.0,0.0,0.0,0.0,0.0,0.0,0.0,0.0,0.0
1606991396860769058,4360426,1606987796041671453,imu_link,0.0034218619111925364,0.00471114506945014,0.44602659344673157,0.8950008153915405,0.0,0.0,0.0,0.0,0.0,0.0,0.0,0.0,0.0,52.98063278198242,0.30827996134757996,0.5917543768882751,0.0,0.0,0.0,0.0,0.0,0.0,0.0,0.0,0.0,0.005023900885134935,-0.011729316785931587,0.11557158827781677,0.0,0.0,0.0,0.0,0.0,0.0,0.0,0.0,0.0
1606991396860787137,4360427,1606987796053478598,imu_link,0.003419766202569008,0.00471121771261096,0.44602563977241516,0.8950012922286987,0.0,0.0,0.0,0.0,0.0,0.0,0.0,0.0,0.0,52.98051071166992,0.3083951473236084,0.5915428400039673,0.0,0.0,0.0,0.0,0.0,0.0,0.0,0.0,0.0,0.008553468622267246,-0.011175621300935745,0.09037274122238159,0.0,0.0,0.0,0.0,0.0,0.0,0.0,0.0,0.0
1606991396860821172,4360428,1606987796053617439,imu_link,0.003419766202569008,0.00471121771261096,0.44602563977241516,0.8950012922286987,0.0,0.0,0.0,0.0,0.0,0.0,0.0,0.0,0.0,52.98051071166992,0.3083951473236084,0.5915428400039673,0.0,0.0,0.0,0.0,0.0,0.0,0.0,0.0,0.0,0.008553468622267246,-0.011175621300935745,0.09037274122238159,0.0,0.0,0.0,0.0,0.0,0.0,0.0,0.0,0.0
1606991396878601987,4360429,1606987796053762866,imu_link,0.00341972173191607,0.004712258465588093,0.44602006673812866,0.8950040340423584,0.0,0.0,0.0,0.0,0.0,0.0,0.0,0.0,0.0,52.97979736328125,0.30850785970687866,0.5915895104408264,0.0,0.0,0.0,0.0,0.0,0.0,0.0,0.0,0.0,0.0020862920209765434,-0.014531946741044521,0.05865791440010071,0.0,0.0,0.0,0.0,0.0,0.0,0.0,0.0,0.0
1606991396878631706,4360430,1606987796053855290,imu_link,0.00341972173191607,0.004712258465588093,0.44602006673812866,0.8950040340423584,0.0,0.0,0.0,0.0,0.0,0.0,0.0,0.0,0.0,52.97979736328125,0.30850785970687866,0.5915895104408264,0.0,0.0,0.0,0.0,0.0,0.0,0.0,0.0,0.0,0.0020862920209765434,-0.014531946741044521,0.05865791440010071,0.0,0.0,0.0,0.0,0.0,0.0,0.0,0.0,0.0
1606991396878659566,4360431,1606987796053937104,imu_link,0.0034195922780781984,0.004711235873401165,0.44602182507514954,0.8950031399726868,0.0,0.0,0.0,0.0,0.0,0.0,0.0,0.0,0.0,52.98002243041992,0.3084084093570709,0.591524600982666,0.0,0.0,0.0,0.0,0.0,0.0,0.0,0.0,0.0,-0.00796812679618597,-0.006120218895375729,0.033644359558820724,0.0,0.0,0.0,0.0,0.0,0.0,0.0,0.0,0.0
1606991396878675493,4360432,1606987796054044307,imu_link,0.0034195922780781984,0.004711235873401165,0.44602182507514954,0.8950031399726868,0.0,0.0,0.0,0.0,0.0,0.0,0.0,0.0,0.0,52.98002243041992,0.3084084093570709,0.591524600982666,0.0,0.0,0.0,0.0,0.0,0.0,0.0,0.0,0.0,-0.00796812679618597,-0.006120218895375729,0.033644359558820724,0.0,0.0,0.0,0.0,0.0,0.0,0.0,0.0,0.0
1606991396921161734,4360433,1606987796054135017,imu_link,0.003420961322262883,0.004711757879704237,0.44601723551750183,0.895005464553833,0.0,0.0,0.0,0.0,0.0,0.0,0.0,0.0,0.0,52.979434967041016,0.30839502811431885,0.5916901230812073,0.0,0.0,0.0,0.0,0.0,0.0,0.0,0.0,0.0,0.01054795179516077,0.00011024408740922809,0.06713592261075974,0.0,0.0,0.0,0.0,0.0,0.0,0.0,0.0,0.0
1606991396921190764,4360434,1606987796054216621,imu_link,0.003420961322262883,0.004711757879704237,0.44601723551750183,0.895005464553833,0.0,0.0,0.0,0.0,0.0,0.0,0.0,0.0,0.0,52.979434967041016,0.30839502811431885,0.5916901230812073,0.0,0.0,0.0,0.0,0.0,0.0,0.0,0.0,0.0,0.01054795179516077,0.00011024408740922809,0.06713592261075974,0.0,0.0,0.0,0.0,0.0,0.0,0.0,0.0,0.0
1606991396921224170,4360435,1606987796054301958,imu_link,0.0034220558591187,0.004710591863840818,0.44601675868034363,0.8950057029724121,0.0,0.0,0.0,0.0,0.0,0.0,0.0,0.0,0.0,52.9793701171875,0.3082197904586792,0.5917426347732544,0.0,0.0,0.0,0.0,0.0,0.0,0.0,0.0,0.0,0.012561848387122154,-0.011488052085042,0.08207236230373383,0.0,0.0,0.0,0.0,0.0,0.0,0.0,0.0,0.0
1606991396921240546,4360436,1606987796054378896,imu_link,0.0034220558591187,0.004710591863840818,0.44601675868034363,0.8950057029724121,0.0,0.0,0.0,0.0,0.0,0.0,0.0,0.0,0.0,52.9793701171875,0.3082197904586792,0.5917426347732544,0.0,0.0,0.0,0.0,0.0,0.0,0.0,0.0,0.0,0.012561848387122154,-0.011488052085042,0.08207236230373383,0.0,0.0,0.0,0.0,0.0,0.0,0.0,0.0,0.0
1606991396921247054,4360437,1606987796066997219,imu_link,0.0034242908004671335,0.004712618887424469,0.44601938128471375,0.8950043320655823,0.0,0.0,0.0,0.0,0.0,0.0,0.0,0.0,0.0,52.979713439941406,0.30831167101860046,0.5920763611793518,0.0,0.0,0.0,0.0,0.0,0.0,0.0,0.0,0.0,0.006517759989947081,0.004005805589258671,0.06384555995464325,0.0,0.0,0.0,0.0,0.0,0.0,0.0,0.0,0.0
1606991396958728815,4360438,1606987796067138020,imu_link,0.0034242908004671335,0.004712618887424469,0.44601938128471375,0.8950043320655823,0.0,0.0,0.0,0.0,0.0,0.0,0.0,0.0,0.0,52.979713439941406,0.30831167101860046,0.5920763611793518,0.0,0.0,0.0,0.0,0.0,0.0,0.0,0.0,0.0,0.006517759989947081,0.004005805589258671,0.06384555995464325,0.0,0.0,0.0,0.0,0.0,0.0,0.0,0.0,0.0
1606991396958755382,4360439,1606987796067294432,imu_link,0.003425418632104993,0.004713654983788729,0.4460205137729645,0.8950037956237793,0.0,0.0,0.0,0.0,0.0,0.0,0.0,0.0,0.0,52.9798583984375,0.3083595633506775,0.5922453999519348,0.0,0.0,0.0,0.0,0.0,0.0,0.0,0.0,0.0,0.012940469197928905,0.013490205630660057,0.06051456928253174,0.0,0.0,0.0,0.0,0.0,0.0,0.0,0.0,0.0
1606991396958791835,4360440,1606987796067387663,imu_link,0.003425418632104993,0.004713654983788729,0.4460205137729645,0.8950037956237793,0.0,0.0,0.0,0.0,0.0,0.0,0.0,0.0,0.0,52.9798583984375,0.3083595633506775,0.5922453999519348,0.0,0.0,0.0,0.0,0.0,0.0,0.0,0.0,0.0,0.012940469197928905,0.013490205630660057,0.06051456928253174,0.0,0.0,0.0,0.0,0.0,0.0,0.0,0.0,0.0
1606991396958800650,4360441,1606987796067476719,imu_link,0.0034267602022737265,0.004712925758212805,0.4460228681564331,0.8950026631355286,0.0,0.0,0.0,0.0,0.0,0.0,0.0,0.0,0.0,52.980159759521484,0.3082146644592285,0.5923464894294739,0.0,0.0,0.0,0.0,0.0,0.0,0.0,0.0,0.0,0.0034269550815224648,-0.005091371946036816,0.05244661122560501,0.0,0.0,0.0,0.0,0.0,0.0,0.0,0.0,0.0
1606991397021207491,4360442,1606987796067558638,imu_link,0.0034267602022737265,0.004712925758212805,0.4460228681564331,0.8950026631355286,0.0,0.0,0.0,0.0,0.0,0.0,0.0,0.0,0.0,52.980159759521484,0.3082146644592285,0.5923464894294739,0.0,0.0,0.0,0.0,0.0,0.0,0.0,0.0,0.0,0.0034269550815224648,-0.005091371946036816,0.05244661122560501,0.0,0.0,0.0,0.0,0.0,0.0,0.0,0.0,0.0
1606991397021237827,4360443,1606987796067669340,imu_link,0.0034289101604372263,0.004712088964879513,0.44602108001708984,0.8950035572052002,0.0,0.0,0.0,0.0,0.0,0.0,0.0,0.0,0.0,52.97992706298828,0.3080201745033264,0.5925235748291016,0.0,0.0,0.0,0.0,0.0,0.0,0.0,0.0,0.0,0.0047936756163835526,-0.018651951104402542,0.07627364993095398,0.0,0.0,0.0,0.0,0.0,0.0,0.0,0.0,0.0
1606991397021317435,4360444,1606987796067752216,imu_link,0.0034289101604372263,0.004712088964879513,0.44602108001708984,0.8950035572052002,0.0,0.0,0.0,0.0,0.0,0.0,0.0,0.0,0.0,52.97992706298828,0.3080201745033264,0.5925235748291016,0.0,0.0,0.0,0.0,0.0,0.0,0.0,0.0,0.0,0.0047936756163835526,-0.018651951104402542,0.07627364993095398,0.0,0.0,0.0,0.0,0.0,0.0,0.0,0.0,0.0
1606991397021342347,4360445,1606987796067880433,imu_link,0.003429053584113717,0.004714624490588903,0.4460265338420868,0.8950008153915405,0.0,0.0,0.0,0.0,0.0,0.0,0.0,0.0,0.0,52.980628967285156,0.3082692325115204,0.5926697254180908,0.0,0.0,0.0,0.0,0.0,0.0,0.0,0.0,0.0,0.006457214709371328,-0.020667577162384987,0.07567500323057175,0.0,0.0,0.0,0.0,0.0,0.0,0.0,0.0,0.0
1606991397021355520,4360446,1606987796067965495,imu_link,0.003429053584113717,0.004714624490588903,0.4460265338420868,0.8950008153915405,0.0,0.0,0.0,0.0,0.0,0.0,0.0,0.0,0.0,52.980628967285156,0.3082692325115204,0.5926697254180908,0.0,0.0,0.0,0.0,0.0,0.0,0.0,0.0,0.0,0.006457214709371328,-0.020667577162384987,0.07567500323057175,0.0,0.0,0.0,0.0,0.0,0.0,0.0,0.0,0.0
1606991397032138805,4360447,1606987796068042333,imu_link,0.0034290067851543427,0.004713582340627909,0.44602715969085693,0.8950005173683167,0.0,0.0,0.0,0.0,0.0,0.0,0.0,0.0,0.0,52.98070526123047,0.3081643581390381,0.5926119089126587,0.0,0.0,0.0,0.0,0.0,0.0,0.0,0.0,0.0,0.012602177448570728,-0.006971997208893299,0.041415825486183167,0.0,0.0,0.0,0.0,0.0,0.0,0.0,0.0,0.0
1606991397032163822,4360448,1606987796080774890,imu_link,0.0034290067851543427,0.004713582340627909,0.44602715969085693,0.8950005173683167,0.0,0.0,0.0,0.0,0.0,0.0,0.0,0.0,0.0,52.98070526123047,0.3081643581390381,0.5926119089126587,0.0,0.0,0.0,0.0,0.0,0.0,0.0,0.0,0.0,0.012602177448570728,-0.006971997208893299,0.041415825486183167,0.0,0.0,0.0,0.0,0.0,0.0,0.0,0.0,0.0
1606991397032184979,4360449,1606987796080912859,imu_link,0.0034297064412385225,0.004713479429483414,0.44603097438812256,0.8949984908103943,0.0,0.0,0.0,0.0,0.0,0.0,0.0,0.0,0.0,52.981197357177734,0.3081154525279999,0.5926797986030579,0.0,0.0,0.0,0.0,0.0,0.0,0.0,0.0,0.0,0.01842237450182438,0.009605949744582176,0.027915647253394127,0.0,0.0,0.0,0.0,0.0,0.0,0.0,0.0,0.0
1606991397032197227,4360450,1606987796081104137,imu_link,0.0034297064412385225,0.004713479429483414,0.44603097438812256,0.8949984908103943,0.0,0.0,0.0,0.0,0.0,0.0,0.0,0.0,0.0,52.981197357177734,0.3081154525279999,0.5926797986030579,0.0,0.0,0.0,0.0,0.0,0.0,0.0,0.0,0.0,0.01842237450182438,0.009605949744582176,0.027915647253394127,0.0,0.0,0.0,0.0,0.0,0.0,0.0,0.0,0.0
1606991397041165766,4360451,1606987796081198064,imu_link,0.003431352088227868,0.004714624024927616,0.4460323750972748,0.8949978947639465,0.0,0.0,0.0,0.0,0.0,0.0,0.0,0.0,0.0,52.98137664794922,0.3081478774547577,0.5929074883460999,0.0,0.0,0.0,0.0,0.0,0.0,0.0,0.0,0.0,0.0053903479129076,0.01854849047958851,0.03326179087162018,0.0,0.0,0.0,0.0,0.0,0.0,0.0,0.0,0.0
1606991397041208141,4360452,1606987796081283331,imu_link,0.003431352088227868,0.004714624024927616,0.4460323750972748,0.8949978947639465,0.0,0.0,0.0,0.0,0.0,0.0,0.0,0.0,0.0,52.98137664794922,0.3081478774547577,0.5929074883460999,0.0,0.0,0.0,0.0,0.0,0.0,0.0,0.0,0.0,0.0053903479129076,0.01854849047958851,0.03326179087162018,0.0,0.0,0.0,0.0,0.0,0.0,0.0,0.0,0.0
1606991397041230894,4360453,1606987796081364990,imu_link,0.0034306023735553026,0.004715074319392443,0.4460335969924927,0.8949971795082092,0.0,0.0,0.0,0.0,0.0,0.0,0.0,0.0,0.0,52.98154067993164,0.3082314729690552,0.5928540825843811,0.0,0.0,0.0,0.0,0.0,0.0,0.0,0.0,0.0,0.02402336150407791,0.0297376848757267,0.04341694340109825,0.0,0.0,0.0,0.0,0.0,0.0,0.0,0.0,0.0
1606991397041246362,4360454,1606987796081467668,imu_link,0.0034306023735553026,0.004715074319392443,0.4460335969924927,0.8949971795082092,0.0,0.0,0.0,0.0,0.0,0.0,0.0,0.0,0.0,52.98154067993164,0.3082314729690552,0.5928540825843811,0.0,0.0,0.0,0.0,0.0,0.0,0.0,0.0,0.0,0.02402336150407791,0.0297376848757267,0.04341694340109825,0.0,0.0,0.0,0.0,0.0,0.0,0.0,0.0,0.0
1606991397041278188,4360455,1606987796081553291,imu_link,0.0034310445189476013,0.004715109243988991,0.4460355043411255,0.8949963450431824,0.0,0.0,0.0,0.0,0.0,0.0,0.0,0.0,0.0,52.981773376464844,0.3082112967967987,0.5929018259048462,0.0,0.0,0.0,0.0,0.0,0.0,0.0,0.0,0.0,0.02687758393585682,0.031285084784030914,0.06929980218410492,0.0,0.0,0.0,0.0,0.0,0.0,0.0,0.0,0.0
1606991397046691632,4360456,1606987796081635075,imu_link,0.0034310445189476013,0.004715109243988991,0.4460355043411255,0.8949963450431824,0.0,0.0,0.0,0.0,0.0,0.0,0.0,0.0,0.0,52.981773376464844,0.3082112967967987,0.5929018259048462,0.0,0.0,0.0,0.0,0.0,0.0,0.0,0.0,0.0,0.02687758393585682,0.031285084784030914,0.06929980218410492,0.0,0.0,0.0,0.0,0.0,0.0,0.0,0.0,0.0
1606991397046725051,4360457,1606987796081716218,imu_link,0.00342790549620986,0.0047143748961389065,0.4460330605506897,0.8949975967407227,0.0,0.0,0.0,0.0,0.0,0.0,0.0,0.0,0.0,52.98146438598633,0.3082980215549469,0.5925415754318237,0.0,0.0,0.0,0.0,0.0,0.0,0.0,0.0,0.0,0.016886858269572258,0.01969236694276333,0.07601181417703629,0.0,0.0,0.0,0.0,0.0,0.0,0.0,0.0,0.0
1606991397046738001,4360458,1606987796081797186,imu_link,0.00342790549620986,0.0047143748961389065,0.4460330605506897,0.8949975967407227,0.0,0.0,0.0,0.0,0.0,0.0,0.0,0.0,0.0,52.98146438598633,0.3082980215549469,0.5925415754318237,0.0,0.0,0.0,0.0,0.0,0.0,0.0,0.0,0.0,0.016886858269572258,0.01969236694276333,0.07601181417703629,0.0,0.0,0.0,0.0,0.0,0.0,0.0,0.0,0.0
1606991397046762140,4360459,1606987796094125131,imu_link,0.0034285299479961395,0.0047151208855211735,0.44603288173675537,0.8949975371360779,0.0,0.0,0.0,0.0,0.0,0.0,0.0,0.0,0.0,52.9814453125,0.3083426356315613,0.5926437377929688,0.0,0.0,0.0,0.0,0.0,0.0,0.0,0.0,0.0,0.025730418041348457,0.02356993407011032,0.07883375138044357,0.0,0.0,0.0,0.0,0.0,0.0,0.0,0.0,0.0
1606991397150654107,4360460,1606987796094244572,imu_link,0.0034285299479961395,0.0047151208855211735,0.44603288173675537,0.8949975371360779,0.0,0.0,0.0,0.0,0.0,0.0,0.0,0.0,0.0,52.9814453125,0.3083426356315613,0.5926437377929688,0.0,0.0,0.0,0.0,0.0,0.0,0.0,0.0,0.0,0.025730418041348457,0.02356993407011032,0.07883375138044357,0.0,0.0,0.0,0.0,0.0,0.0,0.0,0.0,0.0
1606991397150698529,4360461,1606987796094391107,imu_link,0.003429290372878313,0.004717101342976093,0.4460331201553345,0.8949975371360779,0.0,0.0,0.0,0.0,0.0,0.0,0.0,0.0,0.0,52.981475830078125,0.3085068166255951,0.5928229093551636,0.0,0.0,0.0,0.0,0.0,0.0,0.0,0.0,0.0,0.0010857497109100223,0.016136005520820618,0.07972122728824615,0.0,0.0,0.0,0.0,0.0,0.0,0.0,0.0,0.0
1606991397150726467,4360462,1606987796094458812,imu_link,0.003429290372878313,0.004717101342976093,0.4460331201553345,0.8949975371360779,0.0,0.0,0.0,0.0,0.0,0.0,0.0,0.0,0.0,52.981475830078125,0.3085068166255951,0.5928229093551636,0.0,0.0,0.0,0.0,0.0,0.0,0.0,0.0,0.0,0.0010857497109100223,0.016136005520820618,0.07972122728824615,0.0,0.0,0.0,0.0,0.0,0.0,0.0,0.0,0.0
1606991397150750466,4360463,1606987796094527663,imu_link,0.003428815398365259,0.00471801171079278,0.4460325539112091,0.8949978351593018,0.0,0.0,0.0,0.0,0.0,0.0,0.0,0.0,0.0,52.98140335083008,0.30862486362457275,0.5928205847740173,0.0,0.0,0.0,0.0,0.0,0.0,0.0,0.0,0.0,0.0017825638642534614,-0.0027954797260463238,0.06852082908153534,0.0,0.0,0.0,0.0,0.0,0.0,0.0,0.0,0.0
1606991397150763413,4360464,1606987796094613955,imu_link,0.003428815398365259,0.00471801171079278,0.4460325539112091,0.8949978351593018,0.0,0.0,0.0,0.0,0.0,0.0,0.0,0.0,0.0,52.98140335083008,0.30862486362457275,0.5928205847740173,0.0,0.0,0.0,0.0,0.0,0.0,0.0,0.0,0.0,0.0017825638642534614,-0.0027954797260463238,0.06852082908153534,0.0,0.0,0.0,0.0,0.0,0.0,0.0,0.0,0.0
1606991397165981758,4360465,1606987796094678568,imu_link,0.003431240562349558,0.004716281313449144,0.4460333585739136,0.8949972987174988,0.0,0.0,0.0,0.0,0.0,0.0,0.0,0.0,0.0,52.981510162353516,0.30832281708717346,0.592981219291687,0.0,0.0,0.0,0.0,0.0,0.0,0.0,0.0,0.0,0.017951948568224907,0.0028805574402213097,0.05580331012606621,0.0,0.0,0.0,0.0,0.0,0.0,0.0,0.0,0.0
1606991397166016367,4360466,1606987796094746337,imu_link,0.003431240562349558,0.004716281313449144,0.4460333585739136,0.8949972987174988,0.0,0.0,0.0,0.0,0.0,0.0,0.0,0.0,0.0,52.981510162353516,0.30832281708717346,0.592981219291687,0.0,0.0,0.0,0.0,0.0,0.0,0.0,0.0,0.0,0.017951948568224907,0.0028805574402213097,0.05580331012606621,0.0,0.0,0.0,0.0,0.0,0.0,0.0,0.0,0.0
1606991397166028056,4360467,1606987796094811464,imu_link,0.003432458033785224,0.004716693889349699,0.4460342526435852,0.8949968218803406,0.0,0.0,0.0,0.0,0.0,0.0,0.0,0.0,0.0,52.981624603271484,0.30830228328704834,0.593127429485321,0.0,0.0,0.0,0.0,0.0,0.0,0.0,0.0,0.0,0.006911963224411011,0.01568586938083172,0.04054701328277588,0.0,0.0,0.0,0.0,0.0,0.0,0.0,0.0,0.0
1606991397166040230,4360468,1606987796094872741,imu_link,0.003432458033785224,0.004716693889349699,0.4460342526435852,0.8949968218803406,0.0,0.0,0.0,0.0,0.0,0.0,0.0,0.0,0.0,52.981624603271484,0.30830228328704834,0.593127429485321,0.0,0.0,0.0,0.0,0.0,0.0,0.0,0.0,0.0,0.006911963224411011,0.01568586938083172,0.04054701328277588,0.0,0.0,0.0,0.0,0.0,0.0,0.0,0.0,0.0
1606991397184876621,4360469,1606987796094935816,imu_link,0.0034300447441637516,0.004716851748526096,0.4460394084453583,0.8949943780899048,0.0,0.0,0.0,0.0,0.0,0.0,0.0,0.0,0.0,52.98228073120117,0.3084384799003601,0.592889666557312,0.0,0.0,0.0,0.0,0.0,0.0,0.0,0.0,0.0,0.009450799785554409,0.0020986986346542835,0.04782580956816673,0.0,0.0,0.0,0.0,0.0,0.0,0.0,0.0,0.0
1606991397184929148,4360470,1606987796107094247,imu_link,0.0034300447441637516,0.004716851748526096,0.4460394084453583,0.8949943780899048,0.0,0.0,0.0,0.0,0.0,0.0,0.0,0.0,0.0,52.98228073120117,0.3084384799003601,0.592889666557312,0.0,0.0,0.0,0.0,0.0,0.0,0.0,0.0,0.0,0.009450799785554409,0.0020986986346542835,0.04782580956816673,0.0,0.0,0.0,0.0,0.0,0.0,0.0,0.0,0.0
1606991397184990777,4360471,1606987796107214637,imu_link,0.003431848017498851,0.004716182593256235,0.4460386335849762,0.8949947953224182,0.0,0.0,0.0,0.0,0.0,0.0,0.0,0.0,0.0,52.982177734375,0.30827823281288147,0.5930402278900146,0.0,0.0,0.0,0.0,0.0,0.0,0.0,0.0,0.0,0.006039959378540516,-0.012161689810454845,0.03532656654715538,0.0,0.0,0.0,0.0,0.0,0.0,0.0,0.0,0.0
1606991397185015631,4360472,1606987796107371391,imu_link,0.003431848017498851,0.004716182593256235,0.4460386335849762,0.8949947953224182,0.0,0.0,0.0,0.0,0.0,0.0,0.0,0.0,0.0,52.982177734375,0.30827823281288147,0.5930402278900146,0.0,0.0,0.0,0.0,0.0,0.0,0.0,0.0,0.0,0.006039959378540516,-0.012161689810454845,0.03532656654715538,0.0,0.0,0.0,0.0,0.0,0.0,0.0,0.0,0.0
1606991397185035517,4360473,1606987796107452147,imu_link,0.0034333989024162292,0.004713279660791159,0.4460446834564209,0.8949917554855347,0.0,0.0,0.0,0.0,0.0,0.0,0.0,0.0,0.0,52.98295211791992,0.3078972101211548,0.5930529832839966,0.0,0.0,0.0,0.0,0.0,0.0,0.0,0.0,0.0,-0.006982043385505676,-0.0006510404637083411,0.014459377154707909,0.0,0.0,0.0,0.0,0.0,0.0,0.0,0.0,0.0
1606991397190649572,4360474,1606987796107576907,imu_link,0.0034333989024162292,0.004713279660791159,0.4460446834564209,0.8949917554855347,0.0,0.0,0.0,0.0,0.0,0.0,0.0,0.0,0.0,52.98295211791992,0.3078972101211548,0.5930529832839966,0.0,0.0,0.0,0.0,0.0,0.0,0.0,0.0,0.0,-0.006982043385505676,-0.0006510404637083411,0.014459377154707909,0.0,0.0,0.0,0.0,0.0,0.0,0.0,0.0,0.0
1606991397190689121,4360475,1606987796107678173,imu_link,0.003433593548834324,0.004714259412139654,0.446043461561203,0.8949923515319824,0.0,0.0,0.0,0.0,0.0,0.0,0.0,0.0,0.0,52.982791900634766,0.3079885244369507,0.5931226015090942,0.0,0.0,0.0,0.0,0.0,0.0,0.0,0.0,0.0,0.0006645060493610799,0.004779695998877287,0.014119980856776237,0.0,0.0,0.0,0.0,0.0,0.0,0.0,0.0,0.0
1606991397190707469,4360476,1606987796107752940,imu_link,0.003433593548834324,0.004714259412139654,0.446043461561203,0.8949923515319824,0.0,0.0,0.0,0.0,0.0,0.0,0.0,0.0,0.0,52.982791900634766,0.3079885244369507,0.5931226015090942,0.0,0.0,0.0,0.0,0.0,0.0,0.0,0.0,0.0,0.0006645060493610799,0.004779695998877287,0.014119980856776237,0.0,0.0,0.0,0.0,0.0,0.0,0.0,0.0,0.0
1606991397190751179,4360477,1606987796107826453,imu_link,0.003434370271861553,0.004715366289019585,0.44603732228279114,0.894995391368866,0.0,0.0,0.0,0.0,0.0,0.0,0.0,0.0,0.0,52.98200988769531,0.30806639790534973,0.5932567715644836,0.0,0.0,0.0,0.0,0.0,0.0,0.0,0.0,0.0,0.00660186680033803,0.003356992034241557,0.01179467886686325,0.0,0.0,0.0,0.0,0.0,0.0,0.0,0.0,0.0
1606991397253042271,4360478,1606987796107898664,imu_link,0.003434370271861553,0.004715366289019585,0.44603732228279114,0.894995391368866,0.0,0.0,0.0,0.0,0.0,0.0,0.0,0.0,0.0,52.98200988769531,0.30806639790534973,0.5932567715644836,0.0,0.0,0.0,0.0,0.0,0.0,0.0,0.0,0.0,0.00660186680033803,0.003356992034241557,0.01179467886686325,0.0,0.0,0.0,0.0,0.0,0.0,0.0,0.0,0.0
1606991397253069514,4360479,1606987796107970703,imu_link,0.003432558150961995,0.004715355578809977,0.4460373520851135,0.894995391368866,0.0,0.0,0.0,0.0,0.0,0.0,0.0,0.0,0.0,52.98201370239258,0.30815795063972473,0.5930703282356262,0.0,0.0,0.0,0.0,0.0,0.0,0.0,0.0,0.0,0.008033796213567257,0.01872527226805687,0.04885345697402954,0.0,0.0,0.0,0.0,0.0,0.0,0.0,0.0,0.0
1606991397253080767,4360480,1606987796120888067,imu_link,0.003432558150961995,0.004715355578809977,0.4460373520851135,0.894995391368866,0.0,0.0,0.0,0.0,0.0,0.0,0.0,0.0,0.0,52.98201370239258,0.30815795063972473,0.5930703282356262,0.0,0.0,0.0,0.0,0.0,0.0,0.0,0.0,0.0,0.008033796213567257,0.01872527226805687,0.04885345697402954,0.0,0.0,0.0,0.0,0.0,0.0,0.0,0.0,0.0
1606991397253092770,4360481,1606987796121013659,imu_link,0.00343053275719285,0.004716032184660435,0.4460331201553345,0.8949974775314331,0.0,0.0,0.0,0.0,0.0,0.0,0.0,0.0,0.0,52.981475830078125,0.3083336055278778,0.5928956866264343,0.0,0.0,0.0,0.0,0.0,0.0,0.0,0.0,0.0,-0.010514711029827595,0.007580287288874388,0.0698799267411232,0.0,0.0,0.0,0.0,0.0,0.0,0.0,0.0,0.0
1606991397253103894,4360482,1606987796121152350,imu_link,0.00343053275719285,0.004716032184660435,0.4460331201553345,0.8949974775314331,0.0,0.0,0.0,0.0,0.0,0.0,0.0,0.0,0.0,52.981475830078125,0.3083336055278778,0.5928956866264343,0.0,0.0,0.0,0.0,0.0,0.0,0.0,0.0,0.0,-0.010514711029827595,0.007580287288874388,0.0698799267411232,0.0,0.0,0.0,0.0,0.0,0.0,0.0,0.0,0.0
1606991397265557619,4360483,1606987796121238571,imu_link,0.0034305606968700886,0.0047159381210803986,0.4460352063179016,0.8949964642524719,0.0,0.0,0.0,0.0,0.0,0.0,0.0,0.0,0.0,52.98173904418945,0.30832117795944214,0.5928945541381836,0.0,0.0,0.0,0.0,0.0,0.0,0.0,0.0,0.0,-0.021022764965891838,-0.015454846434295177,0.06380808353424072,0.0,0.0,0.0,0.0,0.0,0.0,0.0,0.0,0.0
1606991397265575498,4360484,1606987796121307665,imu_link,0.0034305606968700886,0.0047159381210803986,0.4460352063179016,0.8949964642524719,0.0,0.0,0.0,0.0,0.0,0.0,0.0,0.0,0.0,52.98173904418945,0.30832117795944214,0.5928945541381836,0.0,0.0,0.0,0.0,0.0,0.0,0.0,0.0,0.0,-0.021022764965891838,-0.015454846434295177,0.06380808353424072,0.0,0.0,0.0,0.0,0.0,0.0,0.0,0.0,0.0
1606991397265583493,4360485,1606987796121381453,imu_link,0.003430988872423768,0.004712837282568216,0.4460388422012329,0.8949946761131287,0.0,0.0,0.0,0.0,0.0,0.0,0.0,0.0,0.0,52.982200622558594,0.30797886848449707,0.5927811861038208,0.0,0.0,0.0,0.0,0.0,0.0,0.0,0.0,0.0,-0.002896074205636978,-0.004779797978699207,0.06407461315393448,0.0,0.0,0.0,0.0,0.0,0.0,0.0,0.0,0.0
1606991397265588825,4360486,1606987796121465212,imu_link,0.003430988872423768,0.004712837282568216,0.4460388422012329,0.8949946761131287,0.0,0.0,0.0,0.0,0.0,0.0,0.0,0.0,0.0,52.982200622558594,0.30797886848449707,0.5927811861038208,0.0,0.0,0.0,0.0,0.0,0.0,0.0,0.0,0.0,-0.002896074205636978,-0.004779797978699207,0.06407461315393448,0.0,0.0,0.0,0.0,0.0,0.0,0.0,0.0,0.0
1606991397277497512,4360487,1606987796121553855,imu_link,0.003430941142141819,0.00471221748739481,0.44603845477104187,0.894994854927063,0.0,0.0,0.0,0.0,0.0,0.0,0.0,0.0,0.0,52.98215103149414,0.3079180419445038,0.5927444696426392,0.0,0.0,0.0,0.0,0.0,0.0,0.0,0.0,0.0,-0.012187753804028034,-0.0009099611197598279,0.051174964755773544,0.0,0.0,0.0,0.0,0.0,0.0,0.0,0.0,0.0
1606991397277524111,4360488,1606987796121644003,imu_link,0.003430941142141819,0.00471221748739481,0.44603845477104187,0.894994854927063,0.0,0.0,0.0,0.0,0.0,0.0,0.0,0.0,0.0,52.98215103149414,0.3079180419445038,0.5927444696426392,0.0,0.0,0.0,0.0,0.0,0.0,0.0,0.0,0.0,-0.012187753804028034,-0.0009099611197598279,0.051174964755773544,0.0,0.0,0.0,0.0,0.0,0.0,0.0,0.0,0.0
1606991397277550240,4360489,1606987796121720230,imu_link,0.0034334701485931873,0.004711431451141834,0.44604283571243286,0.8949926495552063,0.0,0.0,0.0,0.0,0.0,0.0,0.0,0.0,0.0,52.98271560668945,0.30770519375801086,0.5929651856422424,0.0,0.0,0.0,0.0,0.0,0.0,0.0,0.0,0.0,-0.030252879485487938,0.0029938947409391403,0.057085245847702026,0.0,0.0,0.0,0.0,0.0,0.0,0.0,0.0,0.0
1606991397277558317,4360490,1606987796121802690,imu_link,0.0034334701485931873,0.004711431451141834,0.44604283571243286,0.8949926495552063,0.0,0.0,0.0,0.0,0.0,0.0,0.0,0.0,0.0,52.98271560668945,0.30770519375801086,0.5929651856422424,0.0,0.0,0.0,0.0,0.0,0.0,0.0,0.0,0.0,-0.030252879485487938,0.0029938947409391403,0.057085245847702026,0.0,0.0,0.0,0.0,0.0,0.0,0.0,0.0,0.0
1606991397315995596,4360491,1606987796134333200,imu_link,0.0034322026185691357,0.004710883367806673,0.44604361057281494,0.8949922919273376,0.0,0.0,0.0,0.0,0.0,0.0,0.0,0.0,0.0,52.982810974121094,0.3077132999897003,0.5928074717521667,0.0,0.0,0.0,0.0,0.0,0.0,0.0,0.0,0.0,-0.017885826528072357,-0.006009158678352833,0.06543363630771637,0.0,0.0,0.0,0.0,0.0,0.0,0.0,0.0,0.0
1606991397316018072,4360492,1606987796134481042,imu_link,0.0034322026185691357,0.004710883367806673,0.44604361057281494,0.8949922919273376,0.0,0.0,0.0,0.0,0.0,0.0,0.0,0.0,0.0,52.982810974121094,0.3077132999897003,0.5928074717521667,0.0,0.0,0.0,0.0,0.0,0.0,0.0,0.0,0.0,-0.017885826528072357,-0.006009158678352833,0.06543363630771637,0.0,0.0,0.0,0.0,0.0,0.0,0.0,0.0,0.0
1606991397316042461,4360493,1606987796134614806,imu_link,0.003433089703321457,0.004710183944553137,0.446044921875,0.8949916362762451,0.0,0.0,0.0,0.0,0.0,0.0,0.0,0.0,0.0,52.98298263549805,0.3075953423976898,0.5928630828857422,0.0,0.0,0.0,0.0,0.0,0.0,0.0,0.0,0.0,0.001495822099968791,-0.002216726541519165,0.07518847286701202,0.0,0.0,0.0,0.0,0.0,0.0,0.0,0.0,0.0
1606991397316050833,4360494,1606987796134704264,imu_link,0.003433089703321457,0.004710183944553137,0.446044921875,0.8949916362762451,0.0,0.0,0.0,0.0,0.0,0.0,0.0,0.0,0.0,52.98298263549805,0.3075953423976898,0.5928630828857422,0.0,0.0,0.0,0.0,0.0,0.0,0.0,0.0,0.0,0.001495822099968791,-0.002216726541519165,0.07518847286701202,0.0,0.0,0.0,0.0,0.0,0.0,0.0,0.0,0.0
1606991397316064645,4360495,1606987796134787241,imu_link,0.003432836849242449,0.004711046349257231,0.4460437297821045,0.8949922323226929,0.0,0.0,0.0,0.0,0.0,0.0,0.0,0.0,0.0,52.98283004760742,0.30769747495651245,0.5928808450698853,0.0,0.0,0.0,0.0,0.0,0.0,0.0,0.0,0.0,-0.01067547220736742,0.01950436271727085,0.08600463718175888,0.0,0.0,0.0,0.0,0.0,0.0,0.0,0.0,0.0
1606991397379736483,4360496,1606987796134866138,imu_link,0.003432836849242449,0.004711046349257231,0.4460437297821045,0.8949922323226929,0.0,0.0,0.0,0.0,0.0,0.0,0.0,0.0,0.0,52.98283004760742,0.30769747495651245,0.5928808450698853,0.0,0.0,0.0,0.0,0.0,0.0,0.0,0.0,0.0,-0.01067547220736742,0.01950436271727085,0.08600463718175888,0.0,0.0,0.0,0.0,0.0,0.0,0.0,0.0,0.0
1606991397379778292,4360497,1606987796135025256,imu_link,0.0034307364840060472,0.004709762986749411,0.44604411721229553,0.8949920535087585,0.0,0.0,0.0,0.0,0.0,0.0,0.0,0.0,0.0,52.98287582397461,0.30767297744750977,0.5925999283790588,0.0,0.0,0.0,0.0,0.0,0.0,0.0,0.0,0.0,-0.0323358029127121,0.009047935716807842,0.07684066891670227,0.0,0.0,0.0,0.0,0.0,0.0,0.0,0.0,0.0
1606991397379804375,4360498,1606987796135120001,imu_link,0.0034307364840060472,0.004709762986749411,0.44604411721229553,0.8949920535087585,0.0,0.0,0.0,0.0,0.0,0.0,0.0,0.0,0.0,52.98287582397461,0.30767297744750977,0.5925999283790588,0.0,0.0,0.0,0.0,0.0,0.0,0.0,0.0,0.0,-0.0323358029127121,0.009047935716807842,0.07684066891670227,0.0,0.0,0.0,0.0,0.0,0.0,0.0,0.0,0.0
1606991397379820787,4360499,1606987796135252613,imu_link,0.00342968269251287,0.004710277542471886,0.44604459404945374,0.8949918150901794,0.0,0.0,0.0,0.0,0.0,0.0,0.0,0.0,0.0,52.98293685913086,0.30777931213378906,0.5925182700157166,0.0,0.0,0.0,0.0,0.0,0.0,0.0,0.0,0.0,-0.021629121154546738,0.01248051319271326,0.05533769726753235,0.0,0.0,0.0,0.0,0.0,0.0,0.0,0.0,0.0
1606991397392614963,4360500,1606987796135339724,imu_link,0.00342968269251287,0.004710277542471886,0.44604459404945374,0.8949918150901794,0.0,0.0,0.0,0.0,0.0,0.0,0.0,0.0,0.0,52.98293685913086,0.30777931213378906,0.5925182700157166,0.0,0.0,0.0,0.0,0.0,0.0,0.0,0.0,0.0,-0.021629121154546738,0.01248051319271326,0.05533769726753235,0.0,0.0,0.0,0.0,0.0,0.0,0.0,0.0,0.0
1606991397392641942,4360501,1606987796135418116,imu_link,0.003430459415540099,0.004709151107817888,0.4460442066192627,0.8949920535087585,0.0,0.0,0.0,0.0,0.0,0.0,0.0,0.0,0.0,52.98288345336914,0.30762436985969543,0.5925402045249939,0.0,0.0,0.0,0.0,0.0,0.0,0.0,0.0,0.0,0.0008259078022092581,0.015131521970033646,0.04380768910050392,0.0,0.0,0.0,0.0,0.0,0.0,0.0,0.0,0.0
1606991397392651371,4360502,1606987796148125389,imu_link,0.003430459415540099,0.004709151107817888,0.4460442066192627,0.8949920535087585,0.0,0.0,0.0,0.0,0.0,0.0,0.0,0.0,0.0,52.98288345336914,0.30762436985969543,0.5925402045249939,0.0,0.0,0.0,0.0,0.0,0.0,0.0,0.0,0.0,0.0008259078022092581,0.015131521970033646,0.04380768910050392,0.0,0.0,0.0,0.0,0.0,0.0,0.0,0.0,0.0
1606991397392656579,4360503,1606987796148271322,imu_link,0.0034292936325073242,0.004708542954176664,0.4460441768169403,0.8949920535087585,0.0,0.0,0.0,0.0,0.0,0.0,0.0,0.0,0.0,52.982879638671875,0.3076215982437134,0.5923895239830017,0.0,0.0,0.0,0.0,0.0,0.0,0.0,0.0,0.0,0.018636098131537437,0.00020823991508223116,0.04083592817187309,0.0,0.0,0.0,0.0,0.0,0.0,0.0,0.0,0.0
1606991397392665037,4360504,1606987796148432224,imu_link,0.0034292936325073242,0.004708542954176664,0.4460441768169403,0.8949920535087585,0.0,0.0,0.0,0.0,0.0,0.0,0.0,0.0,0.0,52.982879638671875,0.3076215982437134,0.5923895239830017,0.0,0.0,0.0,0.0,0.0,0.0,0.0,0.0,0.0,0.018636098131537437,0.00020823991508223116,0.04083592817187309,0.0,0.0,0.0,0.0,0.0,0.0,0.0,0.0,0.0
1606991397411785939,4360505,1606987796148529820,imu_link,0.003428845666348934,0.004708070773631334,0.44604429602622986,0.8949919939041138,0.0,0.0,0.0,0.0,0.0,0.0,0.0,0.0,0.0,52.98290252685547,0.30759596824645996,0.5923195481300354,0.0,0.0,0.0,0.0,0.0,0.0,0.0,0.0,0.0,0.016497492790222168,-0.0023243213072419167,0.05522346496582031,0.0,0.0,0.0,0.0,0.0,0.0,0.0,0.0,0.0
1606991397411816049,4360506,1606987796148609971,imu_link,0.003428845666348934,0.004708070773631334,0.44604429602622986,0.8949919939041138,0.0,0.0,0.0,0.0,0.0,0.0,0.0,0.0,0.0,52.98290252685547,0.30759596824645996,0.5923195481300354,0.0,0.0,0.0,0.0,0.0,0.0,0.0,0.0,0.0,0.016497492790222168,-0.0023243213072419167,0.05522346496582031,0.0,0.0,0.0,0.0,0.0,0.0,0.0,0.0,0.0
1606991397411825431,4360507,1606987796148690231,imu_link,0.003427974646911025,0.0047082300297915936,0.44604384899139404,0.8949922323226929,0.0,0.0,0.0,0.0,0.0,0.0,0.0,0.0,0.0,52.98284149169922,0.3076571524143219,0.5922382473945618,0.0,0.0,0.0,0.0,0.0,0.0,0.0,0.0,0.0,-0.004157030023634434,0.011909333057701588,0.08170255273580551,0.0,0.0,0.0,0.0,0.0,0.0,0.0,0.0,0.0
1606991397411841399,4360508,1606987796148796978,imu_link,0.003427974646911025,0.0047082300297915936,0.44604384899139404,0.8949922323226929,0.0,0.0,0.0,0.0,0.0,0.0,0.0,0.0,0.0,52.98284149169922,0.3076571524143219,0.5922382473945618,0.0,0.0,0.0,0.0,0.0,0.0,0.0,0.0,0.0,-0.004157030023634434,0.011909333057701588,0.08170255273580551,0.0,0.0,0.0,0.0,0.0,0.0,0.0,0.0,0.0
1606991397417397444,4360509,1606987796148879529,imu_link,0.0034272402990609407,0.004707495216280222,0.4460369646549225,0.8949956893920898,0.0,0.0,0.0,0.0,0.0,0.0,0.0,0.0,0.0,52.981956481933594,0.30762386322021484,0.5921229124069214,0.0,0.0,0.0,0.0,0.0,0.0,0.0,0.0,0.0,-0.005481533706188202,0.009543388150632381,0.07503421604633331,0.0,0.0,0.0,0.0,0.0,0.0,0.0,0.0,0.0
1606991397417430463,4360510,1606987796149006518,imu_link,0.0034272402990609407,0.004707495216280222,0.4460369646549225,0.8949956893920898,0.0,0.0,0.0,0.0,0.0,0.0,0.0,0.0,0.0,52.981956481933594,0.30762386322021484,0.5921229124069214,0.0,0.0,0.0,0.0,0.0,0.0,0.0,0.0,0.0,-0.005481533706188202,0.009543388150632381,0.07503421604633331,0.0,0.0,0.0,0.0,0.0,0.0,0.0,0.0,0.0
1606991397417446219,4360511,1606987796149091319,imu_link,0.00342785962857306,0.0047060963697731495,0.44603753089904785,0.894995391368866,0.0,0.0,0.0,0.0,0.0,0.0,0.0,0.0,0.0,52.98202896118164,0.3074483871459961,0.5921151638031006,0.0,0.0,0.0,0.0,0.0,0.0,0.0,0.0,0.0,-0.007788932882249355,-0.00048065604642033577,0.06229478865861893,0.0,0.0,0.0,0.0,0.0,0.0,0.0,0.0,0.0
1606991397417467636,4360512,1606987796149168658,imu_link,0.00342785962857306,0.0047060963697731495,0.44603753089904785,0.894995391368866,0.0,0.0,0.0,0.0,0.0,0.0,0.0,0.0,0.0,52.98202896118164,0.3074483871459961,0.5921151638031006,0.0,0.0,0.0,0.0,0.0,0.0,0.0,0.0,0.0,-0.007788932882249355,-0.00048065604642033577,0.06229478865861893,0.0,0.0,0.0,0.0,0.0,0.0,0.0,0.0,0.0
1606991397417514414,4360513,1606987796161589785,imu_link,0.0034289888571947813,0.004705716390162706,0.44602763652801514,0.8950002789497375,0.0,0.0,0.0,0.0,0.0,0.0,0.0,0.0,0.0,52.98075866699219,0.3073582351207733,0.5922081470489502,0.0,0.0,0.0,0.0,0.0,0.0,0.0,0.0,0.0,-0.0032532771583646536,0.02097436413168907,0.05911502242088318,0.0,0.0,0.0,0.0,0.0,0.0,0.0,0.0,0.0
1606991397459226193,4360514,1606987796161736549,imu_link,0.0034289888571947813,0.004705716390162706,0.44602763652801514,0.8950002789497375,0.0,0.0,0.0,0.0,0.0,0.0,0.0,0.0,0.0,52.98075866699219,0.3073582351207733,0.5922081470489502,0.0,0.0,0.0,0.0,0.0,0.0,0.0,0.0,0.0,-0.0032532771583646536,0.02097436413168907,0.05911502242088318,0.0,0.0,0.0,0.0,0.0,0.0,0.0,0.0,0.0
1606991397459248944,4360515,1606987796161876167,imu_link,0.003428178606554866,0.0047074295580387115,0.44602859020233154,0.8949998021125793,0.0,0.0,0.0,0.0,0.0,0.0,0.0,0.0,0.0,52.98088455200195,0.30757471919059753,0.592212975025177,0.0,0.0,0.0,0.0,0.0,0.0,0.0,0.0,0.0,0.012316928245127201,0.01746288500726223,0.05869030952453613,0.0,0.0,0.0,0.0,0.0,0.0,0.0,0.0,0.0
1606991397459275810,4360516,1606987796161963369,imu_link,0.003428178606554866,0.0047074295580387115,0.44602859020233154,0.8949998021125793,0.0,0.0,0.0,0.0,0.0,0.0,0.0,0.0,0.0,52.98088455200195,0.30757471919059753,0.592212975025177,0.0,0.0,0.0,0.0,0.0,0.0,0.0,0.0,0.0,0.012316928245127201,0.01746288500726223,0.05869030952453613,0.0,0.0,0.0,0.0,0.0,0.0,0.0,0.0,0.0
1606991397459284824,4360517,1606987796162043961,imu_link,0.0034264728892594576,0.004707456100732088,0.4460331201553345,0.8949975371360779,0.0,0.0,0.0,0.0,0.0,0.0,0.0,0.0,0.0,52.981468200683594,0.30766162276268005,0.592041015625,0.0,0.0,0.0,0.0,0.0,0.0,0.0,0.0,0.0,-0.009101449511945248,0.006980322767049074,0.0627504214644432,0.0,0.0,0.0,0.0,0.0,0.0,0.0,0.0,0.0
1606991397492436378,4360518,1606987796162143140,imu_link,0.0034264728892594576,0.004707456100732088,0.4460331201553345,0.8949975371360779,0.0,0.0,0.0,0.0,0.0,0.0,0.0,0.0,0.0,52.981468200683594,0.30766162276268005,0.592041015625,0.0,0.0,0.0,0.0,0.0,0.0,0.0,0.0,0.0,-0.009101449511945248,0.006980322767049074,0.0627504214644432,0.0,0.0,0.0,0.0,0.0,0.0,0.0,0.0,0.0
1606991397492465032,4360519,1606987796162224920,imu_link,0.0034274703357368708,0.004707755986601114,0.4460320770740509,0.8949980735778809,0.0,0.0,0.0,0.0,0.0,0.0,0.0,0.0,0.0,52.98133087158203,0.30764204263687134,0.5921581387519836,0.0,0.0,0.0,0.0,0.0,0.0,0.0,0.0,0.0,-0.011445973068475723,0.009838972240686417,0.05471118167042732,0.0,0.0,0.0,0.0,0.0,0.0,0.0,0.0,0.0
1606991397492482755,4360520,1606987796162398401,imu_link,0.0034274703357368708,0.004707755986601114,0.4460320770740509,0.8949980735778809,0.0,0.0,0.0,0.0,0.0,0.0,0.0,0.0,0.0,52.98133087158203,0.30764204263687134,0.5921581387519836,0.0,0.0,0.0,0.0,0.0,0.0,0.0,0.0,0.0,-0.011445973068475723,0.009838972240686417,0.05471118167042732,0.0,0.0,0.0,0.0,0.0,0.0,0.0,0.0,0.0
1606991397492497033,4360521,1606987796162490504,imu_link,0.003428277326747775,0.004705855622887611,0.4460359513759613,0.894996166229248,0.0,0.0,0.0,0.0,0.0,0.0,0.0,0.0,0.0,52.98182678222656,0.3074033856391907,0.5921451449394226,0.0,0.0,0.0,0.0,0.0,0.0,0.0,0.0,0.0,0.004695309326052666,0.003604501485824585,0.04672592505812645,0.0,0.0,0.0,0.0,0.0,0.0,0.0,0.0,0.0
1606991397492511983,4360522,1606987796162579039,imu_link,0.003428277326747775,0.004705855622887611,0.4460359513759613,0.894996166229248,0.0,0.0,0.0,0.0,0.0,0.0,0.0,0.0,0.0,52.98182678222656,0.3074033856391907,0.5921451449394226,0.0,0.0,0.0,0.0,0.0,0.0,0.0,0.0,0.0,0.004695309326052666,0.003604501485824585,0.04672592505812645,0.0,0.0,0.0,0.0,0.0,0.0,0.0,0.0,0.0
1606991397511980822,4360523,1606987796162658789,imu_link,0.003428533673286438,0.004707234911620617,0.4460345506668091,0.8949968218803406,0.0,0.0,0.0,0.0,0.0,0.0,0.0,0.0,0.0,52.981651306152344,0.3075326085090637,0.5922415256500244,0.0,0.0,0.0,0.0,0.0,0.0,0.0,0.0,0.0,-0.0051128757186234,0.007787897251546383,0.05056992918252945,0.0,0.0,0.0,0.0,0.0,0.0,0.0,0.0,0.0
1606991397512037989,4360524,1606987796174420178,imu_link,0.003428533673286438,0.004707234911620617,0.4460345506668091,0.8949968218803406,0.0,0.0,0.0,0.0,0.0,0.0,0.0,0.0,0.0,52.981651306152344,0.3075326085090637,0.5922415256500244,0.0,0.0,0.0,0.0,0.0,0.0,0.0,0.0,0.0,-0.0051128757186234,0.007787897251546383,0.05056992918252945,0.0,0.0,0.0,0.0,0.0,0.0,0.0,0.0,0.0
1606991397512052069,4360525,1606987796174536307,imu_link,0.003429136471822858,0.004706958308815956,0.44603264331817627,0.894997775554657,0.0,0.0,0.0,0.0,0.0,0.0,0.0,0.0,0.0,52.981407165527344,0.30747470259666443,0.5922884941101074,0.0,0.0,0.0,0.0,0.0,0.0,0.0,0.0,0.0,-0.0113000413402915,0.00018622452626004815,0.06051702797412872,0.0,0.0,0.0,0.0,0.0,0.0,0.0,0.0,0.0
1606991397512067272,4360526,1606987796174620176,imu_link,0.003429136471822858,0.004706958308815956,0.44603264331817627,0.894997775554657,0.0,0.0,0.0,0.0,0.0,0.0,0.0,0.0,0.0,52.981407165527344,0.30747470259666443,0.5922884941101074,0.0,0.0,0.0,0.0,0.0,0.0,0.0,0.0,0.0,-0.0113000413402915,0.00018622452626004815,0.06051702797412872,0.0,0.0,0.0,0.0,0.0,0.0,0.0,0.0,0.0
1606991397518976787,4360527,1606987796174708961,imu_link,0.003427608637139201,0.0047060903161764145,0.44603174924850464,0.8949981927871704,0.0,0.0,0.0,0.0,0.0,0.0,0.0,0.0,0.0,52.98128890991211,0.3074643313884735,0.5920872092247009,0.0,0.0,0.0,0.0,0.0,0.0,0.0,0.0,0.0,-0.00734709482640028,-0.006189604289829731,0.053754374384880066,0.0,0.0,0.0,0.0,0.0,0.0,0.0,0.0,0.0
1606991397519009574,4360528,1606987796174790515,imu_link,0.003427608637139201,0.0047060903161764145,0.44603174924850464,0.8949981927871704,0.0,0.0,0.0,0.0,0.0,0.0,0.0,0.0,0.0,52.98128890991211,0.3074643313884735,0.5920872092247009,0.0,0.0,0.0,0.0,0.0,0.0,0.0,0.0,0.0,-0.00734709482640028,-0.006189604289829731,0.053754374384880066,0.0,0.0,0.0,0.0,0.0,0.0,0.0,0.0,0.0
1606991397519027417,4360529,1606987796174885660,imu_link,0.0034271327313035727,0.004706319887191057,0.44603100419044495,0.8949986100196838,0.0,0.0,0.0,0.0,0.0,0.0,0.0,0.0,0.0,52.98119354248047,0.3075127601623535,0.592049777507782,0.0,0.0,0.0,0.0,0.0,0.0,0.0,0.0,0.0,-0.0015804916620254517,-0.009408453479409218,0.04817149415612221,0.0,0.0,0.0,0.0,0.0,0.0,0.0,0.0,0.0
1606991397519043162,4360530,1606987796175025324,imu_link,0.0034271327313035727,0.004706319887191057,0.44603100419044495,0.8949986100196838,0.0,0.0,0.0,0.0,0.0,0.0,0.0,0.0,0.0,52.98119354248047,0.3075127601623535,0.592049777507782,0.0,0.0,0.0,0.0,0.0,0.0,0.0,0.0,0.0,-0.0015804916620254517,-0.009408453479409218,0.04817149415612221,0.0,0.0,0.0,0.0,0.0,0.0,0.0,0.0,0.0
1606991397519055586,4360531,1606987796175117342,imu_link,0.0034262759145349264,0.004706345498561859,0.4460318386554718,0.8949981927871704,0.0,0.0,0.0,0.0,0.0,0.0,0.0,0.0,0.0,52.98130416870117,0.3075586259365082,0.5919634699821472,0.0,0.0,0.0,0.0,0.0,0.0,0.0,0.0,0.0,0.0024473092053085566,0.007064975798130035,0.05511585250496864,0.0,0.0,0.0,0.0,0.0,0.0,0.0,0.0,0.0
1606991397600961607,4360532,1606987796175200975,imu_link,0.0034262759145349264,0.004706345498561859,0.4460318386554718,0.8949981927871704,0.0,0.0,0.0,0.0,0.0,0.0,0.0,0.0,0.0,52.98130416870117,0.3075586259365082,0.5919634699821472,0.0,0.0,0.0,0.0,0.0,0.0,0.0,0.0,0.0,0.0024473092053085566,0.007064975798130035,0.05511585250496864,0.0,0.0,0.0,0.0,0.0,0.0,0.0,0.0,0.0
1606991397600986841,4360533,1606987796175282459,imu_link,0.003425048664212227,0.004707351792603731,0.44601666927337646,0.8950057625770569,0.0,0.0,0.0,0.0,0.0,0.0,0.0,0.0,0.0,52.97935485839844,0.30773454904556274,0.5918838381767273,0.0,0.0,0.0,0.0,0.0,0.0,0.0,0.0,0.0,0.0022673618514090776,0.00874247681349516,0.05034413933753967,0.0,0.0,0.0,0.0,0.0,0.0,0.0,0.0,0.0
1606991397601003692,4360534,1606987796188306901,imu_link,0.003425048664212227,0.004707351792603731,0.44601666927337646,0.8950057625770569,0.0,0.0,0.0,0.0,0.0,0.0,0.0,0.0,0.0,52.97935485839844,0.30773454904556274,0.5918838381767273,0.0,0.0,0.0,0.0,0.0,0.0,0.0,0.0,0.0,0.0022673618514090776,0.00874247681349516,0.05034413933753967,0.0,0.0,0.0,0.0,0.0,0.0,0.0,0.0,0.0
1606991397601010641,4360535,1606987796188448669,imu_link,0.003424417693167925,0.004706667736172676,0.4460156261920929,0.8950062990188599,0.0,0.0,0.0,0.0,0.0,0.0,0.0,0.0,0.0,52.979225158691406,0.3076973557472229,0.591783881187439,0.0,0.0,0.0,0.0,0.0,0.0,0.0,0.0,0.0,0.010592089965939522,-0.007901987060904503,0.049394361674785614,0.0,0.0,0.0,0.0,0.0,0.0,0.0,0.0,0.0
1606991397617866191,4360536,1606987796188609547,imu_link,0.003424417693167925,0.004706667736172676,0.4460156261920929,0.8950062990188599,0.0,0.0,0.0,0.0,0.0,0.0,0.0,0.0,0.0,52.979225158691406,0.3076973557472229,0.591783881187439,0.0,0.0,0.0,0.0,0.0,0.0,0.0,0.0,0.0,0.010592089965939522,-0.007901987060904503,0.049394361674785614,0.0,0.0,0.0,0.0,0.0,0.0,0.0,0.0,0.0
1606991397617979516,4360537,1606987796188704612,imu_link,0.0034242928959429264,0.004709635395556688,0.44600018858909607,0.8950139284133911,0.0,0.0,0.0,0.0,0.0,0.0,0.0,0.0,0.0,52.97725296020508,0.308018296957016,0.5919174551963806,0.0,0.0,0.0,0.0,0.0,0.0,0.0,0.0,0.0,0.0019705432932823896,-0.0005468005547299981,0.04448241740465164,0.0,0.0,0.0,0.0,0.0,0.0,0.0,0.0,0.0
1606991397618032713,4360538,1606987796188782241,imu_link,0.0034242928959429264,0.004709635395556688,0.44600018858909607,0.8950139284133911,0.0,0.0,0.0,0.0,0.0,0.0,0.0,0.0,0.0,52.97725296020508,0.308018296957016,0.5919174551963806,0.0,0.0,0.0,0.0,0.0,0.0,0.0,0.0,0.0,0.0019705432932823896,-0.0005468005547299981,0.04448241740465164,0.0,0.0,0.0,0.0,0.0,0.0,0.0,0.0,0.0
1606991397618046304,4360539,1606987796188863314,imu_link,0.0034241012763231993,0.004709312692284584,0.4459996819496155,0.895014226436615,0.0,0.0,0.0,0.0,0.0,0.0,0.0,0.0,0.0,52.9771842956543,0.30799537897109985,0.5918810963630676,0.0,0.0,0.0,0.0,0.0,0.0,0.0,0.0,0.0,-0.02803945727646351,0.011910242959856987,0.02994544617831707,0.0,0.0,0.0,0.0,0.0,0.0,0.0,0.0,0.0
1606991397618063056,4360540,1606987796188973303,imu_link,0.0034241012763231993,0.004709312692284584,0.4459996819496155,0.895014226436615,0.0,0.0,0.0,0.0,0.0,0.0,0.0,0.0,0.0,52.9771842956543,0.30799537897109985,0.5918810963630676,0.0,0.0,0.0,0.0,0.0,0.0,0.0,0.0,0.0,-0.02803945727646351,0.011910242959856987,0.02994544617831707,0.0,0.0,0.0,0.0,0.0,0.0,0.0,0.0,0.0
1606991397630654634,4360541,1606987796189054050,imu_link,0.0034228831063956022,0.004709561355412006,0.446000337600708,0.8950139284133911,0.0,0.0,0.0,0.0,0.0,0.0,0.0,0.0,0.0,52.97726821899414,0.3080827295780182,0.5917690992355347,0.0,0.0,0.0,0.0,0.0,0.0,0.0,0.0,0.0,-0.006926598493009806,0.025026462972164154,0.029293064028024673,0.0,0.0,0.0,0.0,0.0,0.0,0.0,0.0,0.0
1606991397630687743,4360542,1606987796189217814,imu_link,0.0034228831063956022,0.004709561355412006,0.446000337600708,0.8950139284133911,0.0,0.0,0.0,0.0,0.0,0.0,0.0,0.0,0.0,52.97726821899414,0.3080827295780182,0.5917690992355347,0.0,0.0,0.0,0.0,0.0,0.0,0.0,0.0,0.0,-0.006926598493009806,0.025026462972164154,0.029293064028024673,0.0,0.0,0.0,0.0,0.0,0.0,0.0,0.0,0.0
1606991397630709645,4360543,1606987796189301518,imu_link,0.0034229622688144445,0.00471037533134222,0.4460003972053528,0.8950138688087463,0.0,0.0,0.0,0.0,0.0,0.0,0.0,0.0,0.0,52.97727966308594,0.308162122964859,0.5918188095092773,0.0,0.0,0.0,0.0,0.0,0.0,0.0,0.0,0.0,0.016153717413544655,0.017989754676818848,0.06579775363206863,0.0,0.0,0.0,0.0,0.0,0.0,0.0,0.0,0.0
1606991397630726656,4360544,1606987796189384620,imu_link,0.0034229622688144445,0.00471037533134222,0.4460003972053528,0.8950138688087463,0.0,0.0,0.0,0.0,0.0,0.0,0.0,0.0,0.0,52.97727966308594,0.308162122964859,0.5918188095092773,0.0,0.0,0.0,0.0,0.0,0.0,0.0,0.0,0.0,0.016153717413544655,0.017989754676818848,0.06579775363206863,0.0,0.0,0.0,0.0,0.0,0.0,0.0,0.0,0.0
1606991397635593691,4360545,1606987796201798435,imu_link,0.0034210793673992157,0.004712265450507402,0.44599923491477966,0.8950144648551941,0.0,0.0,0.0,0.0,0.0,0.0,0.0,0.0,0.0,52.97712707519531,0.3084529936313629,0.5917219519615173,0.0,0.0,0.0,0.0,0.0,0.0,0.0,0.0,0.0,0.011224175803363323,0.006191388703882694,0.10678760707378387,0.0,0.0,0.0,0.0,0.0,0.0,0.0,0.0,0.0
1606991397635625834,4360546,1606987796201989241,imu_link,0.0034210793673992157,0.004712265450507402,0.44599923491477966,0.8950144648551941,0.0,0.0,0.0,0.0,0.0,0.0,0.0,0.0,0.0,52.97712707519531,0.3084529936313629,0.5917219519615173,0.0,0.0,0.0,0.0,0.0,0.0,0.0,0.0,0.0,0.011224175803363323,0.006191388703882694,0.10678760707378387,0.0,0.0,0.0,0.0,0.0,0.0,0.0,0.0,0.0
1606991397635689563,4360547,1606987796202171693,imu_link,0.00342223490588367,0.004713420756161213,0.44599902629852295,0.8950145840644836,0.0,0.0,0.0,0.0,0.0,0.0,0.0,0.0,0.0,52.97710418701172,0.30851253867149353,0.5918993949890137,0.0,0.0,0.0,0.0,0.0,0.0,0.0,0.0,0.0,0.01910426653921604,0.013172488659620285,0.08849095553159714,0.0,0.0,0.0,0.0,0.0,0.0,0.0,0.0,0.0
1606991397635710631,4360548,1606987796202325053,imu_link,0.00342223490588367,0.004713420756161213,0.44599902629852295,0.8950145840644836,0.0,0.0,0.0,0.0,0.0,0.0,0.0,0.0,0.0,52.97710418701172,0.30851253867149353,0.5918993949890137,0.0,0.0,0.0,0.0,0.0,0.0,0.0,0.0,0.0,0.01910426653921604,0.013172488659620285,0.08849095553159714,0.0,0.0,0.0,0.0,0.0,0.0,0.0,0.0,0.0
1606991397635726747,4360549,1606987796202473251,imu_link,0.003419380635023117,0.00471434136852622,0.44599783420562744,0.8950151801109314,0.0,0.0,0.0,0.0,0.0,0.0,0.0,0.0,0.0,52.976951599121094,0.3087536096572876,0.5916532874107361,0.0,0.0,0.0,0.0,0.0,0.0,0.0,0.0,0.0,0.0064754486083984375,0.010851046070456505,0.03907192498445511,0.0,0.0,0.0,0.0,0.0,0.0,0.0,0.0,0.0
1606991397698946852,4360550,1606987796202621865,imu_link,0.003419380635023117,0.00471434136852622,0.44599783420562744,0.8950151801109314,0.0,0.0,0.0,0.0,0.0,0.0,0.0,0.0,0.0,52.976951599121094,0.3087536096572876,0.5916532874107361,0.0,0.0,0.0,0.0,0.0,0.0,0.0,0.0,0.0,0.0064754486083984375,0.010851046070456505,0.03907192498445511,0.0,0.0,0.0,0.0,0.0,0.0,0.0,0.0,0.0
1606991397698976195,4360551,1606987796202779144,imu_link,0.003419823944568634,0.004712223075330257,0.44599613547325134,0.8950160145759583,0.0,0.0,0.0,0.0,0.0,0.0,0.0,0.0,0.0,52.97673416137695,0.3085148334503174,0.5915899872779846,0.0,0.0,0.0,0.0,0.0,0.0,0.0,0.0,0.0,-0.005655680783092976,0.005340753588825464,0.016646796837449074,0.0,0.0,0.0,0.0,0.0,0.0,0.0,0.0,0.0
1606991397698994002,4360552,1606987796202917309,imu_link,0.003419823944568634,0.004712223075330257,0.44599613547325134,0.8950160145759583,0.0,0.0,0.0,0.0,0.0,0.0,0.0,0.0,0.0,52.97673416137695,0.3085148334503174,0.5915899872779846,0.0,0.0,0.0,0.0,0.0,0.0,0.0,0.0,0.0,-0.005655680783092976,0.005340753588825464,0.016646796837449074,0.0,0.0,0.0,0.0,0.0,0.0,0.0,0.0,0.0
1606991397699014004,4360553,1606987796203092439,imu_link,0.003419501008465886,0.0047115483321249485,0.4459962546825409,0.8950159549713135,0.0,0.0,0.0,0.0,0.0,0.0,0.0,0.0,0.0,52.97674560546875,0.3084620535373688,0.5915223360061646,0.0,0.0,0.0,0.0,0.0,0.0,0.0,0.0,0.0,-0.0049091726541519165,0.013969220221042633,0.025985639542341232,0.0,0.0,0.0,0.0,0.0,0.0,0.0,0.0,0.0
1606991397737182758,4360554,1606987796203232358,imu_link,0.003419501008465886,0.0047115483321249485,0.4459962546825409,0.8950159549713135,0.0,0.0,0.0,0.0,0.0,0.0,0.0,0.0,0.0,52.97674560546875,0.3084620535373688,0.5915223360061646,0.0,0.0,0.0,0.0,0.0,0.0,0.0,0.0,0.0,-0.0049091726541519165,0.013969220221042633,0.025985639542341232,0.0,0.0,0.0,0.0,0.0,0.0,0.0,0.0,0.0
1606991397737216745,4360555,1606987796203369746,imu_link,0.0034183284733444452,0.004711635410785675,0.4459973871707916,0.8950154185295105,0.0,0.0,0.0,0.0,0.0,0.0,0.0,0.0,0.0,52.976890563964844,0.30853015184402466,0.5914069414138794,0.0,0.0,0.0,0.0,0.0,0.0,0.0,0.0,0.0,-0.006320399232208729,0.011491263285279274,0.05815132334828377,0.0,0.0,0.0,0.0,0.0,0.0,0.0,0.0,0.0
1606991397737230629,4360556,1606987796215702202,imu_link,0.0034183284733444452,0.004711635410785675,0.4459973871707916,0.8950154185295105,0.0,0.0,0.0,0.0,0.0,0.0,0.0,0.0,0.0,52.976890563964844,0.30853015184402466,0.5914069414138794,0.0,0.0,0.0,0.0,0.0,0.0,0.0,0.0,0.0,-0.006320399232208729,0.011491263285279274,0.05815132334828377,0.0,0.0,0.0,0.0,0.0,0.0,0.0,0.0,0.0
1606991397737270472,4360557,1606987796215896166,imu_link,0.0034166753757745028,0.004708718508481979,0.445988267660141,0.8950198888778687,0.0,0.0,0.0,0.0,0.0,0.0,0.0,0.0,0.0,52.97572326660156,0.308321475982666,0.5910852551460266,0.0,0.0,0.0,0.0,0.0,0.0,0.0,0.0,0.0,0.01396355964243412,0.0014353231526911259,0.06470762193202972,0.0,0.0,0.0,0.0,0.0,0.0,0.0,0.0,0.0
1606991397737291395,4360558,1606987796216071517,imu_link,0.0034166753757745028,0.004708718508481979,0.445988267660141,0.8950198888778687,0.0,0.0,0.0,0.0,0.0,0.0,0.0,0.0,0.0,52.97572326660156,0.308321475982666,0.5910852551460266,0.0,0.0,0.0,0.0,0.0,0.0,0.0,0.0,0.0,0.01396355964243412,0.0014353231526911259,0.06470762193202972,0.0,0.0,0.0,0.0,0.0,0.0,0.0,0.0,0.0
1606991397748506670,4360559,1606987796216228540,imu_link,0.003416210412979126,0.00470711337402463,0.4459865093231201,0.8950207829475403,0.0,0.0,0.0,0.0,0.0,0.0,0.0,0.0,0.0,52.97549819946289,0.3081817924976349,0.5909548997879028,0.0,0.0,0.0,0.0,0.0,0.0,0.0,0.0,0.0,0.0216019619256258,-0.002356681739911437,0.06373963505029678,0.0,0.0,0.0,0.0,0.0,0.0,0.0,0.0,0.0
1606991397748543432,4360560,1606987796216381584,imu_link,0.003416210412979126,0.00470711337402463,0.4459865093231201,0.8950207829475403,0.0,0.0,0.0,0.0,0.0,0.0,0.0,0.0,0.0,52.97549819946289,0.3081817924976349,0.5909548997879028,0.0,0.0,0.0,0.0,0.0,0.0,0.0,0.0,0.0,0.0216019619256258,-0.002356681739911437,0.06373963505029678,0.0,0.0,0.0,0.0,0.0,0.0,0.0,0.0,0.0
1606991397748555038,4360561,1606987796216539891,imu_link,0.0034151566214859486,0.0047101108357310295,0.44597870111465454,0.8950247168540955,0.0,0.0,0.0,0.0,0.0,0.0,0.0,0.0,0.0,52.9744987487793,0.308548241853714,0.5909972190856934,0.0,0.0,0.0,0.0,0.0,0.0,0.0,0.0,0.0,0.0014725920045748353,-0.003940816503018141,0.0499873086810112,0.0,0.0,0.0,0.0,0.0,0.0,0.0,0.0,0.0
1606991397748565372,4360562,1606987796216705594,imu_link,0.0034151566214859486,0.0047101108357310295,0.44597870111465454,0.8950247168540955,0.0,0.0,0.0,0.0,0.0,0.0,0.0,0.0,0.0,52.9744987487793,0.308548241853714,0.5909972190856934,0.0,0.0,0.0,0.0,0.0,0.0,0.0,0.0,0.0,0.0014725920045748353,-0.003940816503018141,0.0499873086810112,0.0,0.0,0.0,0.0,0.0,0.0,0.0,0.0,0.0
1606991397754939496,4360563,1606987796216850204,imu_link,0.0034150572028011084,0.004708203487098217,0.44597718119621277,0.8950254321098328,0.0,0.0,0.0,0.0,0.0,0.0,0.0,0.0,0.0,52.97430419921875,0.30835869908332825,0.590889036655426,0.0,0.0,0.0,0.0,0.0,0.0,0.0,0.0,0.0,-0.015677569434046745,-0.0183082427829504,0.06154811009764671,0.0,0.0,0.0,0.0,0.0,0.0,0.0,0.0,0.0
1606991397754979366,4360564,1606987796216989687,imu_link,0.0034150572028011084,0.004708203487098217,0.44597718119621277,0.8950254321098328,0.0,0.0,0.0,0.0,0.0,0.0,0.0,0.0,0.0,52.97430419921875,0.30835869908332825,0.590889036655426,0.0,0.0,0.0,0.0,0.0,0.0,0.0,0.0,0.0,-0.015677569434046745,-0.0183082427829504,0.06154811009764671,0.0,0.0,0.0,0.0,0.0,0.0,0.0,0.0,0.0
1606991397755037960,4360565,1606987796217125406,imu_link,0.003419470274820924,0.0047067091800272465,0.44598010182380676,0.8950240612030029,0.0,0.0,0.0,0.0,0.0,0.0,0.0,0.0,0.0,52.97467041015625,0.3079780042171478,0.5912663340568542,0.0,0.0,0.0,0.0,0.0,0.0,0.0,0.0,0.0,-0.009577374905347824,-0.027172936126589775,0.10543683916330338,0.0,0.0,0.0,0.0,0.0,0.0,0.0,0.0,0.0
1606991397755055229,4360566,1606987796217260258,imu_link,0.003419470274820924,0.0047067091800272465,0.44598010182380676,0.8950240612030029,0.0,0.0,0.0,0.0,0.0,0.0,0.0,0.0,0.0,52.97467041015625,0.3079780042171478,0.5912663340568542,0.0,0.0,0.0,0.0,0.0,0.0,0.0,0.0,0.0,-0.009577374905347824,-0.027172936126589775,0.10543683916330338,0.0,0.0,0.0,0.0,0.0,0.0,0.0,0.0,0.0
1606991397821300416,4360567,1606987796229097452,imu_link,0.0034206933341920376,0.004707425832748413,0.4459804594516754,0.8950238227844238,0.0,0.0,0.0,0.0,0.0,0.0,0.0,0.0,0.0,52.9747200012207,0.3079887330532074,0.5914285182952881,0.0,0.0,0.0,0.0,0.0,0.0,0.0,0.0,0.0,0.004987144842743874,-0.023654203861951828,0.07616858184337616,0.0,0.0,0.0,0.0,0.0,0.0,0.0,0.0,0.0
1606991397821339950,4360568,1606987796229267851,imu_link,0.0034206933341920376,0.004707425832748413,0.4459804594516754,0.8950238227844238,0.0,0.0,0.0,0.0,0.0,0.0,0.0,0.0,0.0,52.9747200012207,0.3079887330532074,0.5914285182952881,0.0,0.0,0.0,0.0,0.0,0.0,0.0,0.0,0.0,0.004987144842743874,-0.023654203861951828,0.07616858184337616,0.0,0.0,0.0,0.0,0.0,0.0,0.0,0.0,0.0
1606991397821360038,4360569,1606987796229408492,imu_link,0.0034224705304950476,0.0047082193195819855,0.44598254561424255,0.8950227499008179,0.0,0.0,0.0,0.0,0.0,0.0,0.0,0.0,0.0,52.9749870300293,0.30797791481018066,0.5916521549224854,0.0,0.0,0.0,0.0,0.0,0.0,0.0,0.0,0.0,-0.00738983228802681,-0.01330962311476469,0.057669222354888916,0.0,0.0,0.0,0.0,0.0,0.0,0.0,0.0,0.0
1606991397821371646,4360570,1606987796229554065,imu_link,0.0034224705304950476,0.0047082193195819855,0.44598254561424255,0.8950227499008179,0.0,0.0,0.0,0.0,0.0,0.0,0.0,0.0,0.0,52.9749870300293,0.30797791481018066,0.5916521549224854,0.0,0.0,0.0,0.0,0.0,0.0,0.0,0.0,0.0,-0.00738983228802681,-0.01330962311476469,0.057669222354888916,0.0,0.0,0.0,0.0,0.0,0.0,0.0,0.0,0.0
1606991397821378660,4360571,1606987796229694474,imu_link,0.003421492874622345,0.004709701519459486,0.4459826946258545,0.8950226902961731,0.0,0.0,0.0,0.0,0.0,0.0,0.0,0.0,0.0,52.975013732910156,0.3081797957420349,0.5916275978088379,0.0,0.0,0.0,0.0,0.0,0.0,0.0,0.0,0.0,0.0005791039438918233,-0.007854646071791649,0.054674338549375534,0.0,0.0,0.0,0.0,0.0,0.0,0.0,0.0,0.0
1606991397826952952,4360572,1606987796229850768,imu_link,0.003421492874622345,0.004709701519459486,0.4459826946258545,0.8950226902961731,0.0,0.0,0.0,0.0,0.0,0.0,0.0,0.0,0.0,52.975013732910156,0.3081797957420349,0.5916275978088379,0.0,0.0,0.0,0.0,0.0,0.0,0.0,0.0,0.0,0.0005791039438918233,-0.007854646071791649,0.054674338549375534,0.0,0.0,0.0,0.0,0.0,0.0,0.0,0.0,0.0
1606991397826985748,4360573,1606987796229984710,imu_link,0.003421991830691695,0.0047073946334421635,0.44598138332366943,0.8950233459472656,0.0,0.0,0.0,0.0,0.0,0.0,0.0,0.0,0.0,52.97483825683594,0.307918518781662,0.591560423374176,0.0,0.0,0.0,0.0,0.0,0.0,0.0,0.0,0.0,0.014424435794353485,-0.01633968949317932,0.05680009350180626,0.0,0.0,0.0,0.0,0.0,0.0,0.0,0.0,0.0
1606991397826998279,4360574,1606987796230109639,imu_link,0.003421991830691695,0.0047073946334421635,0.44598138332366943,0.8950233459472656,0.0,0.0,0.0,0.0,0.0,0.0,0.0,0.0,0.0,52.97483825683594,0.307918518781662,0.591560423374176,0.0,0.0,0.0,0.0,0.0,0.0,0.0,0.0,0.0,0.014424435794353485,-0.01633968949317932,0.05680009350180626,0.0,0.0,0.0,0.0,0.0,0.0,0.0,0.0,0.0
1606991397827012375,4360575,1606987796230232831,imu_link,0.0034208360593765974,0.004707749001681805,0.44598135352134705,0.8950234055519104,0.0,0.0,0.0,0.0,0.0,0.0,0.0,0.0,0.0,52.97483825683594,0.30801400542259216,0.5914599299430847,0.0,0.0,0.0,0.0,0.0,0.0,0.0,0.0,0.0,0.0060364906676113605,-0.011248281225562096,0.07942431420087814,0.0,0.0,0.0,0.0,0.0,0.0,0.0,0.0,0.0
1606991397836605020,4360576,1606987796230353460,imu_link,0.0034208360593765974,0.004707749001681805,0.44598135352134705,0.8950234055519104,0.0,0.0,0.0,0.0,0.0,0.0,0.0,0.0,0.0,52.97483825683594,0.30801400542259216,0.5914599299430847,0.0,0.0,0.0,0.0,0.0,0.0,0.0,0.0,0.0,0.0060364906676113605,-0.011248281225562096,0.07942431420087814,0.0,0.0,0.0,0.0,0.0,0.0,0.0,0.0,0.0
1606991397836639984,4360577,1606987796230472670,imu_link,0.0034228579606860876,0.004708359017968178,0.4459788501262665,0.8950246572494507,0.0,0.0,0.0,0.0,0.0,0.0,0.0,0.0,0.0,52.97451400756836,0.3079749047756195,0.591697633266449,0.0,0.0,0.0,0.0,0.0,0.0,0.0,0.0,0.0,0.0053546554408967495,0.0038039064966142178,0.07541214674711227,0.0,0.0,0.0,0.0,0.0,0.0,0.0,0.0,0.0
1606991397836676614,4360578,1606987796241989769,imu_link,0.0034228579606860876,0.004708359017968178,0.4459788501262665,0.8950246572494507,0.0,0.0,0.0,0.0,0.0,0.0,0.0,0.0,0.0,52.97451400756836,0.3079749047756195,0.591697633266449,0.0,0.0,0.0,0.0,0.0,0.0,0.0,0.0,0.0,0.0053546554408967495,0.0038039064966142178,0.07541214674711227,0.0,0.0,0.0,0.0,0.0,0.0,0.0,0.0,0.0
1606991397836685938,4360579,1606987796242163763,imu_link,0.0034237909130752087,0.004709264729171991,0.445980042219162,0.8950239419937134,0.0,0.0,0.0,0.0,0.0,0.0,0.0,0.0,0.0,52.974674224853516,0.3080192506313324,0.5918402075767517,0.0,0.0,0.0,0.0,0.0,0.0,0.0,0.0,0.0,-0.003939892631024122,-0.0016679225955158472,0.06738533079624176,0.0,0.0,0.0,0.0,0.0,0.0,0.0,0.0,0.0
1606991397836702500,4360580,1606987796242321237,imu_link,0.0034237909130752087,0.004709264729171991,0.445980042219162,0.8950239419937134,0.0,0.0,0.0,0.0,0.0,0.0,0.0,0.0,0.0,52.974674224853516,0.3080192506313324,0.5918402075767517,0.0,0.0,0.0,0.0,0.0,0.0,0.0,0.0,0.0,-0.003939892631024122,-0.0016679225955158472,0.06738533079624176,0.0,0.0,0.0,0.0,0.0,0.0,0.0,0.0,0.0
1606991397855341659,4360581,1606987796242458239,imu_link,0.003425899427384138,0.004709674045443535,0.44597917795181274,0.8950244188308716,0.0,0.0,0.0,0.0,0.0,0.0,0.0,0.0,0.0,52.97456359863281,0.3079540431499481,0.5920769572257996,0.0,0.0,0.0,0.0,0.0,0.0,0.0,0.0,0.0,-0.0012196913594380021,0.0032660586293786764,0.0683513656258583,0.0,0.0,0.0,0.0,0.0,0.0,0.0,0.0,0.0
1606991397855366559,4360582,1606987796242595744,imu_link,0.003425899427384138,0.004709674045443535,0.44597917795181274,0.8950244188308716,0.0,0.0,0.0,0.0,0.0,0.0,0.0,0.0,0.0,52.97456359863281,0.3079540431499481,0.5920769572257996,0.0,0.0,0.0,0.0,0.0,0.0,0.0,0.0,0.0,-0.0012196913594380021,0.0032660586293786764,0.0683513656258583,0.0,0.0,0.0,0.0,0.0,0.0,0.0,0.0,0.0
1606991397855430287,4360583,1606987796242747394,imu_link,0.003425776259973645,0.00471090292558074,0.44597914814949036,0.8950244188308716,0.0,0.0,0.0,0.0,0.0,0.0,0.0,0.0,0.0,52.97456359863281,0.3080863952636719,0.5921272039413452,0.0,0.0,0.0,0.0,0.0,0.0,0.0,0.0,0.0,0.006553652696311474,0.013517693616449833,0.05853141471743584,0.0,0.0,0.0,0.0,0.0,0.0,0.0,0.0,0.0
1606991397855445058,4360584,1606987796242881553,imu_link,0.003425776259973645,0.00471090292558074,0.44597914814949036,0.8950244188308716,0.0,0.0,0.0,0.0,0.0,0.0,0.0,0.0,0.0,52.97456359863281,0.3080863952636719,0.5921272039413452,0.0,0.0,0.0,0.0,0.0,0.0,0.0,0.0,0.0,0.006553652696311474,0.013517693616449833,0.05853141471743584,0.0,0.0,0.0,0.0,0.0,0.0,0.0,0.0,0.0
1606991397937781519,4360585,1606987796243074044,imu_link,0.003423783229663968,0.004712685942649841,0.4459795355796814,0.8950241804122925,0.0,0.0,0.0,0.0,0.0,0.0,0.0,0.0,0.0,52.974609375,0.3083708584308624,0.592013955116272,0.0,0.0,0.0,0.0,0.0,0.0,0.0,0.0,0.0,-0.005742540583014488,-0.006089802365750074,0.045395657420158386,0.0,0.0,0.0,0.0,0.0,0.0,0.0,0.0,0.0
1606991397937800875,4360586,1606987796243201820,imu_link,0.003423783229663968,0.004712685942649841,0.4459795355796814,0.8950241804122925,0.0,0.0,0.0,0.0,0.0,0.0,0.0,0.0,0.0,52.974609375,0.3083708584308624,0.592013955116272,0.0,0.0,0.0,0.0,0.0,0.0,0.0,0.0,0.0,-0.005742540583014488,-0.006089802365750074,0.045395657420158386,0.0,0.0,0.0,0.0,0.0,0.0,0.0,0.0,0.0
1606991397937813484,4360587,1606987796243308446,imu_link,0.003425035858526826,0.004714521113783121,0.4459800124168396,0.8950240015983582,0.0,0.0,0.0,0.0,0.0,0.0,0.0,0.0,0.0,52.974674224853516,0.30849480628967285,0.5922364592552185,0.0,0.0,0.0,0.0,0.0,0.0,0.0,0.0,0.0,-0.008225040510296822,-0.00013650237815454602,0.05280762538313866,0.0,0.0,0.0,0.0,0.0,0.0,0.0,0.0,0.0
1606991397937827547,4360588,1606987796255794488,imu_link,0.003425035858526826,0.004714521113783121,0.4459800124168396,0.8950240015983582,0.0,0.0,0.0,0.0,0.0,0.0,0.0,0.0,0.0,52.974674224853516,0.30849480628967285,0.5922364592552185,0.0,0.0,0.0,0.0,0.0,0.0,0.0,0.0,0.0,-0.008225040510296822,-0.00013650237815454602,0.05280762538313866,0.0,0.0,0.0,0.0,0.0,0.0,0.0,0.0,0.0
1606991397937844083,4360589,1606987796255981982,imu_link,0.0034257376100867987,0.004714117851108313,0.4459790289402008,0.8950244784355164,0.0,0.0,0.0,0.0,0.0,0.0,0.0,0.0,0.0,52.974544525146484,0.3084181845188141,0.5922874808311462,0.0,0.0,0.0,0.0,0.0,0.0,0.0,0.0,0.0,0.0035362860653549433,0.011040754616260529,0.06591223180294037,0.0,0.0,0.0,0.0,0.0,0.0,0.0,0.0,0.0
1606991397965500576,4360590,1606987796256115576,imu_link,0.0034257376100867987,0.004714117851108313,0.4459790289402008,0.8950244784355164,0.0,0.0,0.0,0.0,0.0,0.0,0.0,0.0,0.0,52.974544525146484,0.3084181845188141,0.5922874808311462,0.0,0.0,0.0,0.0,0.0,0.0,0.0,0.0,0.0,0.0035362860653549433,0.011040754616260529,0.06591223180294037,0.0,0.0,0.0,0.0,0.0,0.0,0.0,0.0,0.0
1606991397965524687,4360591,1606987796256238956,imu_link,0.0034236314240843058,0.004714006558060646,0.4459802508354187,0.8950238823890686,0.0,0.0,0.0,0.0,0.0,0.0,0.0,0.0,0.0,52.974700927734375,0.3085136115550995,0.5920661091804504,0.0,0.0,0.0,0.0,0.0,0.0,0.0,0.0,0.0,0.015842122957110405,-0.0007450339617207646,0.05022440105676651,0.0,0.0,0.0,0.0,0.0,0.0,0.0,0.0,0.0
1606991397965541901,4360592,1606987796256363354,imu_link,0.0034236314240843058,0.004714006558060646,0.4459802508354187,0.8950238823890686,0.0,0.0,0.0,0.0,0.0,0.0,0.0,0.0,0.0,52.974700927734375,0.3085136115550995,0.5920661091804504,0.0,0.0,0.0,0.0,0.0,0.0,0.0,0.0,0.0,0.015842122957110405,-0.0007450339617207646,0.05022440105676651,0.0,0.0,0.0,0.0,0.0,0.0,0.0,0.0,0.0
1606991397965556377,4360593,1606987796256481798,imu_link,0.003423483343794942,0.00471534114331007,0.44597846269607544,0.8950247764587402,0.0,0.0,0.0,0.0,0.0,0.0,0.0,0.0,0.0,52.97447204589844,0.30865922570228577,0.592118501663208,0.0,0.0,0.0,0.0,0.0,0.0,0.0,0.0,0.0,0.0011033442569896579,-0.0018673738231882453,0.06295200437307358,0.0,0.0,0.0,0.0,0.0,0.0,0.0,0.0,0.0
1606991397981227256,4360594,1606987796256622514,imu_link,0.003423483343794942,0.00471534114331007,0.44597846269607544,0.8950247764587402,0.0,0.0,0.0,0.0,0.0,0.0,0.0,0.0,0.0,52.97447204589844,0.30865922570228577,0.592118501663208,0.0,0.0,0.0,0.0,0.0,0.0,0.0,0.0,0.0,0.0011033442569896579,-0.0018673738231882453,0.06295200437307358,0.0,0.0,0.0,0.0,0.0,0.0,0.0,0.0,0.0
1606991397981269786,4360595,1606987796256737485,imu_link,0.0034245767164975405,0.004715652670711279,0.44597846269607544,0.8950247764587402,0.0,0.0,0.0,0.0,0.0,0.0,0.0,0.0,0.0,52.97447204589844,0.30863532423973083,0.5922465920448303,0.0,0.0,0.0,0.0,0.0,0.0,0.0,0.0,0.0,-0.01613469421863556,0.0029170052148401737,0.08419156819581985,0.0,0.0,0.0,0.0,0.0,0.0,0.0,0.0,0.0
1606991397981293417,4360596,1606987796256843511,imu_link,0.0034245767164975405,0.004715652670711279,0.44597846269607544,0.8950247764587402,0.0,0.0,0.0,0.0,0.0,0.0,0.0,0.0,0.0,52.97447204589844,0.30863532423973083,0.5922465920448303,0.0,0.0,0.0,0.0,0.0,0.0,0.0,0.0,0.0,-0.01613469421863556,0.0029170052148401737,0.08419156819581985,0.0,0.0,0.0,0.0,0.0,0.0,0.0,0.0,0.0
1606991397981309798,4360597,1606987796256952969,imu_link,0.003425894770771265,0.004713761620223522,0.44598424434661865,0.8950217962265015,0.0,0.0,0.0,0.0,0.0,0.0,0.0,0.0,0.0,52.9752197265625,0.30837011337280273,0.5922873020172119,0.0,0.0,0.0,0.0,0.0,0.0,0.0,0.0,0.0,-0.006630050018429756,0.00028190918965265155,0.06765588372945786,0.0,0.0,0.0,0.0,0.0,0.0,0.0,0.0,0.0
1606991397981323117,4360598,1606987796257061495,imu_link,0.003425894770771265,0.004713761620223522,0.44598424434661865,0.8950217962265015,0.0,0.0,0.0,0.0,0.0,0.0,0.0,0.0,0.0,52.9752197265625,0.30837011337280273,0.5922873020172119,0.0,0.0,0.0,0.0,0.0,0.0,0.0,0.0,0.0,-0.006630050018429756,0.00028190918965265155,0.06765588372945786,0.0,0.0,0.0,0.0,0.0,0.0,0.0,0.0,0.0
1606991397990697911,4360599,1606987796269117922,imu_link,0.0034252782352268696,0.004714304581284523,0.44598355889320374,0.8950222730636597,0.0,0.0,0.0,0.0,0.0,0.0,0.0,0.0,0.0,52.97512435913086,0.3084578812122345,0.5922514200210571,0.0,0.0,0.0,0.0,0.0,0.0,0.0,0.0,0.0,-0.00826539658010006,-0.0004726227489300072,0.06273549795150757,0.0,0.0,0.0,0.0,0.0,0.0,0.0,0.0,0.0
1606991397990737806,4360600,1606987796269470233,imu_link,0.0034252782352268696,0.004714304581284523,0.44598355889320374,0.8950222730636597,0.0,0.0,0.0,0.0,0.0,0.0,0.0,0.0,0.0,52.97512435913086,0.3084578812122345,0.5922514200210571,0.0,0.0,0.0,0.0,0.0,0.0,0.0,0.0,0.0,-0.00826539658010006,-0.0004726227489300072,0.06273549795150757,0.0,0.0,0.0,0.0,0.0,0.0,0.0,0.0,0.0
1606991397990763534,4360601,1606987796269594260,imu_link,0.0034263336565345526,0.004712850786745548,0.4459879398345947,0.8950200080871582,0.0,0.0,0.0,0.0,0.0,0.0,0.0,0.0,0.0,52.97568893432617,0.30825191736221313,0.5922869443893433,0.0,0.0,0.0,0.0,0.0,0.0,0.0,0.0,0.0,-0.003337868954986334,0.009422988630831242,0.05724821984767914,0.0,0.0,0.0,0.0,0.0,0.0,0.0,0.0,0.0
1606991397990778511,4360602,1606987796269705677,imu_link,0.0034263336565345526,0.004712850786745548,0.4459879398345947,0.8950200080871582,0.0,0.0,0.0,0.0,0.0,0.0,0.0,0.0,0.0,52.97568893432617,0.30825191736221313,0.5922869443893433,0.0,0.0,0.0,0.0,0.0,0.0,0.0,0.0,0.0,-0.003337868954986334,0.009422988630831242,0.05724821984767914,0.0,0.0,0.0,0.0,0.0,0.0,0.0,0.0,0.0
1606991398045419324,4360603,1606987796269814324,imu_link,0.003425280563533306,0.004713291302323341,0.4459880590438843,0.8950199484825134,0.0,0.0,0.0,0.0,0.0,0.0,0.0,0.0,0.0,52.975704193115234,0.3083508312702179,0.5922014117240906,0.0,0.0,0.0,0.0,0.0,0.0,0.0,0.0,0.0,0.024425508454442024,0.022003015503287315,0.03975220397114754,0.0,0.0,0.0,0.0,0.0,0.0,0.0,0.0,0.0
1606991398045476676,4360604,1606987796269922148,imu_link,0.003425280563533306,0.004713291302323341,0.4459880590438843,0.8950199484825134,0.0,0.0,0.0,0.0,0.0,0.0,0.0,0.0,0.0,52.975704193115234,0.3083508312702179,0.5922014117240906,0.0,0.0,0.0,0.0,0.0,0.0,0.0,0.0,0.0,0.024425508454442024,0.022003015503287315,0.03975220397114754,0.0,0.0,0.0,0.0,0.0,0.0,0.0,0.0,0.0
1606991398045497407,4360605,1606987796270047037,imu_link,0.003420813474804163,0.004713700618594885,0.4459877908229828,0.8950201272964478,0.0,0.0,0.0,0.0,0.0,0.0,0.0,0.0,0.0,52.97566604614258,0.30862128734588623,0.5917641520500183,0.0,0.0,0.0,0.0,0.0,0.0,0.0,0.0,0.0,0.027242308482527733,0.008758881129324436,0.04531501606106758,0.0,0.0,0.0,0.0,0.0,0.0,0.0,0.0,0.0
1606991398045512890,4360606,1606987796270155749,imu_link,0.003420813474804163,0.004713700618594885,0.4459877908229828,0.8950201272964478,0.0,0.0,0.0,0.0,0.0,0.0,0.0,0.0,0.0,52.97566604614258,0.30862128734588623,0.5917641520500183,0.0,0.0,0.0,0.0,0.0,0.0,0.0,0.0,0.0,0.027242308482527733,0.008758881129324436,0.04531501606106758,0.0,0.0,0.0,0.0,0.0,0.0,0.0,0.0,0.0
1606991398045531180,4360607,1606987796270260592,imu_link,0.003421671222895384,0.004711422603577375,0.44598886370658875,0.8950196504592896,0.0,0.0,0.0,0.0,0.0,0.0,0.0,0.0,0.0,52.975799560546875,0.30834314227104187,0.5917359590530396,0.0,0.0,0.0,0.0,0.0,0.0,0.0,0.0,0.0,0.016140442341566086,-0.006123198661953211,0.06531337648630142,0.0,0.0,0.0,0.0,0.0,0.0,0.0,0.0,0.0
1606991398060438165,4360608,1606987796270364517,imu_link,0.003421671222895384,0.004711422603577375,0.44598886370658875,0.8950196504592896,0.0,0.0,0.0,0.0,0.0,0.0,0.0,0.0,0.0,52.975799560546875,0.30834314227104187,0.5917359590530396,0.0,0.0,0.0,0.0,0.0,0.0,0.0,0.0,0.0,0.016140442341566086,-0.006123198661953211,0.06531337648630142,0.0,0.0,0.0,0.0,0.0,0.0,0.0,0.0,0.0
1606991398060459474,4360609,1606987796270468242,imu_link,0.0034235045313835144,0.004712405614554882,0.4459870755672455,0.8950205445289612,0.0,0.0,0.0,0.0,0.0,0.0,0.0,0.0,0.0,52.9755744934082,0.30835142731666565,0.5919736623764038,0.0,0.0,0.0,0.0,0.0,0.0,0.0,0.0,0.0,0.020252501592040062,-0.0038989963941276073,0.05494541674852371,0.0,0.0,0.0,0.0,0.0,0.0,0.0,0.0,0.0
1606991398060492397,4360610,1606987796283029793,imu_link,0.0034235045313835144,0.004712405614554882,0.4459870755672455,0.8950205445289612,0.0,0.0,0.0,0.0,0.0,0.0,0.0,0.0,0.0,52.9755744934082,0.30835142731666565,0.5919736623764038,0.0,0.0,0.0,0.0,0.0,0.0,0.0,0.0,0.0,0.020252501592040062,-0.0038989963941276073,0.05494541674852371,0.0,0.0,0.0,0.0,0.0,0.0,0.0,0.0,0.0
1606991398060514150,4360611,1606987796283184727,imu_link,0.0034245026763528585,0.004712378606200218,0.4459875524044037,0.8950203061103821,0.0,0.0,0.0,0.0,0.0,0.0,0.0,0.0,0.0,52.97563552856445,0.308297336101532,0.5920747518539429,0.0,0.0,0.0,0.0,0.0,0.0,0.0,0.0,0.0,0.01563321240246296,-0.006776131223887205,0.04019688814878464,0.0,0.0,0.0,0.0,0.0,0.0,0.0,0.0,0.0
1606991398107786444,4360612,1606987796283299483,imu_link,0.0034245026763528585,0.004712378606200218,0.4459875524044037,0.8950203061103821,0.0,0.0,0.0,0.0,0.0,0.0,0.0,0.0,0.0,52.97563552856445,0.308297336101532,0.5920747518539429,0.0,0.0,0.0,0.0,0.0,0.0,0.0,0.0,0.0,0.01563321240246296,-0.006776131223887205,0.04019688814878464,0.0,0.0,0.0,0.0,0.0,0.0,0.0,0.0,0.0
1606991398107822117,4360613,1606987796283413271,imu_link,0.0034226328134536743,0.004715426359325647,0.44599324464797974,0.8950174450874329,0.0,0.0,0.0,0.0,0.0,0.0,0.0,0.0,0.0,52.97636413574219,0.30870169401168823,0.5920407772064209,0.0,0.0,0.0,0.0,0.0,0.0,0.0,0.0,0.0,0.005612433422356844,-0.00771236140280962,0.054076313972473145,0.0,0.0,0.0,0.0,0.0,0.0,0.0,0.0,0.0
1606991398107835370,4360614,1606987796283523070,imu_link,0.0034226328134536743,0.004715426359325647,0.44599324464797974,0.8950174450874329,0.0,0.0,0.0,0.0,0.0,0.0,0.0,0.0,0.0,52.97636413574219,0.30870169401168823,0.5920407772064209,0.0,0.0,0.0,0.0,0.0,0.0,0.0,0.0,0.0,0.005612433422356844,-0.00771236140280962,0.054076313972473145,0.0,0.0,0.0,0.0,0.0,0.0,0.0,0.0,0.0
1606991398107842747,4360615,1606987796283652730,imu_link,0.0034222458489239216,0.004715194925665855,0.44599252939224243,0.895017683506012,0.0,0.0,0.0,0.0,0.0,0.0,0.0,0.0,0.0,52.976280212402344,0.3086981773376465,0.5919890403747559,0.0,0.0,0.0,0.0,0.0,0.0,0.0,0.0,0.0,0.01202745083719492,-0.014526238664984703,0.059660498052835464,0.0,0.0,0.0,0.0,0.0,0.0,0.0,0.0,0.0
1606991398107871884,4360616,1606987796283761211,imu_link,0.0034222458489239216,0.004715194925665855,0.44599252939224243,0.895017683506012,0.0,0.0,0.0,0.0,0.0,0.0,0.0,0.0,0.0,52.976280212402344,0.3086981773376465,0.5919890403747559,0.0,0.0,0.0,0.0,0.0,0.0,0.0,0.0,0.0,0.01202745083719492,-0.014526238664984703,0.059660498052835464,0.0,0.0,0.0,0.0,0.0,0.0,0.0,0.0,0.0
1606991398115157844,4360617,1606987796283867718,imu_link,0.0034264519345015287,0.0047166314907372,0.4459991157054901,0.8950144648551941,0.0,0.0,0.0,0.0,0.0,0.0,0.0,0.0,0.0,52.97712326049805,0.3086261749267578,0.5924960970878601,0.0,0.0,0.0,0.0,0.0,0.0,0.0,0.0,0.0,0.0037576514296233654,-0.01772068254649639,0.04416133835911751,0.0,0.0,0.0,0.0,0.0,0.0,0.0,0.0,0.0
1606991398115213790,4360618,1606987796283972550,imu_link,0.0034264519345015287,0.0047166314907372,0.4459991157054901,0.8950144648551941,0.0,0.0,0.0,0.0,0.0,0.0,0.0,0.0,0.0,52.97712326049805,0.3086261749267578,0.5924960970878601,0.0,0.0,0.0,0.0,0.0,0.0,0.0,0.0,0.0,0.0037576514296233654,-0.01772068254649639,0.04416133835911751,0.0,0.0,0.0,0.0,0.0,0.0,0.0,0.0,0.0
1606991398115246472,4360619,1606987796284075438,imu_link,0.0034267969895154238,0.004717470612376928,0.44600048661231995,0.895013689994812,0.0,0.0,0.0,0.0,0.0,0.0,0.0,0.0,0.0,52.977298736572266,0.30869367718696594,0.5925748944282532,0.0,0.0,0.0,0.0,0.0,0.0,0.0,0.0,0.0,-0.012929718941450119,-0.029007328674197197,0.06613181531429291,0.0,0.0,0.0,0.0,0.0,0.0,0.0,0.0,0.0
1606991398115291596,4360620,1606987796284181238,imu_link,0.0034267969895154238,0.004717470612376928,0.44600048661231995,0.895013689994812,0.0,0.0,0.0,0.0,0.0,0.0,0.0,0.0,0.0,52.977298736572266,0.30869367718696594,0.5925748944282532,0.0,0.0,0.0,0.0,0.0,0.0,0.0,0.0,0.0,-0.012929718941450119,-0.029007328674197197,0.06613181531429291,0.0,0.0,0.0,0.0,0.0,0.0,0.0,0.0,0.0
1606991398192813985,4360621,1606987796295877236,imu_link,0.0034304866567254066,0.004717674572020769,0.446000874042511,0.8950135707855225,0.0,0.0,0.0,0.0,0.0,0.0,0.0,0.0,0.0,52.97734832763672,0.30852583050727844,0.5929638147354126,0.0,0.0,0.0,0.0,0.0,0.0,0.0,0.0,0.0,-0.0024836352095007896,-0.01968032494187355,0.10088229179382324,0.0,0.0,0.0,0.0,0.0,0.0,0.0,0.0,0.0
1606991398192846818,4360622,1606987796295949037,imu_link,0.0034304866567254066,0.004717674572020769,0.446000874042511,0.8950135707855225,0.0,0.0,0.0,0.0,0.0,0.0,0.0,0.0,0.0,52.97734832763672,0.30852583050727844,0.5929638147354126,0.0,0.0,0.0,0.0,0.0,0.0,0.0,0.0,0.0,-0.0024836352095007896,-0.01968032494187355,0.10088229179382324,0.0,0.0,0.0,0.0,0.0,0.0,0.0,0.0,0.0
1606991398192859976,4360623,1606987796296013285,imu_link,0.0034289408940821886,0.004718250595033169,0.44600334763526917,0.8950123190879822,0.0,0.0,0.0,0.0,0.0,0.0,0.0,0.0,0.0,52.97766876220703,0.30866220593452454,0.5928356647491455,0.0,0.0,0.0,0.0,0.0,0.0,0.0,0.0,0.0,0.0018038256093859673,0.00666110310703516,0.09547112882137299,0.0,0.0,0.0,0.0,0.0,0.0,0.0,0.0,0.0
1606991398192877258,4360624,1606987796296055546,imu_link,0.0034289408940821886,0.004718250595033169,0.44600334763526917,0.8950123190879822,0.0,0.0,0.0,0.0,0.0,0.0,0.0,0.0,0.0,52.97766876220703,0.30866220593452454,0.5928356647491455,0.0,0.0,0.0,0.0,0.0,0.0,0.0,0.0,0.0,0.0018038256093859673,0.00666110310703516,0.09547112882137299,0.0,0.0,0.0,0.0,0.0,0.0,0.0,0.0,0.0
1606991398192896125,4360625,1606987796296094604,imu_link,0.0034279050305485725,0.0047192927449941635,0.44600653648376465,0.8950107097625732,0.0,0.0,0.0,0.0,0.0,0.0,0.0,0.0,0.0,52.97808074951172,0.3088199496269226,0.5927837491035461,0.0,0.0,0.0,0.0,0.0,0.0,0.0,0.0,0.0,-0.0027447196189314127,0.010138439014554024,0.048719387501478195,0.0,0.0,0.0,0.0,0.0,0.0,0.0,0.0,0.0
1606991398197502186,4360626,1606987796296140632,imu_link,0.0034279050305485725,0.0047192927449941635,0.44600653648376465,0.8950107097625732,0.0,0.0,0.0,0.0,0.0,0.0,0.0,0.0,0.0,52.97808074951172,0.3088199496269226,0.5927837491035461,0.0,0.0,0.0,0.0,0.0,0.0,0.0,0.0,0.0,-0.0027447196189314127,0.010138439014554024,0.048719387501478195,0.0,0.0,0.0,0.0,0.0,0.0,0.0,0.0,0.0
1606991398197558414,4360627,1606987796296180256,imu_link,0.0034268111921846867,0.0047199903056025505,0.4460051655769348,0.8950113654136658,0.0,0.0,0.0,0.0,0.0,0.0,0.0,0.0,0.0,52.977901458740234,0.30894824862480164,0.5927067995071411,0.0,0.0,0.0,0.0,0.0,0.0,0.0,0.0,0.0,-0.01208210363984108,0.004989121109247208,0.025909822434186935,0.0,0.0,0.0,0.0,0.0,0.0,0.0,0.0,0.0
1606991398197571820,4360628,1606987796296217774,imu_link,0.0034268111921846867,0.0047199903056025505,0.4460051655769348,0.8950113654136658,0.0,0.0,0.0,0.0,0.0,0.0,0.0,0.0,0.0,52.977901458740234,0.30894824862480164,0.5927067995071411,0.0,0.0,0.0,0.0,0.0,0.0,0.0,0.0,0.0,-0.01208210363984108,0.004989121109247208,0.025909822434186935,0.0,0.0,0.0,0.0,0.0,0.0,0.0,0.0,0.0
1606991398197581337,4360629,1606987796296254578,imu_link,0.00342783541418612,0.004718143027275801,0.4460090696811676,0.8950095176696777,0.0,0.0,0.0,0.0,0.0,0.0,0.0,0.0,0.0,52.978397369384766,0.3087039291858673,0.5927186608314514,0.0,0.0,0.0,0.0,0.0,0.0,0.0,0.0,0.0,-0.013904614374041557,-0.0040696486830711365,0.04709239304065704,0.0,0.0,0.0,0.0,0.0,0.0,0.0,0.0,0.0
1606991398213315697,4360630,1606987796296290897,imu_link,0.00342783541418612,0.004718143027275801,0.4460090696811676,0.8950095176696777,0.0,0.0,0.0,0.0,0.0,0.0,0.0,0.0,0.0,52.978397369384766,0.3087039291858673,0.5927186608314514,0.0,0.0,0.0,0.0,0.0,0.0,0.0,0.0,0.0,-0.013904614374041557,-0.0040696486830711365,0.04709239304065704,0.0,0.0,0.0,0.0,0.0,0.0,0.0,0.0,0.0
1606991398213344885,4360631,1606987796309374512,imu_link,0.003427810501307249,0.004718237556517124,0.4460074305534363,0.8950102925300598,0.0,0.0,0.0,0.0,0.0,0.0,0.0,0.0,0.0,52.97818374633789,0.3087159991264343,0.5927204489707947,0.0,0.0,0.0,0.0,0.0,0.0,0.0,0.0,0.0,0.00886722095310688,-0.02225472964346409,0.05850951746106148,0.0,0.0,0.0,0.0,0.0,0.0,0.0,0.0,0.0
1606991398213356226,4360632,1606987796309481800,imu_link,0.003427810501307249,0.004718237556517124,0.4460074305534363,0.8950102925300598,0.0,0.0,0.0,0.0,0.0,0.0,0.0,0.0,0.0,52.97818374633789,0.3087159991264343,0.5927204489707947,0.0,0.0,0.0,0.0,0.0,0.0,0.0,0.0,0.0,0.00886722095310688,-0.02225472964346409,0.05850951746106148,0.0,0.0,0.0,0.0,0.0,0.0,0.0,0.0,0.0
1606991398213366003,4360633,1606987796309555304,imu_link,0.0034301327541470528,0.004721983335912228,0.44601282477378845,0.8950076103210449,0.0,0.0,0.0,0.0,0.0,0.0,0.0,0.0,0.0,52.9788818359375,0.3089779019355774,0.5931519269943237,0.0,0.0,0.0,0.0,0.0,0.0,0.0,0.0,0.0,0.020347382873296738,-0.019803855568170547,0.057424671947956085,0.0,0.0,0.0,0.0,0.0,0.0,0.0,0.0,0.0
1606991398217996317,4360634,1606987796309627076,imu_link,0.0034301327541470528,0.004721983335912228,0.44601282477378845,0.8950076103210449,0.0,0.0,0.0,0.0,0.0,0.0,0.0,0.0,0.0,52.9788818359375,0.3089779019355774,0.5931519269943237,0.0,0.0,0.0,0.0,0.0,0.0,0.0,0.0,0.0,0.020347382873296738,-0.019803855568170547,0.057424671947956085,0.0,0.0,0.0,0.0,0.0,0.0,0.0,0.0,0.0
1606991398218044619,4360635,1606987796309695603,imu_link,0.003431219607591629,0.004719852469861507,0.4460129141807556,0.8950075507164001,0.0,0.0,0.0,0.0,0.0,0.0,0.0,0.0,0.0,52.97888946533203,0.3087037205696106,0.5931544899940491,0.0,0.0,0.0,0.0,0.0,0.0,0.0,0.0,0.0,0.004084323532879353,-0.00474733067676425,0.06362167000770569,0.0,0.0,0.0,0.0,0.0,0.0,0.0,0.0,0.0
1606991398218074398,4360636,1606987796309761991,imu_link,0.003431219607591629,0.004719852469861507,0.4460129141807556,0.8950075507164001,0.0,0.0,0.0,0.0,0.0,0.0,0.0,0.0,0.0,52.97888946533203,0.3087037205696106,0.5931544899940491,0.0,0.0,0.0,0.0,0.0,0.0,0.0,0.0,0.0,0.004084323532879353,-0.00474733067676425,0.06362167000770569,0.0,0.0,0.0,0.0,0.0,0.0,0.0,0.0,0.0
1606991398218102319,4360637,1606987796309841996,imu_link,0.003430092241615057,0.004720170050859451,0.44601625204086304,0.8950058817863464,0.0,0.0,0.0,0.0,0.0,0.0,0.0,0.0,0.0,52.97931671142578,0.3087916970252991,0.5930562615394592,0.0,0.0,0.0,0.0,0.0,0.0,0.0,0.0,0.0,-0.007618854753673077,-0.012138597667217255,0.05207768455147743,0.0,0.0,0.0,0.0,0.0,0.0,0.0,0.0,0.0
1606991398218129495,4360638,1606987796309910148,imu_link,0.003430092241615057,0.004720170050859451,0.44601625204086304,0.8950058817863464,0.0,0.0,0.0,0.0,0.0,0.0,0.0,0.0,0.0,52.97931671142578,0.3087916970252991,0.5930562615394592,0.0,0.0,0.0,0.0,0.0,0.0,0.0,0.0,0.0,-0.007618854753673077,-0.012138597667217255,0.05207768455147743,0.0,0.0,0.0,0.0,0.0,0.0,0.0,0.0,0.0
1606991398287687483,4360639,1606987796309975422,imu_link,0.003430267795920372,0.004721030127257109,0.44601553678512573,0.8950062394142151,0.0,0.0,0.0,0.0,0.0,0.0,0.0,0.0,0.0,52.979225158691406,0.30887141823768616,0.5931179523468018,0.0,0.0,0.0,0.0,0.0,0.0,0.0,0.0,0.0,-0.00795380026102066,-0.022390788421034813,0.03577292710542679,0.0,0.0,0.0,0.0,0.0,0.0,0.0,0.0,0.0
1606991398287733660,4360640,1606987796310041026,imu_link,0.003430267795920372,0.004721030127257109,0.44601553678512573,0.8950062394142151,0.0,0.0,0.0,0.0,0.0,0.0,0.0,0.0,0.0,52.979225158691406,0.30887141823768616,0.5931179523468018,0.0,0.0,0.0,0.0,0.0,0.0,0.0,0.0,0.0,-0.00795380026102066,-0.022390788421034813,0.03577292710542679,0.0,0.0,0.0,0.0,0.0,0.0,0.0,0.0,0.0
1606991398287759543,4360641,1606987796310105294,imu_link,0.0034341078717261553,0.0047233086079359055,0.44601932168006897,0.8950042128562927,0.0,0.0,0.0,0.0,0.0,0.0,0.0,0.0,0.0,52.97971725463867,0.3089062571525574,0.5936296582221985,0.0,0.0,0.0,0.0,0.0,0.0,0.0,0.0,0.0,-0.009692493826150894,-0.01516733318567276,0.0505576990544796,0.0,0.0,0.0,0.0,0.0,0.0,0.0,0.0,0.0
1606991398287775195,4360642,1606987796323213668,imu_link,0.0034341078717261553,0.0047233086079359055,0.44601932168006897,0.8950042128562927,0.0,0.0,0.0,0.0,0.0,0.0,0.0,0.0,0.0,52.97971725463867,0.3089062571525574,0.5936296582221985,0.0,0.0,0.0,0.0,0.0,0.0,0.0,0.0,0.0,-0.009692493826150894,-0.01516733318567276,0.0505576990544796,0.0,0.0,0.0,0.0,0.0,0.0,0.0,0.0,0.0
1606991398297201440,4360643,1606987796323324866,imu_link,0.0034341432619839907,0.004720847122371197,0.44602063298225403,0.8950036764144897,0.0,0.0,0.0,0.0,0.0,0.0,0.0,0.0,0.0,52.979881286621094,0.3086511492729187,0.5935078263282776,0.0,0.0,0.0,0.0,0.0,0.0,0.0,0.0,0.0,-0.0068144043907523155,-0.005260893609374762,0.07452771812677383,0.0,0.0,0.0,0.0,0.0,0.0,0.0,0.0,0.0
1606991398297242571,4360644,1606987796323399621,imu_link,0.0034341432619839907,0.004720847122371197,0.44602063298225403,0.8950036764144897,0.0,0.0,0.0,0.0,0.0,0.0,0.0,0.0,0.0,52.979881286621094,0.3086511492729187,0.5935078263282776,0.0,0.0,0.0,0.0,0.0,0.0,0.0,0.0,0.0,-0.0068144043907523155,-0.005260893609374762,0.07452771812677383,0.0,0.0,0.0,0.0,0.0,0.0,0.0,0.0,0.0
1606991398297260511,4360645,1606987796323470465,imu_link,0.0034370345529168844,0.004719064570963383,0.4460225999355316,0.8950027227401733,0.0,0.0,0.0,0.0,0.0,0.0,0.0,0.0,0.0,52.98012924194336,0.3083193004131317,0.5937139391899109,0.0,0.0,0.0,0.0,0.0,0.0,0.0,0.0,0.0,-0.008052169345319271,0.0018678295891731977,0.10048338025808334,0.0,0.0,0.0,0.0,0.0,0.0,0.0,0.0,0.0
1606991398297316918,4360646,1606987796323537475,imu_link,0.0034370345529168844,0.004719064570963383,0.4460225999355316,0.8950027227401733,0.0,0.0,0.0,0.0,0.0,0.0,0.0,0.0,0.0,52.98012924194336,0.3083193004131317,0.5937139391899109,0.0,0.0,0.0,0.0,0.0,0.0,0.0,0.0,0.0,-0.008052169345319271,0.0018678295891731977,0.10048338025808334,0.0,0.0,0.0,0.0,0.0,0.0,0.0,0.0,0.0
1606991398297331570,4360647,1606987796323605083,imu_link,0.0034388178028166294,0.004720418713986874,0.4460224509239197,0.8950027823448181,0.0,0.0,0.0,0.0,0.0,0.0,0.0,0.0,0.0,52.9801139831543,0.30836713314056396,0.5939659476280212,0.0,0.0,0.0,0.0,0.0,0.0,0.0,0.0,0.0,-0.007280117832124233,0.019871773198246956,0.07823039591312408,0.0,0.0,0.0,0.0,0.0,0.0,0.0,0.0,0.0
1606991398348503862,4360648,1606987796323687044,imu_link,0.0034388178028166294,0.004720418713986874,0.4460224509239197,0.8950027823448181,0.0,0.0,0.0,0.0,0.0,0.0,0.0,0.0,0.0,52.9801139831543,0.30836713314056396,0.5939659476280212,0.0,0.0,0.0,0.0,0.0,0.0,0.0,0.0,0.0,-0.007280117832124233,0.019871773198246956,0.07823039591312408,0.0,0.0,0.0,0.0,0.0,0.0,0.0,0.0,0.0
1606991398348564517,4360649,1606987796323755325,imu_link,0.0034344131126999855,0.004718288313597441,0.44602590799331665,0.8950010538101196,0.0,0.0,0.0,0.0,0.0,0.0,0.0,0.0,0.0,52.980560302734375,0.30837148427963257,0.5934065580368042,0.0,0.0,0.0,0.0,0.0,0.0,0.0,0.0,0.0,0.004781403578817844,0.006812224630266428,0.054886747151613235,0.0,0.0,0.0,0.0,0.0,0.0,0.0,0.0,0.0
1606991398348589811,4360650,1606987796323821584,imu_link,0.0034344131126999855,0.004718288313597441,0.44602590799331665,0.8950010538101196,0.0,0.0,0.0,0.0,0.0,0.0,0.0,0.0,0.0,52.980560302734375,0.30837148427963257,0.5934065580368042,0.0,0.0,0.0,0.0,0.0,0.0,0.0,0.0,0.0,0.004781403578817844,0.006812224630266428,0.054886747151613235,0.0,0.0,0.0,0.0,0.0,0.0,0.0,0.0,0.0
1606991398348608291,4360651,1606987796323885835,imu_link,0.0034365577157586813,0.004718307871371508,0.44602543115615845,0.8950012922286987,0.0,0.0,0.0,0.0,0.0,0.0,0.0,0.0,0.0,52.980491638183594,0.30826419591903687,0.5936273336410522,0.0,0.0,0.0,0.0,0.0,0.0,0.0,0.0,0.0,0.0011483175912871957,0.004670881666243076,0.05593179166316986,0.0,0.0,0.0,0.0,0.0,0.0,0.0,0.0,0.0
1606991398353201488,4360652,1606987796323949689,imu_link,0.0034365577157586813,0.004718307871371508,0.44602543115615845,0.8950012922286987,0.0,0.0,0.0,0.0,0.0,0.0,0.0,0.0,0.0,52.980491638183594,0.30826419591903687,0.5936273336410522,0.0,0.0,0.0,0.0,0.0,0.0,0.0,0.0,0.0,0.0011483175912871957,0.004670881666243076,0.05593179166316986,0.0,0.0,0.0,0.0,0.0,0.0,0.0,0.0,0.0
1606991398353269241,4360653,1606987796336686632,imu_link,0.0034348161425441504,0.0047198194079101086,0.44602856040000916,0.8949997425079346,0.0,0.0,0.0,0.0,0.0,0.0,0.0,0.0,0.0,52.980892181396484,0.3085061311721802,0.59352707862854,0.0,0.0,0.0,0.0,0.0,0.0,0.0,0.0,0.0,0.0031987158581614494,0.017583854496479034,0.048783835023641586,0.0,0.0,0.0,0.0,0.0,0.0,0.0,0.0,0.0
1606991398353328240,4360654,1606987796336809860,imu_link,0.0034348161425441504,0.0047198194079101086,0.44602856040000916,0.8949997425079346,0.0,0.0,0.0,0.0,0.0,0.0,0.0,0.0,0.0,52.980892181396484,0.3085061311721802,0.59352707862854,0.0,0.0,0.0,0.0,0.0,0.0,0.0,0.0,0.0,0.0031987158581614494,0.017583854496479034,0.048783835023641586,0.0,0.0,0.0,0.0,0.0,0.0,0.0,0.0,0.0
1606991398353403481,4360655,1606987796336898148,imu_link,0.0034327602479606867,0.0047195060178637505,0.44602763652801514,0.8950002193450928,0.0,0.0,0.0,0.0,0.0,0.0,0.0,0.0,0.0,52.98077392578125,0.3085797131061554,0.5932998657226562,0.0,0.0,0.0,0.0,0.0,0.0,0.0,0.0,0.0,0.006329812575131655,0.008584271185100079,0.06734786927700043,0.0,0.0,0.0,0.0,0.0,0.0,0.0,0.0,0.0
1606991398353443265,4360656,1606987796336977087,imu_link,0.0034327602479606867,0.0047195060178637505,0.44602763652801514,0.8950002193450928,0.0,0.0,0.0,0.0,0.0,0.0,0.0,0.0,0.0,52.98077392578125,0.3085797131061554,0.5932998657226562,0.0,0.0,0.0,0.0,0.0,0.0,0.0,0.0,0.0,0.006329812575131655,0.008584271185100079,0.06734786927700043,0.0,0.0,0.0,0.0,0.0,0.0,0.0,0.0,0.0
1606991398416674739,4360657,1606987796337055265,imu_link,0.003431707853451371,0.004720120225101709,0.44602835178375244,0.8949998617172241,0.0,0.0,0.0,0.0,0.0,0.0,0.0,0.0,0.0,52.980865478515625,0.30869603157043457,0.5932236313819885,0.0,0.0,0.0,0.0,0.0,0.0,0.0,0.0,0.0,-0.0006754513015039265,0.006936798803508282,0.07037153840065002,0.0,0.0,0.0,0.0,0.0,0.0,0.0,0.0,0.0
1606991398416706888,4360658,1606987796337133559,imu_link,0.003431707853451371,0.004720120225101709,0.44602835178375244,0.8949998617172241,0.0,0.0,0.0,0.0,0.0,0.0,0.0,0.0,0.0,52.980865478515625,0.30869603157043457,0.5932236313819885,0.0,0.0,0.0,0.0,0.0,0.0,0.0,0.0,0.0,-0.0006754513015039265,0.006936798803508282,0.07037153840065002,0.0,0.0,0.0,0.0,0.0,0.0,0.0,0.0,0.0
1606991398416722393,4360659,1606987796337223815,imu_link,0.0034333840012550354,0.0047207544557750225,0.4460268020629883,0.8950005173683167,0.0,0.0,0.0,0.0,0.0,0.0,0.0,0.0,0.0,52.980674743652344,0.3086763620376587,0.5934274792671204,0.0,0.0,0.0,0.0,0.0,0.0,0.0,0.0,0.0,0.013549622148275375,0.011580484919250011,0.07180491089820862,0.0,0.0,0.0,0.0,0.0,0.0,0.0,0.0,0.0
1606991398416730498,4360660,1606987796337303934,imu_link,0.0034333840012550354,0.0047207544557750225,0.4460268020629883,0.8950005173683167,0.0,0.0,0.0,0.0,0.0,0.0,0.0,0.0,0.0,52.980674743652344,0.3086763620376587,0.5934274792671204,0.0,0.0,0.0,0.0,0.0,0.0,0.0,0.0,0.0,0.013549622148275375,0.011580484919250011,0.07180491089820862,0.0,0.0,0.0,0.0,0.0,0.0,0.0,0.0,0.0
1606991398423394116,4360661,1606987796337378897,imu_link,0.0034324731677770615,0.004722393583506346,0.44603052735328674,0.8949987888336182,0.0,0.0,0.0,0.0,0.0,0.0,0.0,0.0,0.0,52.98114776611328,0.30888861417770386,0.5934189558029175,0.0,0.0,0.0,0.0,0.0,0.0,0.0,0.0,0.0,0.026394762098789215,0.007147323805838823,0.08488337695598602,0.0,0.0,0.0,0.0,0.0,0.0,0.0,0.0,0.0
1606991398423425094,4360662,1606987796337454866,imu_link,0.0034324731677770615,0.004722393583506346,0.44603052735328674,0.8949987888336182,0.0,0.0,0.0,0.0,0.0,0.0,0.0,0.0,0.0,52.98114776611328,0.30888861417770386,0.5934189558029175,0.0,0.0,0.0,0.0,0.0,0.0,0.0,0.0,0.0,0.026394762098789215,0.007147323805838823,0.08488337695598602,0.0,0.0,0.0,0.0,0.0,0.0,0.0,0.0,0.0
1606991398423444643,4360663,1606987796337528988,imu_link,0.0034337174147367477,0.004720672965049744,0.44603100419044495,0.8949984312057495,0.0,0.0,0.0,0.0,0.0,0.0,0.0,0.0,0.0,52.9812126159668,0.30864813923835754,0.5934589505195618,0.0,0.0,0.0,0.0,0.0,0.0,0.0,0.0,0.0,0.011837872676551342,-0.004834164399653673,0.05691283568739891,0.0,0.0,0.0,0.0,0.0,0.0,0.0,0.0,0.0
1606991398423462167,4360664,1606987796350592845,imu_link,0.0034337174147367477,0.004720672965049744,0.44603100419044495,0.8949984312057495,0.0,0.0,0.0,0.0,0.0,0.0,0.0,0.0,0.0,52.9812126159668,0.30864813923835754,0.5934589505195618,0.0,0.0,0.0,0.0,0.0,0.0,0.0,0.0,0.0,0.011837872676551342,-0.004834164399653673,0.05691283568739891,0.0,0.0,0.0,0.0,0.0,0.0,0.0,0.0,0.0
1606991398423492921,4360665,1606987796350715586,imu_link,0.0034337681718170643,0.0047229896299541,0.4460330307483673,0.8949974775314331,0.0,0.0,0.0,0.0,0.0,0.0,0.0,0.0,0.0,52.981468200683594,0.30888184905052185,0.5935832262039185,0.0,0.0,0.0,0.0,0.0,0.0,0.0,0.0,0.0,-0.00945367757230997,-0.00903296284377575,0.03272058814764023,0.0,0.0,0.0,0.0,0.0,0.0,0.0,0.0,0.0
1606991398446587493,4360666,1606987796350799212,imu_link,0.0034337681718170643,0.0047229896299541,0.4460330307483673,0.8949974775314331,0.0,0.0,0.0,0.0,0.0,0.0,0.0,0.0,0.0,52.981468200683594,0.30888184905052185,0.5935832262039185,0.0,0.0,0.0,0.0,0.0,0.0,0.0,0.0,0.0,-0.00945367757230997,-0.00903296284377575,0.03272058814764023,0.0,0.0,0.0,0.0,0.0,0.0,0.0,0.0,0.0
1606991398446615345,4360667,1606987796350875225,imu_link,0.0034333220683038235,0.004722146317362785,0.4460313618183136,0.89499831199646,0.0,0.0,0.0,0.0,0.0,0.0,0.0,0.0,0.0,52.98125457763672,0.3088192641735077,0.5934937596321106,0.0,0.0,0.0,0.0,0.0,0.0,0.0,0.0,0.0,0.007306568790227175,-0.0035760586615651846,0.060573071241378784,0.0,0.0,0.0,0.0,0.0,0.0,0.0,0.0,0.0
1606991398446654692,4360668,1606987796350992176,imu_link,0.0034333220683038235,0.004722146317362785,0.4460313618183136,0.89499831199646,0.0,0.0,0.0,0.0,0.0,0.0,0.0,0.0,0.0,52.98125457763672,0.3088192641735077,0.5934937596321106,0.0,0.0,0.0,0.0,0.0,0.0,0.0,0.0,0.0,0.007306568790227175,-0.0035760586615651846,0.060573071241378784,0.0,0.0,0.0,0.0,0.0,0.0,0.0,0.0,0.0
1606991398446674925,4360669,1606987796351097493,imu_link,0.003433562582358718,0.0047233132645487785,0.4460347890853882,0.8949965834617615,0.0,0.0,0.0,0.0,0.0,0.0,0.0,0.0,0.0,52.98169708251953,0.3089243769645691,0.5935792922973633,0.0,0.0,0.0,0.0,0.0,0.0,0.0,0.0,0.0,0.015359134413301945,0.0013101224321871996,0.08718857169151306,0.0,0.0,0.0,0.0,0.0,0.0,0.0,0.0,0.0
1606991398453416293,4360670,1606987796351177080,imu_link,0.003433562582358718,0.0047233132645487785,0.4460347890853882,0.8949965834617615,0.0,0.0,0.0,0.0,0.0,0.0,0.0,0.0,0.0,52.98169708251953,0.3089243769645691,0.5935792922973633,0.0,0.0,0.0,0.0,0.0,0.0,0.0,0.0,0.0,0.015359134413301945,0.0013101224321871996,0.08718857169151306,0.0,0.0,0.0,0.0,0.0,0.0,0.0,0.0,0.0
1606991398453450071,4360671,1606987796351259006,imu_link,0.003434918588027358,0.004722423851490021,0.4460350573062897,0.8949964642524719,0.0,0.0,0.0,0.0,0.0,0.0,0.0,0.0,0.0,52.98173141479492,0.308763712644577,0.5936729907989502,0.0,0.0,0.0,0.0,0.0,0.0,0.0,0.0,0.0,-0.007367439568042755,0.008949819020926952,0.06888967007398605,0.0,0.0,0.0,0.0,0.0,0.0,0.0,0.0,0.0
1606991398453497545,4360672,1606987796351338263,imu_link,0.003434918588027358,0.004722423851490021,0.4460350573062897,0.8949964642524719,0.0,0.0,0.0,0.0,0.0,0.0,0.0,0.0,0.0,52.98173141479492,0.308763712644577,0.5936729907989502,0.0,0.0,0.0,0.0,0.0,0.0,0.0,0.0,0.0,-0.007367439568042755,0.008949819020926952,0.06888967007398605,0.0,0.0,0.0,0.0,0.0,0.0,0.0,0.0,0.0
1606991398453520120,4360673,1606987796351412863,imu_link,0.0034351893700659275,0.004719262942671776,0.4460369348526001,0.8949955701828003,0.0,0.0,0.0,0.0,0.0,0.0,0.0,0.0,0.0,52.981971740722656,0.3084244430065155,0.5935397744178772,0.0,0.0,0.0,0.0,0.0,0.0,0.0,0.0,0.0,-0.016922825947403908,0.02301868051290512,0.04936597868800163,0.0,0.0,0.0,0.0,0.0,0.0,0.0,0.0,0.0
1606991398453555722,4360674,1606987796351496710,imu_link,0.0034351893700659275,0.004719262942671776,0.4460369348526001,0.8949955701828003,0.0,0.0,0.0,0.0,0.0,0.0,0.0,0.0,0.0,52.981971740722656,0.3084244430065155,0.5935397744178772,0.0,0.0,0.0,0.0,0.0,0.0,0.0,0.0,0.0,-0.016922825947403908,0.02301868051290512,0.04936597868800163,0.0,0.0,0.0,0.0,0.0,0.0,0.0,0.0,0.0
1606991398519245399,4360675,1606987796363541572,imu_link,0.0034368063788861036,0.0047184922732412815,0.4460342526435852,0.8949968814849854,0.0,0.0,0.0,0.0,0.0,0.0,0.0,0.0,0.0,52.98162078857422,0.30826452374458313,0.593665361404419,0.0,0.0,0.0,0.0,0.0,0.0,0.0,0.0,0.0,-0.008490701206028461,0.017076311632990837,0.0662425234913826,0.0,0.0,0.0,0.0,0.0,0.0,0.0,0.0,0.0
1606991398519270981,4360676,1606987796363673040,imu_link,0.0034368063788861036,0.0047184922732412815,0.4460342526435852,0.8949968814849854,0.0,0.0,0.0,0.0,0.0,0.0,0.0,0.0,0.0,52.98162078857422,0.30826452374458313,0.593665361404419,0.0,0.0,0.0,0.0,0.0,0.0,0.0,0.0,0.0,-0.008490701206028461,0.017076311632990837,0.0662425234913826,0.0,0.0,0.0,0.0,0.0,0.0,0.0,0.0,0.0
1606991398519306228,4360677,1606987796363757699,imu_link,0.0034351511858403683,0.00471538444980979,0.4460272192955017,0.8950003981590271,0.0,0.0,0.0,0.0,0.0,0.0,0.0,0.0,0.0,52.9807243347168,0.3080350458621979,0.5933343172073364,0.0,0.0,0.0,0.0,0.0,0.0,0.0,0.0,0.0,-0.004212324507534504,0.006809035781770945,0.06480879336595535,0.0,0.0,0.0,0.0,0.0,0.0,0.0,0.0,0.0
1606991398519316554,4360678,1606987796363837634,imu_link,0.0034351511858403683,0.00471538444980979,0.4460272192955017,0.8950003981590271,0.0,0.0,0.0,0.0,0.0,0.0,0.0,0.0,0.0,52.9807243347168,0.3080350458621979,0.5933343172073364,0.0,0.0,0.0,0.0,0.0,0.0,0.0,0.0,0.0,-0.004212324507534504,0.006809035781770945,0.06480879336595535,0.0,0.0,0.0,0.0,0.0,0.0,0.0,0.0,0.0
1606991398524558328,4360679,1606987796363919617,imu_link,0.0034330643247812986,0.004717541392892599,0.4460282325744629,0.8949999213218689,0.0,0.0,0.0,0.0,0.0,0.0,0.0,0.0,0.0,52.98085021972656,0.30836230516433716,0.5932308435440063,0.0,0.0,0.0,0.0,0.0,0.0,0.0,0.0,0.0,-0.00719345873221755,0.002332547213882208,0.03702709823846817,0.0,0.0,0.0,0.0,0.0,0.0,0.0,0.0,0.0
1606991398524583889,4360680,1606987796364021382,imu_link,0.0034330643247812986,0.004717541392892599,0.4460282325744629,0.8949999213218689,0.0,0.0,0.0,0.0,0.0,0.0,0.0,0.0,0.0,52.98085021972656,0.30836230516433716,0.5932308435440063,0.0,0.0,0.0,0.0,0.0,0.0,0.0,0.0,0.0,-0.00719345873221755,0.002332547213882208,0.03702709823846817,0.0,0.0,0.0,0.0,0.0,0.0,0.0,0.0,0.0
1606991398524599020,4360681,1606987796364102183,imu_link,0.00343256420455873,0.004717732779681683,0.44602230191230774,0.8950029015541077,0.0,0.0,0.0,0.0,0.0,0.0,0.0,0.0,0.0,52.9800910949707,0.3084114193916321,0.5931872725486755,0.0,0.0,0.0,0.0,0.0,0.0,0.0,0.0,0.0,-0.010772730223834515,0.01191205158829689,0.04758385568857193,0.0,0.0,0.0,0.0,0.0,0.0,0.0,0.0,0.0
1606991398524646716,4360682,1606987796364180768,imu_link,0.00343256420455873,0.004717732779681683,0.44602230191230774,0.8950029015541077,0.0,0.0,0.0,0.0,0.0,0.0,0.0,0.0,0.0,52.9800910949707,0.3084114193916321,0.5931872725486755,0.0,0.0,0.0,0.0,0.0,0.0,0.0,0.0,0.0,-0.010772730223834515,0.01191205158829689,0.04758385568857193,0.0,0.0,0.0,0.0,0.0,0.0,0.0,0.0,0.0
1606991398524676138,4360683,1606987796364257038,imu_link,0.003431344870477915,0.004717210307717323,0.4460243880748749,0.8950018286705017,0.0,0.0,0.0,0.0,0.0,0.0,0.0,0.0,0.0,52.98036193847656,0.30841878056526184,0.5930362939834595,0.0,0.0,0.0,0.0,0.0,0.0,0.0,0.0,0.0,-0.014849413186311722,0.004989298060536385,0.06115570291876793,0.0,0.0,0.0,0.0,0.0,0.0,0.0,0.0,0.0
1606991398542049488,4360684,1606987796364333201,imu_link,0.003431344870477915,0.004717210307717323,0.4460243880748749,0.8950018286705017,0.0,0.0,0.0,0.0,0.0,0.0,0.0,0.0,0.0,52.98036193847656,0.30841878056526184,0.5930362939834595,0.0,0.0,0.0,0.0,0.0,0.0,0.0,0.0,0.0,-0.014849413186311722,0.004989298060536385,0.06115570291876793,0.0,0.0,0.0,0.0,0.0,0.0,0.0,0.0,0.0
1606991398542078408,4360685,1606987796373231631,imu_link,0.0034314075019210577,0.004714746959507465,0.4460242986679077,0.8950018882751465,0.0,0.0,0.0,0.0,0.0,0.0,0.0,0.0,0.0,52.980342864990234,0.30816295742988586,0.59291672706604,0.0,0.0,0.0,0.0,0.0,0.0,0.0,0.0,0.0,-0.0032730877865105867,-0.01603640988469124,0.07163301110267639,0.0,0.0,0.0,0.0,0.0,0.0,0.0,0.0,0.0
1606991398542092539,4360686,1606987796373321195,imu_link,0.0034314075019210577,0.004714746959507465,0.4460242986679077,0.8950018882751465,0.0,0.0,0.0,0.0,0.0,0.0,0.0,0.0,0.0,52.980342864990234,0.30816295742988586,0.59291672706604,0.0,0.0,0.0,0.0,0.0,0.0,0.0,0.0,0.0,-0.0032730877865105867,-0.01603640988469124,0.07163301110267639,0.0,0.0,0.0,0.0,0.0,0.0,0.0,0.0,0.0
1606991398542116701,4360687,1606987796373396239,imu_link,0.003432240104302764,0.004714634735137224,0.44602370262145996,0.8950021862983704,0.0,0.0,0.0,0.0,0.0,0.0,0.0,0.0,0.0,52.98026657104492,0.3081092834472656,0.5929961204528809,0.0,0.0,0.0,0.0,0.0,0.0,0.0,0.0,0.0,0.011700541712343693,-0.0035597956739366055,0.06076902896165848,0.0,0.0,0.0,0.0,0.0,0.0,0.0,0.0,0.0
1606991398556610377,4360688,1606987796373468797,imu_link,0.003432240104302764,0.004714634735137224,0.44602370262145996,0.8950021862983704,0.0,0.0,0.0,0.0,0.0,0.0,0.0,0.0,0.0,52.98026657104492,0.3081092834472656,0.5929961204528809,0.0,0.0,0.0,0.0,0.0,0.0,0.0,0.0,0.0,0.011700541712343693,-0.0035597956739366055,0.06076902896165848,0.0,0.0,0.0,0.0,0.0,0.0,0.0,0.0,0.0
1606991398556635078,4360689,1606987796373541589,imu_link,0.0034318382386118174,0.004716022871434689,0.4460207521915436,0.8950036764144897,0.0,0.0,0.0,0.0,0.0,0.0,0.0,0.0,0.0,52.979888916015625,0.30827417969703674,0.5930248498916626,0.0,0.0,0.0,0.0,0.0,0.0,0.0,0.0,0.0,0.006807310506701469,0.009677068330347538,0.041034042835235596,0.0,0.0,0.0,0.0,0.0,0.0,0.0,0.0,0.0
1606991398556678089,4360690,1606987796373615075,imu_link,0.0034318382386118174,0.004716022871434689,0.4460207521915436,0.8950036764144897,0.0,0.0,0.0,0.0,0.0,0.0,0.0,0.0,0.0,52.979888916015625,0.30827417969703674,0.5930248498916626,0.0,0.0,0.0,0.0,0.0,0.0,0.0,0.0,0.0,0.006807310506701469,0.009677068330347538,0.041034042835235596,0.0,0.0,0.0,0.0,0.0,0.0,0.0,0.0,0.0
1606991398556687259,4360691,1606987796373700159,imu_link,0.0034307939931750298,0.004716950934380293,0.4460192918777466,0.895004391670227,0.0,0.0,0.0,0.0,0.0,0.0,0.0,0.0,0.0,52.979705810546875,0.3084236979484558,0.5929647088050842,0.0,0.0,0.0,0.0,0.0,0.0,0.0,0.0,0.0,0.0030017427634447813,0.014423320069909096,0.04097972437739372,0.0,0.0,0.0,0.0,0.0,0.0,0.0,0.0,0.0
1606991398556698015,4360692,1606987796373884940,imu_link,0.0034307939931750298,0.004716950934380293,0.4460192918777466,0.895004391670227,0.0,0.0,0.0,0.0,0.0,0.0,0.0,0.0,0.0,52.979705810546875,0.3084236979484558,0.5929647088050842,0.0,0.0,0.0,0.0,0.0,0.0,0.0,0.0,0.0,0.0030017427634447813,0.014423320069909096,0.04097972437739372,0.0,0.0,0.0,0.0,0.0,0.0,0.0,0.0,0.0
1606991398597841377,4360693,1606987796386769894,imu_link,0.0034298906102776527,0.004716252908110619,0.44601520895957947,0.8950064778327942,0.0,0.0,0.0,0.0,0.0,0.0,0.0,0.0,0.0,52.97917938232422,0.3084010183811188,0.592835009098053,0.0,0.0,0.0,0.0,0.0,0.0,0.0,0.0,0.0,0.009451461024582386,0.0003234038013033569,0.043989162892103195,0.0,0.0,0.0,0.0,0.0,0.0,0.0,0.0,0.0
1606991398597877693,4360694,1606987796386911301,imu_link,0.0034298906102776527,0.004716252908110619,0.44601520895957947,0.8950064778327942,0.0,0.0,0.0,0.0,0.0,0.0,0.0,0.0,0.0,52.97917938232422,0.3084010183811188,0.592835009098053,0.0,0.0,0.0,0.0,0.0,0.0,0.0,0.0,0.0,0.009451461024582386,0.0003234038013033569,0.043989162892103195,0.0,0.0,0.0,0.0,0.0,0.0,0.0,0.0,0.0
1606991398597882643,4360695,1606987796387068340,imu_link,0.00342928571626544,0.004716403782367706,0.4460177719593048,0.8950051665306091,0.0,0.0,0.0,0.0,0.0,0.0,0.0,0.0,0.0,52.97951126098633,0.30844566226005554,0.5927815437316895,0.0,0.0,0.0,0.0,0.0,0.0,0.0,0.0,0.0,-0.004614043980836868,0.0005491508054547012,0.0670946016907692,0.0,0.0,0.0,0.0,0.0,0.0,0.0,0.0,0.0
1606991398597905513,4360696,1606987796387166948,imu_link,0.00342928571626544,0.004716403782367706,0.4460177719593048,0.8950051665306091,0.0,0.0,0.0,0.0,0.0,0.0,0.0,0.0,0.0,52.97951126098633,0.30844566226005554,0.5927815437316895,0.0,0.0,0.0,0.0,0.0,0.0,0.0,0.0,0.0,-0.004614043980836868,0.0005491508054547012,0.0670946016907692,0.0,0.0,0.0,0.0,0.0,0.0,0.0,0.0,0.0
1606991398602147963,4360697,1606987796387258240,imu_link,0.003428665455430746,0.00471806013956666,0.4460139870643616,0.8950070142745972,0.0,0.0,0.0,0.0,0.0,0.0,0.0,0.0,0.0,52.97903060913086,0.30864977836608887,0.5928013920783997,0.0,0.0,0.0,0.0,0.0,0.0,0.0,0.0,0.0,-0.010808954946696758,0.0067208996042609215,0.07455668598413467,0.0,0.0,0.0,0.0,0.0,0.0,0.0,0.0,0.0
1606991398602163362,4360698,1606987796387347137,imu_link,0.003428665455430746,0.00471806013956666,0.4460139870643616,0.8950070142745972,0.0,0.0,0.0,0.0,0.0,0.0,0.0,0.0,0.0,52.97903060913086,0.30864977836608887,0.5928013920783997,0.0,0.0,0.0,0.0,0.0,0.0,0.0,0.0,0.0,-0.010808954946696758,0.0067208996042609215,0.07455668598413467,0.0,0.0,0.0,0.0,0.0,0.0,0.0,0.0,0.0
1606991398602187635,4360699,1606987796387448929,imu_link,0.0034292293712496758,0.004717562347650528,0.4460154175758362,0.8950062990188599,0.0,0.0,0.0,0.0,0.0,0.0,0.0,0.0,0.0,52.979209899902344,0.30856892466545105,0.5928341746330261,0.0,0.0,0.0,0.0,0.0,0.0,0.0,0.0,0.0,-0.001282030949369073,0.005321664735674858,0.05399501696228981,0.0,0.0,0.0,0.0,0.0,0.0,0.0,0.0,0.0
1606991398602244902,4360700,1606987796387536311,imu_link,0.0034292293712496758,0.004717562347650528,0.4460154175758362,0.8950062990188599,0.0,0.0,0.0,0.0,0.0,0.0,0.0,0.0,0.0,52.979209899902344,0.30856892466545105,0.5928341746330261,0.0,0.0,0.0,0.0,0.0,0.0,0.0,0.0,0.0,-0.001282030949369073,0.005321664735674858,0.05399501696228981,0.0,0.0,0.0,0.0,0.0,0.0,0.0,0.0,0.0
1606991398602254583,4360701,1606987796387621765,imu_link,0.003429020056501031,0.004716793540865183,0.44601693749427795,0.8950055837631226,0.0,0.0,0.0,0.0,0.0,0.0,0.0,0.0,0.0,52.97940444946289,0.3084997832775116,0.5927739143371582,0.0,0.0,0.0,0.0,0.0,0.0,0.0,0.0,0.0,0.001599023351445794,0.005767170339822769,0.05564064159989357,0.0,0.0,0.0,0.0,0.0,0.0,0.0,0.0,0.0
1606991398617859376,4360702,1606987796387707483,imu_link,0.003429020056501031,0.004716793540865183,0.44601693749427795,0.8950055837631226,0.0,0.0,0.0,0.0,0.0,0.0,0.0,0.0,0.0,52.97940444946289,0.3084997832775116,0.5927739143371582,0.0,0.0,0.0,0.0,0.0,0.0,0.0,0.0,0.0,0.001599023351445794,0.005767170339822769,0.05564064159989357,0.0,0.0,0.0,0.0,0.0,0.0,0.0,0.0,0.0
1606991398617893059,4360703,1606987796387791061,imu_link,0.0034295967780053616,0.004715230315923691,0.4460180103778839,0.8950050473213196,0.0,0.0,0.0,0.0,0.0,0.0,0.0,0.0,0.0,52.97954177856445,0.30830928683280945,0.592753529548645,0.0,0.0,0.0,0.0,0.0,0.0,0.0,0.0,0.0,0.003441444132477045,-0.01370290294289589,0.06339511275291443,0.0,0.0,0.0,0.0,0.0,0.0,0.0,0.0,0.0
1606991398617913586,4360704,1606987796400716275,imu_link,0.0034295967780053616,0.004715230315923691,0.4460180103778839,0.8950050473213196,0.0,0.0,0.0,0.0,0.0,0.0,0.0,0.0,0.0,52.97954177856445,0.30830928683280945,0.592753529548645,0.0,0.0,0.0,0.0,0.0,0.0,0.0,0.0,0.0,0.003441444132477045,-0.01370290294289589,0.06339511275291443,0.0,0.0,0.0,0.0,0.0,0.0,0.0,0.0,0.0
1606991398617930298,4360705,1606987796400865108,imu_link,0.003431708086282015,0.0047170184552669525,0.446021169424057,0.8950034379959106,0.0,0.0,0.0,0.0,0.0,0.0,0.0,0.0,0.0,52.979942321777344,0.30838263034820557,0.5930625200271606,0.0,0.0,0.0,0.0,0.0,0.0,0.0,0.0,0.0,0.018932655453681946,-0.015154445543885231,0.06554223597049713,0.0,0.0,0.0,0.0,0.0,0.0,0.0,0.0,0.0
1606991398642672477,4360706,1606987796400968619,imu_link,0.003431708086282015,0.0047170184552669525,0.446021169424057,0.8950034379959106,0.0,0.0,0.0,0.0,0.0,0.0,0.0,0.0,0.0,52.979942321777344,0.30838263034820557,0.5930625200271606,0.0,0.0,0.0,0.0,0.0,0.0,0.0,0.0,0.0,0.018932655453681946,-0.015154445543885231,0.06554223597049713,0.0,0.0,0.0,0.0,0.0,0.0,0.0,0.0,0.0
1606991398642699400,4360707,1606987796401065043,imu_link,0.0034304058644920588,0.004716961644589901,0.4460199773311615,0.8950040340423584,0.0,0.0,0.0,0.0,0.0,0.0,0.0,0.0,0.0,52.979793548583984,0.30844414234161377,0.5929257273674011,0.0,0.0,0.0,0.0,0.0,0.0,0.0,0.0,0.0,0.024450745433568954,-0.009535711258649826,0.0714021623134613,0.0,0.0,0.0,0.0,0.0,0.0,0.0,0.0,0.0
1606991398642708953,4360708,1606987796401161181,imu_link,0.0034304058644920588,0.004716961644589901,0.4460199773311615,0.8950040340423584,0.0,0.0,0.0,0.0,0.0,0.0,0.0,0.0,0.0,52.979793548583984,0.30844414234161377,0.5929257273674011,0.0,0.0,0.0,0.0,0.0,0.0,0.0,0.0,0.0,0.024450745433568954,-0.009535711258649826,0.0714021623134613,0.0,0.0,0.0,0.0,0.0,0.0,0.0,0.0,0.0
1606991398642717516,4360709,1606987796401276833,imu_link,0.003431148361414671,0.004720667377114296,0.4460216164588928,0.8950031995773315,0.0,0.0,0.0,0.0,0.0,0.0,0.0,0.0,0.0,52.980003356933594,0.3087851405143738,0.5931918025016785,0.0,0.0,0.0,0.0,0.0,0.0,0.0,0.0,0.0,0.017338735982775688,0.012620696797966957,0.060353562235832214,0.0,0.0,0.0,0.0,0.0,0.0,0.0,0.0,0.0
1606991398720826886,4360710,1606987796401376556,imu_link,0.003431148361414671,0.004720667377114296,0.4460216164588928,0.8950031995773315,0.0,0.0,0.0,0.0,0.0,0.0,0.0,0.0,0.0,52.980003356933594,0.3087851405143738,0.5931918025016785,0.0,0.0,0.0,0.0,0.0,0.0,0.0,0.0,0.0,0.017338735982775688,0.012620696797966957,0.060353562235832214,0.0,0.0,0.0,0.0,0.0,0.0,0.0,0.0,0.0
1606991398720879551,4360711,1606987796401470341,imu_link,0.0034317858517169952,0.004720826167613268,0.4460202157497406,0.8950038552284241,0.0,0.0,0.0,0.0,0.0,0.0,0.0,0.0,0.0,52.979827880859375,0.3087697923183441,0.5932648777961731,0.0,0.0,0.0,0.0,0.0,0.0,0.0,0.0,0.0,0.014520209282636642,0.02622080408036709,0.039030227810144424,0.0,0.0,0.0,0.0,0.0,0.0,0.0,0.0,0.0
1606991398720893334,4360712,1606987796401559567,imu_link,0.0034317858517169952,0.004720826167613268,0.4460202157497406,0.8950038552284241,0.0,0.0,0.0,0.0,0.0,0.0,0.0,0.0,0.0,52.979827880859375,0.3087697923183441,0.5932648777961731,0.0,0.0,0.0,0.0,0.0,0.0,0.0,0.0,0.0,0.014520209282636642,0.02622080408036709,0.039030227810144424,0.0,0.0,0.0,0.0,0.0,0.0,0.0,0.0,0.0
1606991398720905081,4360713,1606987796401643922,imu_link,0.003426219103857875,0.004716591909527779,0.44602230191230774,0.8950029015541077,0.0,0.0,0.0,0.0,0.0,0.0,0.0,0.0,0.0,52.98008728027344,0.3086187243461609,0.5924782156944275,0.0,0.0,0.0,0.0,0.0,0.0,0.0,0.0,0.0,0.008290802128612995,0.016162477433681488,0.038794852793216705,0.0,0.0,0.0,0.0,0.0,0.0,0.0,0.0,0.0
1606991398720928487,4360714,1606987796401739355,imu_link,0.003426219103857875,0.004716591909527779,0.44602230191230774,0.8950029015541077,0.0,0.0,0.0,0.0,0.0,0.0,0.0,0.0,0.0,52.98008728027344,0.3086187243461609,0.5924782156944275,0.0,0.0,0.0,0.0,0.0,0.0,0.0,0.0,0.0,0.008290802128612995,0.016162477433681488,0.038794852793216705,0.0,0.0,0.0,0.0,0.0,0.0,0.0,0.0,0.0
1606991398746370452,4360715,1606987796413478020,imu_link,0.0034256649669259787,0.004716689698398113,0.4460223913192749,0.8950028419494629,0.0,0.0,0.0,0.0,0.0,0.0,0.0,0.0,0.0,52.9801025390625,0.3086569905281067,0.5924263596534729,0.0,0.0,0.0,0.0,0.0,0.0,0.0,0.0,0.0,0.006821957416832447,0.012394926510751247,0.032017167657613754,0.0,0.0,0.0,0.0,0.0,0.0,0.0,0.0,0.0
1606991398746462356,4360716,1606987796413623697,imu_link,0.0034256649669259787,0.004716689698398113,0.4460223913192749,0.8950028419494629,0.0,0.0,0.0,0.0,0.0,0.0,0.0,0.0,0.0,52.9801025390625,0.3086569905281067,0.5924263596534729,0.0,0.0,0.0,0.0,0.0,0.0,0.0,0.0,0.0,0.006821957416832447,0.012394926510751247,0.032017167657613754,0.0,0.0,0.0,0.0,0.0,0.0,0.0,0.0,0.0
1606991398746498118,4360717,1606987796413725200,imu_link,0.003424334106966853,0.004715542774647474,0.4460185468196869,0.8950048089027405,0.0,0.0,0.0,0.0,0.0,0.0,0.0,0.0,0.0,52.97960662841797,0.3086099624633789,0.592229962348938,0.0,0.0,0.0,0.0,0.0,0.0,0.0,0.0,0.0,0.00012223345402162522,0.007416639942675829,0.033178020268678665,0.0,0.0,0.0,0.0,0.0,0.0,0.0,0.0,0.0
1606991398746542072,4360718,1606987796413820717,imu_link,0.003424334106966853,0.004715542774647474,0.4460185468196869,0.8950048089027405,0.0,0.0,0.0,0.0,0.0,0.0,0.0,0.0,0.0,52.97960662841797,0.3086099624633789,0.592229962348938,0.0,0.0,0.0,0.0,0.0,0.0,0.0,0.0,0.0,0.00012223345402162522,0.007416639942675829,0.033178020268678665,0.0,0.0,0.0,0.0,0.0,0.0,0.0,0.0,0.0
1606991398764429698,4360719,1606987796413915284,imu_link,0.003423182526603341,0.0047137923538684845,0.4460194408893585,0.8950043320655823,0.0,0.0,0.0,0.0,0.0,0.0,0.0,0.0,0.0,52.97971725463867,0.308488667011261,0.592022716999054,0.0,0.0,0.0,0.0,0.0,0.0,0.0,0.0,0.0,0.0024975999258458614,0.005282941740006208,0.017043188214302063,0.0,0.0,0.0,0.0,0.0,0.0,0.0,0.0,0.0
1606991398764476222,4360720,1606987796414026870,imu_link,0.003423182526603341,0.0047137923538684845,0.4460194408893585,0.8950043320655823,0.0,0.0,0.0,0.0,0.0,0.0,0.0,0.0,0.0,52.97971725463867,0.308488667011261,0.592022716999054,0.0,0.0,0.0,0.0,0.0,0.0,0.0,0.0,0.0,0.0024975999258458614,0.005282941740006208,0.017043188214302063,0.0,0.0,0.0,0.0,0.0,0.0,0.0,0.0,0.0
1606991398764494829,4360721,1606987796414123358,imu_link,0.0034222162794321775,0.004712753929197788,0.44601595401763916,0.8950061202049255,0.0,0.0,0.0,0.0,0.0,0.0,0.0,0.0,0.0,52.97926712036133,0.3084338903427124,0.5918692350387573,0.0,0.0,0.0,0.0,0.0,0.0,0.0,0.0,0.0,0.023783938959240913,0.01751757599413395,0.0023419163189828396,0.0,0.0,0.0,0.0,0.0,0.0,0.0,0.0,0.0
1606991398764513945,4360722,1606987796414217030,imu_link,0.0034222162794321775,0.004712753929197788,0.44601595401763916,0.8950061202049255,0.0,0.0,0.0,0.0,0.0,0.0,0.0,0.0,0.0,52.97926712036133,0.3084338903427124,0.5918692350387573,0.0,0.0,0.0,0.0,0.0,0.0,0.0,0.0,0.0,0.023783938959240913,0.01751757599413395,0.0023419163189828396,0.0,0.0,0.0,0.0,0.0,0.0,0.0,0.0,0.0
1606991398764588174,4360723,1606987796414306598,imu_link,0.0034246041905134916,0.004712668713182211,0.4460155963897705,0.8950062394142151,0.0,0.0,0.0,0.0,0.0,0.0,0.0,0.0,0.0,52.979225158691406,0.3083032965660095,0.592109739780426,0.0,0.0,0.0,0.0,0.0,0.0,0.0,0.0,0.0,0.017392776906490326,0.01512564904987812,0.03250842168927193,0.0,0.0,0.0,0.0,0.0,0.0,0.0,0.0,0.0
1606991398775245575,4360724,1606987796414392136,imu_link,0.0034246041905134916,0.004712668713182211,0.4460155963897705,0.8950062394142151,0.0,0.0,0.0,0.0,0.0,0.0,0.0,0.0,0.0,52.979225158691406,0.3083032965660095,0.592109739780426,0.0,0.0,0.0,0.0,0.0,0.0,0.0,0.0,0.0,0.017392776906490326,0.01512564904987812,0.03250842168927193,0.0,0.0,0.0,0.0,0.0,0.0,0.0,0.0,0.0
1606991398775288198,4360725,1606987796426928400,imu_link,0.003420294029638171,0.0047141183167696,0.4460095763206482,0.8950092792510986,0.0,0.0,0.0,0.0,0.0,0.0,0.0,0.0,0.0,52.978458404541016,0.30867624282836914,0.5917397141456604,0.0,0.0,0.0,0.0,0.0,0.0,0.0,0.0,0.0,0.007175099104642868,-0.012168601155281067,0.04164721816778183,0.0,0.0,0.0,0.0,0.0,0.0,0.0,0.0,0.0
1606991398775316605,4360726,1606987796427108513,imu_link,0.003420294029638171,0.0047141183167696,0.4460095763206482,0.8950092792510986,0.0,0.0,0.0,0.0,0.0,0.0,0.0,0.0,0.0,52.978458404541016,0.30867624282836914,0.5917397141456604,0.0,0.0,0.0,0.0,0.0,0.0,0.0,0.0,0.0,0.007175099104642868,-0.012168601155281067,0.04164721816778183,0.0,0.0,0.0,0.0,0.0,0.0,0.0,0.0,0.0
1606991398775352545,4360727,1606987796427214013,imu_link,0.003423184622079134,0.0047163893468678,0.44601014256477356,0.8950089812278748,0.0,0.0,0.0,0.0,0.0,0.0,0.0,0.0,0.0,52.978538513183594,0.3087610602378845,0.59215247631073,0.0,0.0,0.0,0.0,0.0,0.0,0.0,0.0,0.0,0.013369236141443253,-0.009981819428503513,0.036749206483364105,0.0,0.0,0.0,0.0,0.0,0.0,0.0,0.0,0.0
1606991398817217644,4360728,1606987796427311956,imu_link,0.003423184622079134,0.0047163893468678,0.44601014256477356,0.8950089812278748,0.0,0.0,0.0,0.0,0.0,0.0,0.0,0.0,0.0,52.978538513183594,0.3087610602378845,0.59215247631073,0.0,0.0,0.0,0.0,0.0,0.0,0.0,0.0,0.0,0.013369236141443253,-0.009981819428503513,0.036749206483364105,0.0,0.0,0.0,0.0,0.0,0.0,0.0,0.0,0.0
1606991398817240228,4360729,1606987796427407357,imu_link,0.0034259415697306395,0.00471863429993391,0.4460069537162781,0.8950105309486389,0.0,0.0,0.0,0.0,0.0,0.0,0.0,0.0,0.0,52.978126525878906,0.30885252356529236,0.5925488471984863,0.0,0.0,0.0,0.0,0.0,0.0,0.0,0.0,0.0,-0.005897232796996832,0.005850464105606079,0.0280210729688406,0.0,0.0,0.0,0.0,0.0,0.0,0.0,0.0,0.0
1606991398817284589,4360730,1606987796427506061,imu_link,0.0034259415697306395,0.00471863429993391,0.4460069537162781,0.8950105309486389,0.0,0.0,0.0,0.0,0.0,0.0,0.0,0.0,0.0,52.978126525878906,0.30885252356529236,0.5925488471984863,0.0,0.0,0.0,0.0,0.0,0.0,0.0,0.0,0.0,-0.005897232796996832,0.005850464105606079,0.0280210729688406,0.0,0.0,0.0,0.0,0.0,0.0,0.0,0.0,0.0
1606991398817297163,4360731,1606987796427622142,imu_link,0.0034271180629730225,0.004717914387583733,0.44600579142570496,0.8950111269950867,0.0,0.0,0.0,0.0,0.0,0.0,0.0,0.0,0.0,52.97797393798828,0.30871930718421936,0.5926322937011719,0.0,0.0,0.0,0.0,0.0,0.0,0.0,0.0,0.0,-0.020406313240528107,0.011158759705722332,0.026337210088968277,0.0,0.0,0.0,0.0,0.0,0.0,0.0,0.0,0.0
1606991398817317006,4360732,1606987796427721363,imu_link,0.0034271180629730225,0.004717914387583733,0.44600579142570496,0.8950111269950867,0.0,0.0,0.0,0.0,0.0,0.0,0.0,0.0,0.0,52.97797393798828,0.30871930718421936,0.5926322937011719,0.0,0.0,0.0,0.0,0.0,0.0,0.0,0.0,0.0,-0.020406313240528107,0.011158759705722332,0.026337210088968277,0.0,0.0,0.0,0.0,0.0,0.0,0.0,0.0,0.0
1606991398827009570,4360733,1606987796427812318,imu_link,0.0034267951268702745,0.004713596310466528,0.4460109770298004,0.8950085639953613,0.0,0.0,0.0,0.0,0.0,0.0,0.0,0.0,0.0,52.9786376953125,0.3082895278930664,0.592380166053772,0.0,0.0,0.0,0.0,0.0,0.0,0.0,0.0,0.0,-0.001915082335472107,0.016433022916316986,0.03947721794247627,0.0,0.0,0.0,0.0,0.0,0.0,0.0,0.0,0.0
1606991398827038672,4360734,1606987796427897134,imu_link,0.0034267951268702745,0.004713596310466528,0.4460109770298004,0.8950085639953613,0.0,0.0,0.0,0.0,0.0,0.0,0.0,0.0,0.0,52.9786376953125,0.3082895278930664,0.592380166053772,0.0,0.0,0.0,0.0,0.0,0.0,0.0,0.0,0.0,-0.001915082335472107,0.016433022916316986,0.03947721794247627,0.0,0.0,0.0,0.0,0.0,0.0,0.0,0.0,0.0
1606991398827075391,4360735,1606987796427981133,imu_link,0.003427873831242323,0.004714491311460733,0.4460093379020691,0.8950093984603882,0.0,0.0,0.0,0.0,0.0,0.0,0.0,0.0,0.0,52.978424072265625,0.30832725763320923,0.5925360321998596,0.0,0.0,0.0,0.0,0.0,0.0,0.0,0.0,0.0,0.007839033380150795,0.009992641396820545,0.046061672270298004,0.0,0.0,0.0,0.0,0.0,0.0,0.0,0.0,0.0
1606991398827192564,4360736,1606987796440570497,imu_link,0.003427873831242323,0.004714491311460733,0.4460093379020691,0.8950093984603882,0.0,0.0,0.0,0.0,0.0,0.0,0.0,0.0,0.0,52.978424072265625,0.30832725763320923,0.5925360321998596,0.0,0.0,0.0,0.0,0.0,0.0,0.0,0.0,0.0,0.007839033380150795,0.009992641396820545,0.046061672270298004,0.0,0.0,0.0,0.0,0.0,0.0,0.0,0.0,0.0
1606991398845582319,4360737,1606987796440631699,imu_link,0.0034276368096470833,0.00471525639295578,0.4460107684135437,0.8950086832046509,0.0,0.0,0.0,0.0,0.0,0.0,0.0,0.0,0.0,52.97861099243164,0.3084169328212738,0.5925513505935669,0.0,0.0,0.0,0.0,0.0,0.0,0.0,0.0,0.0,-0.008252398110926151,-0.0027839827816933393,0.054171063005924225,0.0,0.0,0.0,0.0,0.0,0.0,0.0,0.0,0.0
1606991398845606713,4360738,1606987796440669535,imu_link,0.0034276368096470833,0.00471525639295578,0.4460107684135437,0.8950086832046509,0.0,0.0,0.0,0.0,0.0,0.0,0.0,0.0,0.0,52.97861099243164,0.3084169328212738,0.5925513505935669,0.0,0.0,0.0,0.0,0.0,0.0,0.0,0.0,0.0,-0.008252398110926151,-0.0027839827816933393,0.054171063005924225,0.0,0.0,0.0,0.0,0.0,0.0,0.0,0.0,0.0
1606991398845619849,4360739,1606987796440706372,imu_link,0.003426912007853389,0.00471606757491827,0.4460102319717407,0.89500892162323,0.0,0.0,0.0,0.0,0.0,0.0,0.0,0.0,0.0,52.97854232788086,0.3085375130176544,0.5925183296203613,0.0,0.0,0.0,0.0,0.0,0.0,0.0,0.0,0.0,-0.019018210470676422,0.008352932520210743,0.04517484828829765,0.0,0.0,0.0,0.0,0.0,0.0,0.0,0.0,0.0
1606991398845662663,4360740,1606987796440745820,imu_link,0.003426912007853389,0.00471606757491827,0.4460102319717407,0.89500892162323,0.0,0.0,0.0,0.0,0.0,0.0,0.0,0.0,0.0,52.97854232788086,0.3085375130176544,0.5925183296203613,0.0,0.0,0.0,0.0,0.0,0.0,0.0,0.0,0.0,-0.019018210470676422,0.008352932520210743,0.04517484828829765,0.0,0.0,0.0,0.0,0.0,0.0,0.0,0.0,0.0
