%time,field.header.seq,field.header.stamp,field.header.frame_id,field.orientation.x,field.orientation.y,field.orientation.z,field.orientation.w,field.orientation_covariance0,field.orientation_covariance1,field.orientation_covariance2,field.orientation_covariance3,field.orientation_covariance4,field.orientation_covariance5,field.orientation_covariance6,field.orientation_covariance7,field.orientation_covariance8,field.angular_velocity.x,field.angular_velocity.y,field.angular_velocity.z,field.angular_velocity_covariance0,field.angular_velocity_covariance1,field.angular_velocity_covariance2,field.angular_velocity_covariance3,field.angular_velocity_covariance4,field.angular_velocity_covariance5,field.angular_velocity_covariance6,field.angular_velocity_covariance7,field.angular_velocity_covariance8,field.linear_acceleration.x,field.linear_acceleration.y,field.linear_acceleration.z,field.linear_acceleration_covariance0,field.linear_acceleration_covariance1,field.linear_acceleration_covariance2,field.linear_acceleration_covariance3,field.linear_acceleration_covariance4,field.linear_acceleration_covariance5,field.linear_acceleration_covariance6,field.linear_acceleration_covariance7,field.linear_acceleration_covariance8
1606990959980748315,4010966,1606987359222527988,imu_link,0.0078108301386237144,0.005968234036117792,0.39285579323768616,0.9195476174354553,0.0,0.0,0.0,0.0,0.0,0.0,0.0,0.0,0.0,46.26962661743164,0.27726057171821594,1.0918022394180298,0.0,0.0,0.0,0.0,0.0,0.0,0.0,0.0,0.0,0.005675288382917643,0.0008988176705315709,0.038730327039957047,0.0,0.0,0.0,0.0,0.0,0.0,0.0,0.0,0.0
1606990959980768870,4010967,1606987359222650947,imu_link,0.007812271360307932,0.005969215650111437,0.3928569257259369,0.9195470809936523,0.0,0.0,0.0,0.0,0.0,0.0,0.0,0.0,0.0,46.269771575927734,0.2772977650165558,1.0919986963272095,0.0,0.0,0.0,0.0,0.0,0.0,0.0,0.0,0.0,0.008191375061869621,-0.009607376530766487,0.04380553960800171,0.0,0.0,0.0,0.0,0.0,0.0,0.0,0.0,0.0
1606990959980774554,4010968,1606987359222731757,imu_link,0.007812271360307932,0.005969215650111437,0.3928569257259369,0.9195470809936523,0.0,0.0,0.0,0.0,0.0,0.0,0.0,0.0,0.0,46.269771575927734,0.2772977650165558,1.0919986963272095,0.0,0.0,0.0,0.0,0.0,0.0,0.0,0.0,0.0,0.008191375061869621,-0.009607376530766487,0.04380553960800171,0.0,0.0,0.0,0.0,0.0,0.0,0.0,0.0,0.0
1606990959980783203,4010969,1606987359222809545,imu_link,0.007814119569957256,0.005968197714537382,0.3928559124469757,0.9195474982261658,0.0,0.0,0.0,0.0,0.0,0.0,0.0,0.0,0.0,46.26964569091797,0.27710843086242676,1.0921473503112793,0.0,0.0,0.0,0.0,0.0,0.0,0.0,0.0,0.0,0.005652520339936018,0.0014052034821361303,0.039862312376499176,0.0,0.0,0.0,0.0,0.0,0.0,0.0,0.0,0.0
1606990959990359982,4010970,1606987359222892752,imu_link,0.007814119569957256,0.005968197714537382,0.3928559124469757,0.9195474982261658,0.0,0.0,0.0,0.0,0.0,0.0,0.0,0.0,0.0,46.26964569091797,0.27710843086242676,1.0921473503112793,0.0,0.0,0.0,0.0,0.0,0.0,0.0,0.0,0.0,0.005652520339936018,0.0014052034821361303,0.039862312376499176,0.0,0.0,0.0,0.0,0.0,0.0,0.0,0.0,0.0
1606990959990386105,4010971,1606987359223009239,imu_link,0.007812234573066235,0.005969828926026821,0.3928556442260742,0.9195476174354553,0.0,0.0,0.0,0.0,0.0,0.0,0.0,0.0,0.0,46.26961135864258,0.2773655652999878,1.0920220613479614,0.0,0.0,0.0,0.0,0.0,0.0,0.0,0.0,0.0,0.002145752077922225,0.01435663178563118,0.05014244094491005,0.0,0.0,0.0,0.0,0.0,0.0,0.0,0.0,0.0
1606990959990396515,4010972,1606987359223105261,imu_link,0.007812234573066235,0.005969828926026821,0.3928556442260742,0.9195476174354553,0.0,0.0,0.0,0.0,0.0,0.0,0.0,0.0,0.0,46.26961135864258,0.2773655652999878,1.0920220613479614,0.0,0.0,0.0,0.0,0.0,0.0,0.0,0.0,0.0,0.002145752077922225,0.01435663178563118,0.05014244094491005,0.0,0.0,0.0,0.0,0.0,0.0,0.0,0.0,0.0
1606990959990418721,4010973,1606987359223175343,imu_link,0.0078091099858284,0.005972010083496571,0.3928534686565399,0.9195485711097717,0.0,0.0,0.0,0.0,0.0,0.0,0.0,0.0,0.0,46.26934051513672,0.27773863077163696,1.0917904376983643,0.0,0.0,0.0,0.0,0.0,0.0,0.0,0.0,0.0,0.0022114263847470284,0.019216226413846016,0.037323836237192154,0.0,0.0,0.0,0.0,0.0,0.0,0.0,0.0,0.0
1606990960047423456,4010974,1606987359223248432,imu_link,0.0078091099858284,0.005972010083496571,0.3928534686565399,0.9195485711097717,0.0,0.0,0.0,0.0,0.0,0.0,0.0,0.0,0.0,46.26934051513672,0.27773863077163696,1.0917904376983643,0.0,0.0,0.0,0.0,0.0,0.0,0.0,0.0,0.0,0.0022114263847470284,0.019216226413846016,0.037323836237192154,0.0,0.0,0.0,0.0,0.0,0.0,0.0,0.0,0.0
1606990960047484843,4010975,1606987359223320247,imu_link,0.00780753418803215,0.005973747465759516,0.3928540050983429,0.9195483326911926,0.0,0.0,0.0,0.0,0.0,0.0,0.0,0.0,0.0,46.269412994384766,0.27799201011657715,1.0917026996612549,0.0,0.0,0.0,0.0,0.0,0.0,0.0,0.0,0.0,-0.01270336378365755,0.0064849997870624065,0.035938359797000885,0.0,0.0,0.0,0.0,0.0,0.0,0.0,0.0,0.0
1606990960047504244,4010976,1606987359223396904,imu_link,0.00780753418803215,0.005973747465759516,0.3928540050983429,0.9195483326911926,0.0,0.0,0.0,0.0,0.0,0.0,0.0,0.0,0.0,46.269412994384766,0.27799201011657715,1.0917026996612549,0.0,0.0,0.0,0.0,0.0,0.0,0.0,0.0,0.0,-0.01270336378365755,0.0064849997870624065,0.035938359797000885,0.0,0.0,0.0,0.0,0.0,0.0,0.0,0.0,0.0
1606990960047514726,4010977,1606987359236040842,imu_link,0.00780845619738102,0.005972393322736025,0.39285194873809814,0.9195491671562195,0.0,0.0,0.0,0.0,0.0,0.0,0.0,0.0,0.0,46.2691535949707,0.2778101861476898,1.0917383432388306,0.0,0.0,0.0,0.0,0.0,0.0,0.0,0.0,0.0,-0.007970062084496021,0.002593475393950939,0.043270524591207504,0.0,0.0,0.0,0.0,0.0,0.0,0.0,0.0,0.0
1606990960047521896,4010978,1606987359236165767,imu_link,0.00780845619738102,0.005972393322736025,0.39285194873809814,0.9195491671562195,0.0,0.0,0.0,0.0,0.0,0.0,0.0,0.0,0.0,46.2691535949707,0.2778101861476898,1.0917383432388306,0.0,0.0,0.0,0.0,0.0,0.0,0.0,0.0,0.0,-0.007970062084496021,0.002593475393950939,0.043270524591207504,0.0,0.0,0.0,0.0,0.0,0.0,0.0,0.0,0.0
1606990960052803776,4010979,1606987359236300439,imu_link,0.007808137219399214,0.005974425934255123,0.3928520977497101,0.9195491075515747,0.0,0.0,0.0,0.0,0.0,0.0,0.0,0.0,0.0,46.26917266845703,0.27803856134414673,1.0917962789535522,0.0,0.0,0.0,0.0,0.0,0.0,0.0,0.0,0.0,0.0030799638479948044,0.009858492761850357,0.009966585785150528,0.0,0.0,0.0,0.0,0.0,0.0,0.0,0.0,0.0
1606990960052829639,4010980,1606987359236379229,imu_link,0.007808137219399214,0.005974425934255123,0.3928520977497101,0.9195491075515747,0.0,0.0,0.0,0.0,0.0,0.0,0.0,0.0,0.0,46.26917266845703,0.27803856134414673,1.0917962789535522,0.0,0.0,0.0,0.0,0.0,0.0,0.0,0.0,0.0,0.0030799638479948044,0.009858492761850357,0.009966585785150528,0.0,0.0,0.0,0.0,0.0,0.0,0.0,0.0,0.0
1606990960052840346,4010981,1606987359236470441,imu_link,0.007806484121829271,0.00597604364156723,0.39285141229629517,0.9195494651794434,0.0,0.0,0.0,0.0,0.0,0.0,0.0,0.0,0.0,46.26909255981445,0.27828434109687805,1.0916945934295654,0.0,0.0,0.0,0.0,0.0,0.0,0.0,0.0,0.0,0.01662084273993969,0.008306141942739487,0.0050885602831840515,0.0,0.0,0.0,0.0,0.0,0.0,0.0,0.0,0.0
1606990960052850892,4010982,1606987359236563447,imu_link,0.007806484121829271,0.00597604364156723,0.39285141229629517,0.9195494651794434,0.0,0.0,0.0,0.0,0.0,0.0,0.0,0.0,0.0,46.26909255981445,0.27828434109687805,1.0916945934295654,0.0,0.0,0.0,0.0,0.0,0.0,0.0,0.0,0.0,0.01662084273993969,0.008306141942739487,0.0050885602831840515,0.0,0.0,0.0,0.0,0.0,0.0,0.0,0.0,0.0
1606990960090347790,4010983,1606987359236637343,imu_link,0.007806796580553055,0.0059765055775642395,0.39285093545913696,0.9195496439933777,0.0,0.0,0.0,0.0,0.0,0.0,0.0,0.0,0.0,46.2690315246582,0.27831947803497314,1.0917481184005737,0.0,0.0,0.0,0.0,0.0,0.0,0.0,0.0,0.0,0.0035163077991455793,0.0061589740216732025,0.03249020874500275,0.0,0.0,0.0,0.0,0.0,0.0,0.0,0.0,0.0
1606990960090371501,4010984,1606987359236716433,imu_link,0.007806796580553055,0.0059765055775642395,0.39285093545913696,0.9195496439933777,0.0,0.0,0.0,0.0,0.0,0.0,0.0,0.0,0.0,46.2690315246582,0.27831947803497314,1.0917481184005737,0.0,0.0,0.0,0.0,0.0,0.0,0.0,0.0,0.0,0.0035163077991455793,0.0061589740216732025,0.03249020874500275,0.0,0.0,0.0,0.0,0.0,0.0,0.0,0.0,0.0
1606990960090399216,4010985,1606987359236819872,imu_link,0.007804177235811949,0.0059787738136947155,0.3928515911102295,0.9195493459701538,0.0,0.0,0.0,0.0,0.0,0.0,0.0,0.0,0.0,46.26911926269531,0.2786755859851837,1.0915745496749878,0.0,0.0,0.0,0.0,0.0,0.0,0.0,0.0,0.0,-0.007635716814547777,0.014675386250019073,0.04560866579413414,0.0,0.0,0.0,0.0,0.0,0.0,0.0,0.0,0.0
1606990960090408454,4010986,1606987359236903710,imu_link,0.007804177235811949,0.0059787738136947155,0.3928515911102295,0.9195493459701538,0.0,0.0,0.0,0.0,0.0,0.0,0.0,0.0,0.0,46.26911926269531,0.2786755859851837,1.0915745496749878,0.0,0.0,0.0,0.0,0.0,0.0,0.0,0.0,0.0,-0.007635716814547777,0.014675386250019073,0.04560866579413414,0.0,0.0,0.0,0.0,0.0,0.0,0.0,0.0,0.0
1606990960090417228,4010987,1606987359236976696,imu_link,0.007804439403116703,0.005977333057671785,0.3928540050983429,0.9195483326911926,0.0,0.0,0.0,0.0,0.0,0.0,0.0,0.0,0.0,46.26941680908203,0.27850914001464844,1.0915380716323853,0.0,0.0,0.0,0.0,0.0,0.0,0.0,0.0,0.0,0.010610152035951614,0.00841580331325531,0.04508029296994209,0.0,0.0,0.0,0.0,0.0,0.0,0.0,0.0,0.0
1606990960096061962,4010988,1606987359248889196,imu_link,0.007804439403116703,0.005977333057671785,0.3928540050983429,0.9195483326911926,0.0,0.0,0.0,0.0,0.0,0.0,0.0,0.0,0.0,46.26941680908203,0.27850914001464844,1.0915380716323853,0.0,0.0,0.0,0.0,0.0,0.0,0.0,0.0,0.0,0.010610152035951614,0.00841580331325531,0.04508029296994209,0.0,0.0,0.0,0.0,0.0,0.0,0.0,0.0,0.0
1606990960096128165,4010989,1606987359249008257,imu_link,0.007803028915077448,0.005978202447295189,0.39285221695899963,0.9195491075515747,0.0,0.0,0.0,0.0,0.0,0.0,0.0,0.0,0.0,46.269195556640625,0.2786663770675659,1.0914280414581299,0.0,0.0,0.0,0.0,0.0,0.0,0.0,0.0,0.0,0.00459666084498167,-0.0012228491250425577,0.062102753669023514,0.0,0.0,0.0,0.0,0.0,0.0,0.0,0.0,0.0
1606990960096150155,4010990,1606987359249171248,imu_link,0.007803028915077448,0.005978202447295189,0.39285221695899963,0.9195491075515747,0.0,0.0,0.0,0.0,0.0,0.0,0.0,0.0,0.0,46.269195556640625,0.2786663770675659,1.0914280414581299,0.0,0.0,0.0,0.0,0.0,0.0,0.0,0.0,0.0,0.00459666084498167,-0.0012228491250425577,0.062102753669023514,0.0,0.0,0.0,0.0,0.0,0.0,0.0,0.0,0.0
1606990960096165067,4010991,1606987359249249932,imu_link,0.0078035201877355576,0.005979248322546482,0.39285218715667725,0.9195491075515747,0.0,0.0,0.0,0.0,0.0,0.0,0.0,0.0,0.0,46.269195556640625,0.27875450253486633,1.0915268659591675,0.0,0.0,0.0,0.0,0.0,0.0,0.0,0.0,0.0,-0.005421983078122139,-0.0010076977778226137,0.07231248170137405,0.0,0.0,0.0,0.0,0.0,0.0,0.0,0.0,0.0
1606990960170826580,4010992,1606987359249328938,imu_link,0.0078035201877355576,0.005979248322546482,0.39285218715667725,0.9195491075515747,0.0,0.0,0.0,0.0,0.0,0.0,0.0,0.0,0.0,46.269195556640625,0.27875450253486633,1.0915268659591675,0.0,0.0,0.0,0.0,0.0,0.0,0.0,0.0,0.0,-0.005421983078122139,-0.0010076977778226137,0.07231248170137405,0.0,0.0,0.0,0.0,0.0,0.0,0.0,0.0,0.0
1606990960170847756,4010993,1606987359249412696,imu_link,0.0078018950298428535,0.005979176610708237,0.39285168051719666,0.9195493459701538,0.0,0.0,0.0,0.0,0.0,0.0,0.0,0.0,0.0,46.26913070678711,0.2788207530975342,1.0913522243499756,0.0,0.0,0.0,0.0,0.0,0.0,0.0,0.0,0.0,-0.0027054056990891695,0.005809899885207415,0.03774052858352661,0.0,0.0,0.0,0.0,0.0,0.0,0.0,0.0,0.0
1606990960170856460,4010994,1606987359249484519,imu_link,0.0078018950298428535,0.005979176610708237,0.39285168051719666,0.9195493459701538,0.0,0.0,0.0,0.0,0.0,0.0,0.0,0.0,0.0,46.26913070678711,0.2788207530975342,1.0913522243499756,0.0,0.0,0.0,0.0,0.0,0.0,0.0,0.0,0.0,-0.0027054056990891695,0.005809899885207415,0.03774052858352661,0.0,0.0,0.0,0.0,0.0,0.0,0.0,0.0,0.0
1606990960170865729,4010995,1606987359249627112,imu_link,0.007801707834005356,0.005975892301648855,0.3928525447845459,0.9195489883422852,0.0,0.0,0.0,0.0,0.0,0.0,0.0,0.0,0.0,46.26923370361328,0.2784820795059204,1.0911848545074463,0.0,0.0,0.0,0.0,0.0,0.0,0.0,0.0,0.0,-0.012847129255533218,0.0061366199515759945,0.03625042736530304,0.0,0.0,0.0,0.0,0.0,0.0,0.0,0.0,0.0
1606990960170876633,4010996,1606987359249700887,imu_link,0.007801707834005356,0.005975892301648855,0.3928525447845459,0.9195489883422852,0.0,0.0,0.0,0.0,0.0,0.0,0.0,0.0,0.0,46.26923370361328,0.2784820795059204,1.0911848545074463,0.0,0.0,0.0,0.0,0.0,0.0,0.0,0.0,0.0,-0.012847129255533218,0.0061366199515759945,0.03625042736530304,0.0,0.0,0.0,0.0,0.0,0.0,0.0,0.0,0.0
1606990960176799214,4010997,1606987359249774956,imu_link,0.007802798878401518,0.0059747882187366486,0.39285245537757874,0.9195490479469299,0.0,0.0,0.0,0.0,0.0,0.0,0.0,0.0,0.0,46.26921463012695,0.2783167064189911,1.091249942779541,0.0,0.0,0.0,0.0,0.0,0.0,0.0,0.0,0.0,-0.015436975285410881,0.003326272126287222,0.051920387893915176,0.0,0.0,0.0,0.0,0.0,0.0,0.0,0.0,0.0
1606990960176814472,4010998,1606987359262625077,imu_link,0.007802798878401518,0.0059747882187366486,0.39285245537757874,0.9195490479469299,0.0,0.0,0.0,0.0,0.0,0.0,0.0,0.0,0.0,46.26921463012695,0.2783167064189911,1.091249942779541,0.0,0.0,0.0,0.0,0.0,0.0,0.0,0.0,0.0,-0.015436975285410881,0.003326272126287222,0.051920387893915176,0.0,0.0,0.0,0.0,0.0,0.0,0.0,0.0,0.0
1606990960176826415,4010999,1606987359262747502,imu_link,0.007803178858011961,0.005974192637950182,0.39285385608673096,0.9195484519004822,0.0,0.0,0.0,0.0,0.0,0.0,0.0,0.0,0.0,46.26939392089844,0.27823519706726074,1.0912636518478394,0.0,0.0,0.0,0.0,0.0,0.0,0.0,0.0,0.0,0.004450791049748659,0.004172390792518854,0.05308351665735245,0.0,0.0,0.0,0.0,0.0,0.0,0.0,0.0,0.0
1606990960176839626,4011000,1606987359262921150,imu_link,0.007803178858011961,0.005974192637950182,0.39285385608673096,0.9195484519004822,0.0,0.0,0.0,0.0,0.0,0.0,0.0,0.0,0.0,46.26939392089844,0.27823519706726074,1.0912636518478394,0.0,0.0,0.0,0.0,0.0,0.0,0.0,0.0,0.0,0.004450791049748659,0.004172390792518854,0.05308351665735245,0.0,0.0,0.0,0.0,0.0,0.0,0.0,0.0,0.0
1606990960186341685,4011001,1606987359263029930,imu_link,0.007802167907357216,0.005975875072181225,0.39285188913345337,0.919549286365509,0.0,0.0,0.0,0.0,0.0,0.0,0.0,0.0,0.0,46.26914596557617,0.278460294008255,1.091232419013977,0.0,0.0,0.0,0.0,0.0,0.0,0.0,0.0,0.0,0.03333916515111923,-0.00861368142068386,0.0581480897963047,0.0,0.0,0.0,0.0,0.0,0.0,0.0,0.0,0.0
1606990960186358572,4011002,1606987359263111519,imu_link,0.007802167907357216,0.005975875072181225,0.39285188913345337,0.919549286365509,0.0,0.0,0.0,0.0,0.0,0.0,0.0,0.0,0.0,46.26914596557617,0.278460294008255,1.091232419013977,0.0,0.0,0.0,0.0,0.0,0.0,0.0,0.0,0.0,0.03333916515111923,-0.00861368142068386,0.0581480897963047,0.0,0.0,0.0,0.0,0.0,0.0,0.0,0.0,0.0
1606990960186364207,4011003,1606987359263183494,imu_link,0.007802487351000309,0.005977746099233627,0.39285168051719666,0.9195494055747986,0.0,0.0,0.0,0.0,0.0,0.0,0.0,0.0,0.0,46.269126892089844,0.2786433696746826,1.0913500785827637,0.0,0.0,0.0,0.0,0.0,0.0,0.0,0.0,0.0,0.030678123235702515,-0.014454278163611889,0.040250085294246674,0.0,0.0,0.0,0.0,0.0,0.0,0.0,0.0,0.0
1606990960186369231,4011004,1606987359263280643,imu_link,0.007802487351000309,0.005977746099233627,0.39285168051719666,0.9195494055747986,0.0,0.0,0.0,0.0,0.0,0.0,0.0,0.0,0.0,46.269126892089844,0.2786433696746826,1.0913500785827637,0.0,0.0,0.0,0.0,0.0,0.0,0.0,0.0,0.0,0.030678123235702515,-0.014454278163611889,0.040250085294246674,0.0,0.0,0.0,0.0,0.0,0.0,0.0,0.0,0.0
1606990960186382118,4011005,1606987359263357408,imu_link,0.007804819382727146,0.0059805018827319145,0.39285099506378174,0.9195495247840881,0.0,0.0,0.0,0.0,0.0,0.0,0.0,0.0,0.0,46.26905059814453,0.278829425573349,1.0917199850082397,0.0,0.0,0.0,0.0,0.0,0.0,0.0,0.0,0.0,0.008262652903795242,-0.005162480752915144,0.02940298244357109,0.0,0.0,0.0,0.0,0.0,0.0,0.0,0.0,0.0
1606990960193784203,4011006,1606987359263429174,imu_link,0.007804819382727146,0.0059805018827319145,0.39285099506378174,0.9195495247840881,0.0,0.0,0.0,0.0,0.0,0.0,0.0,0.0,0.0,46.26905059814453,0.278829425573349,1.0917199850082397,0.0,0.0,0.0,0.0,0.0,0.0,0.0,0.0,0.0,0.008262652903795242,-0.005162480752915144,0.02940298244357109,0.0,0.0,0.0,0.0,0.0,0.0,0.0,0.0,0.0
1606990960193810802,4011007,1606987359263501126,imu_link,0.0078052193857729435,0.0059788948856294155,0.3928527235984802,0.9195489287376404,0.0,0.0,0.0,0.0,0.0,0.0,0.0,0.0,0.0,46.269256591796875,0.27864018082618713,1.0916900634765625,0.0,0.0,0.0,0.0,0.0,0.0,0.0,0.0,0.0,-0.0030927497427910566,0.015371897257864475,0.030743952840566635,0.0,0.0,0.0,0.0,0.0,0.0,0.0,0.0,0.0
1606990960193822184,4011008,1606987359263575490,imu_link,0.0078052193857729435,0.0059788948856294155,0.3928527235984802,0.9195489287376404,0.0,0.0,0.0,0.0,0.0,0.0,0.0,0.0,0.0,46.269256591796875,0.27864018082618713,1.0916900634765625,0.0,0.0,0.0,0.0,0.0,0.0,0.0,0.0,0.0,-0.0030927497427910566,0.015371897257864475,0.030743952840566635,0.0,0.0,0.0,0.0,0.0,0.0,0.0,0.0,0.0
1606990960193870261,4011009,1606987359276017562,imu_link,0.007805331610143185,0.005977887660264969,0.3928537368774414,0.9195483922958374,0.0,0.0,0.0,0.0,0.0,0.0,0.0,0.0,0.0,46.269386291503906,0.2785276770591736,1.0916569232940674,0.0,0.0,0.0,0.0,0.0,0.0,0.0,0.0,0.0,-0.001566736726090312,0.028348904103040695,0.03365373983979225,0.0,0.0,0.0,0.0,0.0,0.0,0.0,0.0,0.0
1606990960252043069,4011010,1606987359276120942,imu_link,0.007805331610143185,0.005977887660264969,0.3928537368774414,0.9195483922958374,0.0,0.0,0.0,0.0,0.0,0.0,0.0,0.0,0.0,46.269386291503906,0.2785276770591736,1.0916569232940674,0.0,0.0,0.0,0.0,0.0,0.0,0.0,0.0,0.0,-0.001566736726090312,0.028348904103040695,0.03365373983979225,0.0,0.0,0.0,0.0,0.0,0.0,0.0,0.0,0.0
1606990960252065723,4011011,1606987359276197458,imu_link,0.007804422173649073,0.005977489519864321,0.3928540050983429,0.9195482730865479,0.0,0.0,0.0,0.0,0.0,0.0,0.0,0.0,0.0,46.2694206237793,0.27852633595466614,1.0915433168411255,0.0,0.0,0.0,0.0,0.0,0.0,0.0,0.0,0.0,0.008241213858127594,0.016568580642342567,0.01726679690182209,0.0,0.0,0.0,0.0,0.0,0.0,0.0,0.0,0.0
1606990960252095673,4011012,1606987359276276089,imu_link,0.007804422173649073,0.005977489519864321,0.3928540050983429,0.9195482730865479,0.0,0.0,0.0,0.0,0.0,0.0,0.0,0.0,0.0,46.2694206237793,0.27852633595466614,1.0915433168411255,0.0,0.0,0.0,0.0,0.0,0.0,0.0,0.0,0.0,0.008241213858127594,0.016568580642342567,0.01726679690182209,0.0,0.0,0.0,0.0,0.0,0.0,0.0,0.0,0.0
1606990960252105015,4011013,1606987359276347458,imu_link,0.0078019252978265285,0.005977659020572901,0.3928540349006653,0.9195483922958374,0.0,0.0,0.0,0.0,0.0,0.0,0.0,0.0,0.0,46.26941680908203,0.2786567211151123,1.091287612915039,0.0,0.0,0.0,0.0,0.0,0.0,0.0,0.0,0.0,0.011146849021315575,-0.005068422295153141,0.026288406923413277,0.0,0.0,0.0,0.0,0.0,0.0,0.0,0.0,0.0
1606990960252115314,4011014,1606987359276428642,imu_link,0.0078019252978265285,0.005977659020572901,0.3928540349006653,0.9195483922958374,0.0,0.0,0.0,0.0,0.0,0.0,0.0,0.0,0.0,46.26941680908203,0.2786567211151123,1.091287612915039,0.0,0.0,0.0,0.0,0.0,0.0,0.0,0.0,0.0,0.011146849021315575,-0.005068422295153141,0.026288406923413277,0.0,0.0,0.0,0.0,0.0,0.0,0.0,0.0,0.0
1606990960278066865,4011015,1606987359276508373,imu_link,0.0078031523153185844,0.005980020854622126,0.39285215735435486,0.9195490479469299,0.0,0.0,0.0,0.0,0.0,0.0,0.0,0.0,0.0,46.269195556640625,0.2788524329662323,1.0915229320526123,0.0,0.0,0.0,0.0,0.0,0.0,0.0,0.0,0.0,-0.0006404975429177284,-0.0017947976011782885,0.048042599111795425,0.0,0.0,0.0,0.0,0.0,0.0,0.0,0.0,0.0
1606990960278094791,4011016,1606987359276581515,imu_link,0.0078031523153185844,0.005980020854622126,0.39285215735435486,0.9195490479469299,0.0,0.0,0.0,0.0,0.0,0.0,0.0,0.0,0.0,46.269195556640625,0.2788524329662323,1.0915229320526123,0.0,0.0,0.0,0.0,0.0,0.0,0.0,0.0,0.0,-0.0006404975429177284,-0.0017947976011782885,0.048042599111795425,0.0,0.0,0.0,0.0,0.0,0.0,0.0,0.0,0.0
1606990960278108940,4011017,1606987359276699745,imu_link,0.007802614942193031,0.0059812976978719234,0.39285191893577576,0.9195492267608643,0.0,0.0,0.0,0.0,0.0,0.0,0.0,0.0,0.0,46.269161224365234,0.2790115177631378,1.0915237665176392,0.0,0.0,0.0,0.0,0.0,0.0,0.0,0.0,0.0,-0.0004477407783269882,0.008012383244931698,0.027731221169233322,0.0,0.0,0.0,0.0,0.0,0.0,0.0,0.0,0.0
1606990960278135995,4011018,1606987359276775569,imu_link,0.007802614942193031,0.0059812976978719234,0.39285191893577576,0.9195492267608643,0.0,0.0,0.0,0.0,0.0,0.0,0.0,0.0,0.0,46.269161224365234,0.2790115177631378,1.0915237665176392,0.0,0.0,0.0,0.0,0.0,0.0,0.0,0.0,0.0,-0.0004477407783269882,0.008012383244931698,0.027731221169233322,0.0,0.0,0.0,0.0,0.0,0.0,0.0,0.0,0.0
1606990960290001863,4011019,1606987359276841718,imu_link,0.007801772560924292,0.005981972441077232,0.3928525149822235,0.9195489883422852,0.0,0.0,0.0,0.0,0.0,0.0,0.0,0.0,0.0,46.26923751831055,0.2791198194026947,1.0914655923843384,0.0,0.0,0.0,0.0,0.0,0.0,0.0,0.0,0.0,-0.005507010035216808,0.014785228297114372,0.01606351137161255,0.0,0.0,0.0,0.0,0.0,0.0,0.0,0.0,0.0
1606990960290026891,4011020,1606987359290006273,imu_link,0.007801772560924292,0.005981972441077232,0.3928525149822235,0.9195489883422852,0.0,0.0,0.0,0.0,0.0,0.0,0.0,0.0,0.0,46.26923751831055,0.2791198194026947,1.0914655923843384,0.0,0.0,0.0,0.0,0.0,0.0,0.0,0.0,0.0,-0.005507010035216808,0.014785228297114372,0.01606351137161255,0.0,0.0,0.0,0.0,0.0,0.0,0.0,0.0,0.0
1606990960290034805,4011021,1606987359290131339,imu_link,0.00780003797262907,0.005982791539281607,0.3928515613079071,0.9195494055747986,0.0,0.0,0.0,0.0,0.0,0.0,0.0,0.0,0.0,46.26911544799805,0.27928537130355835,1.09131920337677,0.0,0.0,0.0,0.0,0.0,0.0,0.0,0.0,0.0,-0.0029244853649288416,0.014275072142481804,0.023067133501172066,0.0,0.0,0.0,0.0,0.0,0.0,0.0,0.0,0.0
1606990960290059183,4011022,1606987359290267347,imu_link,0.00780003797262907,0.005982791539281607,0.3928515613079071,0.9195494055747986,0.0,0.0,0.0,0.0,0.0,0.0,0.0,0.0,0.0,46.26911544799805,0.27928537130355835,1.09131920337677,0.0,0.0,0.0,0.0,0.0,0.0,0.0,0.0,0.0,-0.0029244853649288416,0.014275072142481804,0.023067133501172066,0.0,0.0,0.0,0.0,0.0,0.0,0.0,0.0,0.0
1606990960290073325,4011023,1606987359290352027,imu_link,0.0077987415716052055,0.0059823221527040005,0.392851859331131,0.919549286365509,0.0,0.0,0.0,0.0,0.0,0.0,0.0,0.0,0.0,46.2691535949707,0.279293954372406,1.0911616086959839,0.0,0.0,0.0,0.0,0.0,0.0,0.0,0.0,0.0,-0.0002570324868429452,0.0015062312595546246,0.0324823297560215,0.0,0.0,0.0,0.0,0.0,0.0,0.0,0.0,0.0
1606990960334451170,4011024,1606987359290425804,imu_link,0.0077987415716052055,0.0059823221527040005,0.392851859331131,0.919549286365509,0.0,0.0,0.0,0.0,0.0,0.0,0.0,0.0,0.0,46.2691535949707,0.279293954372406,1.0911616086959839,0.0,0.0,0.0,0.0,0.0,0.0,0.0,0.0,0.0,-0.0002570324868429452,0.0015062312595546246,0.0324823297560215,0.0,0.0,0.0,0.0,0.0,0.0,0.0,0.0,0.0
1606990960334471542,4011025,1606987359290524930,imu_link,0.007801240310072899,0.00598148675635457,0.3928526043891907,0.9195489287376404,0.0,0.0,0.0,0.0,0.0,0.0,0.0,0.0,0.0,46.269248962402344,0.2790924906730652,1.091387391090393,0.0,0.0,0.0,0.0,0.0,0.0,0.0,0.0,0.0,-0.008391780778765678,0.013151976279914379,0.045997414737939835,0.0,0.0,0.0,0.0,0.0,0.0,0.0,0.0,0.0
1606990960334484650,4011026,1606987359290605749,imu_link,0.007801240310072899,0.00598148675635457,0.3928526043891907,0.9195489287376404,0.0,0.0,0.0,0.0,0.0,0.0,0.0,0.0,0.0,46.269248962402344,0.2790924906730652,1.091387391090393,0.0,0.0,0.0,0.0,0.0,0.0,0.0,0.0,0.0,-0.008391780778765678,0.013151976279914379,0.045997414737939835,0.0,0.0,0.0,0.0,0.0,0.0,0.0,0.0,0.0
1606990960334496541,4011027,1606987359290678838,imu_link,0.007800816558301449,0.005981456488370895,0.39285317063331604,0.9195486903190613,0.0,0.0,0.0,0.0,0.0,0.0,0.0,0.0,0.0,46.269317626953125,0.2791076898574829,1.0913416147232056,0.0,0.0,0.0,0.0,0.0,0.0,0.0,0.0,0.0,-0.004840065259486437,0.02132842130959034,0.07159502804279327,0.0,0.0,0.0,0.0,0.0,0.0,0.0,0.0,0.0
1606990960365236992,4011028,1606987359290751655,imu_link,0.007800816558301449,0.005981456488370895,0.39285317063331604,0.9195486903190613,0.0,0.0,0.0,0.0,0.0,0.0,0.0,0.0,0.0,46.269317626953125,0.2791076898574829,1.0913416147232056,0.0,0.0,0.0,0.0,0.0,0.0,0.0,0.0,0.0,-0.004840065259486437,0.02132842130959034,0.07159502804279327,0.0,0.0,0.0,0.0,0.0,0.0,0.0,0.0,0.0
1606990960365257247,4011029,1606987359290825609,imu_link,0.007798382546752691,0.005979706067591906,0.392853707075119,0.919548511505127,0.0,0.0,0.0,0.0,0.0,0.0,0.0,0.0,0.0,46.269386291503906,0.27903226017951965,1.0910063982009888,0.0,0.0,0.0,0.0,0.0,0.0,0.0,0.0,0.0,-0.012614792212843895,0.011832269839942455,0.0646328404545784,0.0,0.0,0.0,0.0,0.0,0.0,0.0,0.0,0.0
1606990960365263574,4011030,1606987359290898430,imu_link,0.007798382546752691,0.005979706067591906,0.392853707075119,0.919548511505127,0.0,0.0,0.0,0.0,0.0,0.0,0.0,0.0,0.0,46.269386291503906,0.27903226017951965,1.0910063982009888,0.0,0.0,0.0,0.0,0.0,0.0,0.0,0.0,0.0,-0.012614792212843895,0.011832269839942455,0.0646328404545784,0.0,0.0,0.0,0.0,0.0,0.0,0.0,0.0,0.0
1606990960365271547,4011031,1606987359302739093,imu_link,0.007798382546752691,0.005979706067591906,0.392853707075119,0.919548511505127,0.0,0.0,0.0,0.0,0.0,0.0,0.0,0.0,0.0,46.269386291503906,0.27903226017951965,1.0910063982009888,0.0,0.0,0.0,0.0,0.0,0.0,0.0,0.0,0.0,-0.014316558837890625,0.001830531982704997,0.0379047654569149,0.0,0.0,0.0,0.0,0.0,0.0,0.0,0.0,0.0
1606990960365281375,4011032,1606987359302844649,imu_link,0.007798382546752691,0.005979706067591906,0.392853707075119,0.919548511505127,0.0,0.0,0.0,0.0,0.0,0.0,0.0,0.0,0.0,46.269386291503906,0.27903226017951965,1.0910063982009888,0.0,0.0,0.0,0.0,0.0,0.0,0.0,0.0,0.0,-0.014316558837890625,0.001830531982704997,0.0379047654569149,0.0,0.0,0.0,0.0,0.0,0.0,0.0,0.0,0.0
1606990960378023223,4011033,1606987359302924550,imu_link,0.00779732596129179,0.005977403372526169,0.39285314083099365,0.919548749923706,0.0,0.0,0.0,0.0,0.0,0.0,0.0,0.0,0.0,46.26930618286133,0.2788378596305847,1.0907913446426392,0.0,0.0,0.0,0.0,0.0,0.0,0.0,0.0,0.0,-0.0030779512599110603,-0.00819349940866232,0.04276132956147194,0.0,0.0,0.0,0.0,0.0,0.0,0.0,0.0,0.0
1606990960378040297,4011034,1606987359303025498,imu_link,0.00779732596129179,0.005977403372526169,0.39285314083099365,0.919548749923706,0.0,0.0,0.0,0.0,0.0,0.0,0.0,0.0,0.0,46.26930618286133,0.2788378596305847,1.0907913446426392,0.0,0.0,0.0,0.0,0.0,0.0,0.0,0.0,0.0,-0.0030779512599110603,-0.00819349940866232,0.04276132956147194,0.0,0.0,0.0,0.0,0.0,0.0,0.0,0.0,0.0
1606990960378073297,4011035,1606987359303099371,imu_link,0.0077972752042114735,0.005979560781270266,0.3928545117378235,0.9195481538772583,0.0,0.0,0.0,0.0,0.0,0.0,0.0,0.0,0.0,46.26948165893555,0.2790658175945282,1.0908836126327515,0.0,0.0,0.0,0.0,0.0,0.0,0.0,0.0,0.0,0.015866022557020187,-0.012148689478635788,0.0323239341378212,0.0,0.0,0.0,0.0,0.0,0.0,0.0,0.0,0.0
1606990960378079141,4011036,1606987359303193567,imu_link,0.0077972752042114735,0.005979560781270266,0.3928545117378235,0.9195481538772583,0.0,0.0,0.0,0.0,0.0,0.0,0.0,0.0,0.0,46.26948165893555,0.2790658175945282,1.0908836126327515,0.0,0.0,0.0,0.0,0.0,0.0,0.0,0.0,0.0,0.015866022557020187,-0.012148689478635788,0.0323239341378212,0.0,0.0,0.0,0.0,0.0,0.0,0.0,0.0,0.0
1606990960383840916,4011037,1606987359303267859,imu_link,0.007798847276717424,0.005980208981782198,0.3928525149822235,0.9195489883422852,0.0,0.0,0.0,0.0,0.0,0.0,0.0,0.0,0.0,46.26923751831055,0.27906572818756104,1.0910778045654297,0.0,0.0,0.0,0.0,0.0,0.0,0.0,0.0,0.0,0.007053036708384752,-0.006236196495592594,0.02359897270798683,0.0,0.0,0.0,0.0,0.0,0.0,0.0,0.0,0.0
1606990960383864822,4011038,1606987359303340512,imu_link,0.007798847276717424,0.005980208981782198,0.3928525149822235,0.9195489883422852,0.0,0.0,0.0,0.0,0.0,0.0,0.0,0.0,0.0,46.26923751831055,0.27906572818756104,1.0910778045654297,0.0,0.0,0.0,0.0,0.0,0.0,0.0,0.0,0.0,0.007053036708384752,-0.006236196495592594,0.02359897270798683,0.0,0.0,0.0,0.0,0.0,0.0,0.0,0.0,0.0
1606990960383875298,4011039,1606987359303409266,imu_link,0.007799971848726273,0.005977210588753223,0.39285513758659363,0.9195479154586792,0.0,0.0,0.0,0.0,0.0,0.0,0.0,0.0,0.0,46.26955795288086,0.27869606018066406,1.091062068939209,0.0,0.0,0.0,0.0,0.0,0.0,0.0,0.0,0.0,-0.005318572279065847,-0.003659243695437908,0.045273881405591965,0.0,0.0,0.0,0.0,0.0,0.0,0.0,0.0,0.0
1606990960383941716,4011040,1606987359303482810,imu_link,0.007799971848726273,0.005977210588753223,0.39285513758659363,0.9195479154586792,0.0,0.0,0.0,0.0,0.0,0.0,0.0,0.0,0.0,46.26955795288086,0.27869606018066406,1.091062068939209,0.0,0.0,0.0,0.0,0.0,0.0,0.0,0.0,0.0,-0.005318572279065847,-0.003659243695437908,0.045273881405591965,0.0,0.0,0.0,0.0,0.0,0.0,0.0,0.0,0.0
1606990960391757846,4011041,1606987359316329056,imu_link,0.007799948565661907,0.0059788101352751255,0.3928537964820862,0.9195484519004822,0.0,0.0,0.0,0.0,0.0,0.0,0.0,0.0,0.0,46.26939010620117,0.278867244720459,1.091131329536438,0.0,0.0,0.0,0.0,0.0,0.0,0.0,0.0,0.0,-0.006837493274360895,0.0036641238257288933,0.05774177610874176,0.0,0.0,0.0,0.0,0.0,0.0,0.0,0.0,0.0
1606990960391775705,4011042,1606987359316457024,imu_link,0.007799948565661907,0.0059788101352751255,0.3928537964820862,0.9195484519004822,0.0,0.0,0.0,0.0,0.0,0.0,0.0,0.0,0.0,46.26939010620117,0.278867244720459,1.091131329536438,0.0,0.0,0.0,0.0,0.0,0.0,0.0,0.0,0.0,-0.006837493274360895,0.0036641238257288933,0.05774177610874176,0.0,0.0,0.0,0.0,0.0,0.0,0.0,0.0,0.0
1606990960391799271,4011043,1606987359316575837,imu_link,0.007800482679158449,0.0059804897755384445,0.3928573429584503,0.919546902179718,0.0,0.0,0.0,0.0,0.0,0.0,0.0,0.0,0.0,46.26983642578125,0.2790159583091736,1.0912641286849976,0.0,0.0,0.0,0.0,0.0,0.0,0.0,0.0,0.0,-0.011373871006071568,0.003988639451563358,0.05225549265742302,0.0,0.0,0.0,0.0,0.0,0.0,0.0,0.0,0.0
1606990960391810066,4011044,1606987359316661465,imu_link,0.007800482679158449,0.0059804897755384445,0.3928573429584503,0.919546902179718,0.0,0.0,0.0,0.0,0.0,0.0,0.0,0.0,0.0,46.26983642578125,0.2790159583091736,1.0912641286849976,0.0,0.0,0.0,0.0,0.0,0.0,0.0,0.0,0.0,-0.011373871006071568,0.003988639451563358,0.05225549265742302,0.0,0.0,0.0,0.0,0.0,0.0,0.0,0.0,0.0
1606990960391875574,4011045,1606987359316736025,imu_link,0.00780007429420948,0.0059766871854662895,0.3928595781326294,0.9195460081100464,0.0,0.0,0.0,0.0,0.0,0.0,0.0,0.0,0.0,46.270111083984375,0.2786310017108917,1.091050624847412,0.0,0.0,0.0,0.0,0.0,0.0,0.0,0.0,0.0,-0.00901834201067686,-0.009309574030339718,0.03744838386774063,0.0,0.0,0.0,0.0,0.0,0.0,0.0,0.0,0.0
1606990960443437842,4011046,1606987359316807894,imu_link,0.00780007429420948,0.0059766871854662895,0.3928595781326294,0.9195460081100464,0.0,0.0,0.0,0.0,0.0,0.0,0.0,0.0,0.0,46.270111083984375,0.2786310017108917,1.091050624847412,0.0,0.0,0.0,0.0,0.0,0.0,0.0,0.0,0.0,-0.00901834201067686,-0.009309574030339718,0.03744838386774063,0.0,0.0,0.0,0.0,0.0,0.0,0.0,0.0,0.0
1606990960443457577,4011047,1606987359316902566,imu_link,0.0077998461201786995,0.00597684271633625,0.3928617537021637,0.91954505443573,0.0,0.0,0.0,0.0,0.0,0.0,0.0,0.0,0.0,46.270381927490234,0.278655081987381,1.0910342931747437,0.0,0.0,0.0,0.0,0.0,0.0,0.0,0.0,0.0,-0.00039547571213915944,-0.013039414770901203,0.04913165420293808,0.0,0.0,0.0,0.0,0.0,0.0,0.0,0.0,0.0
1606990960443466086,4011048,1606987359316977593,imu_link,0.0077998461201786995,0.00597684271633625,0.3928617537021637,0.91954505443573,0.0,0.0,0.0,0.0,0.0,0.0,0.0,0.0,0.0,46.270381927490234,0.278655081987381,1.0910342931747437,0.0,0.0,0.0,0.0,0.0,0.0,0.0,0.0,0.0,-0.00039547571213915944,-0.013039414770901203,0.04913165420293808,0.0,0.0,0.0,0.0,0.0,0.0,0.0,0.0,0.0
1606990960443475695,4011049,1606987359317054781,imu_link,0.007804040797054768,0.005977556575089693,0.39286214113235474,0.9195448160171509,0.0,0.0,0.0,0.0,0.0,0.0,0.0,0.0,0.0,46.27043151855469,0.2785409688949585,1.0915086269378662,0.0,0.0,0.0,0.0,0.0,0.0,0.0,0.0,0.0,0.010380460880696774,-0.014722604304552078,0.054295528680086136,0.0,0.0,0.0,0.0,0.0,0.0,0.0,0.0,0.0
1606990960457527232,4011050,1606987359317131960,imu_link,0.007804040797054768,0.005977556575089693,0.39286214113235474,0.9195448160171509,0.0,0.0,0.0,0.0,0.0,0.0,0.0,0.0,0.0,46.27043151855469,0.2785409688949585,1.0915086269378662,0.0,0.0,0.0,0.0,0.0,0.0,0.0,0.0,0.0,0.010380460880696774,-0.014722604304552078,0.054295528680086136,0.0,0.0,0.0,0.0,0.0,0.0,0.0,0.0,0.0
1606990960457574489,4011051,1606987359317203886,imu_link,0.007803246844559908,0.005978487432003021,0.39286375045776367,0.9195441603660583,0.0,0.0,0.0,0.0,0.0,0.0,0.0,0.0,0.0,46.270633697509766,0.27867287397384644,1.0914673805236816,0.0,0.0,0.0,0.0,0.0,0.0,0.0,0.0,0.0,0.0011433317558839917,-0.0033561813179403543,0.03283645957708359,0.0,0.0,0.0,0.0,0.0,0.0,0.0,0.0,0.0
1606990960457592355,4011052,1606987359330227026,imu_link,0.007803246844559908,0.005978487432003021,0.39286375045776367,0.9195441603660583,0.0,0.0,0.0,0.0,0.0,0.0,0.0,0.0,0.0,46.270633697509766,0.27867287397384644,1.0914673805236816,0.0,0.0,0.0,0.0,0.0,0.0,0.0,0.0,0.0,0.0011433317558839917,-0.0033561813179403543,0.03283645957708359,0.0,0.0,0.0,0.0,0.0,0.0,0.0,0.0,0.0
1606990960457644598,4011053,1606987359330351568,imu_link,0.007803969085216522,0.005978482775390148,0.39286473393440247,0.9195437431335449,0.0,0.0,0.0,0.0,0.0,0.0,0.0,0.0,0.0,46.27075958251953,0.2786387503147125,1.091543436050415,0.0,0.0,0.0,0.0,0.0,0.0,0.0,0.0,0.0,-0.0109693119302392,-0.005535806994885206,0.033101413398981094,0.0,0.0,0.0,0.0,0.0,0.0,0.0,0.0,0.0
1606990960457661279,4011054,1606987359330434386,imu_link,0.007803969085216522,0.005978482775390148,0.39286473393440247,0.9195437431335449,0.0,0.0,0.0,0.0,0.0,0.0,0.0,0.0,0.0,46.27075958251953,0.2786387503147125,1.091543436050415,0.0,0.0,0.0,0.0,0.0,0.0,0.0,0.0,0.0,-0.0109693119302392,-0.005535806994885206,0.033101413398981094,0.0,0.0,0.0,0.0,0.0,0.0,0.0,0.0,0.0
1606990960466034038,4011055,1606987359330531425,imu_link,0.007803494576364756,0.0059787556529045105,0.39286544919013977,0.919543445110321,0.0,0.0,0.0,0.0,0.0,0.0,0.0,0.0,0.0,46.27083969116211,0.2786880135536194,1.0915061235427856,0.0,0.0,0.0,0.0,0.0,0.0,0.0,0.0,0.0,-0.008855795487761497,-0.008807004429399967,0.03248055651783943,0.0,0.0,0.0,0.0,0.0,0.0,0.0,0.0,0.0
1606990960466079929,4011056,1606987359330619072,imu_link,0.007803494576364756,0.0059787556529045105,0.39286544919013977,0.919543445110321,0.0,0.0,0.0,0.0,0.0,0.0,0.0,0.0,0.0,46.27083969116211,0.2786880135536194,1.0915061235427856,0.0,0.0,0.0,0.0,0.0,0.0,0.0,0.0,0.0,-0.008855795487761497,-0.008807004429399967,0.03248055651783943,0.0,0.0,0.0,0.0,0.0,0.0,0.0,0.0,0.0
1606990960466095669,4011057,1606987359330701275,imu_link,0.007806985639035702,0.00597738241776824,0.3928653597831726,0.9195435047149658,0.0,0.0,0.0,0.0,0.0,0.0,0.0,0.0,0.0,46.27082824707031,0.27838626503944397,1.091812014579773,0.0,0.0,0.0,0.0,0.0,0.0,0.0,0.0,0.0,-0.014944102615118027,0.005407084245234728,0.023671751841902733,0.0,0.0,0.0,0.0,0.0,0.0,0.0,0.0,0.0
1606990960466103535,4011058,1606987359330788289,imu_link,0.007806985639035702,0.00597738241776824,0.3928653597831726,0.9195435047149658,0.0,0.0,0.0,0.0,0.0,0.0,0.0,0.0,0.0,46.27082824707031,0.27838626503944397,1.091812014579773,0.0,0.0,0.0,0.0,0.0,0.0,0.0,0.0,0.0,-0.014944102615118027,0.005407084245234728,0.023671751841902733,0.0,0.0,0.0,0.0,0.0,0.0,0.0,0.0,0.0
1606990960506045643,4011059,1606987359330862043,imu_link,0.0078076147474348545,0.0059773968532681465,0.3928663432598114,0.9195430278778076,0.0,0.0,0.0,0.0,0.0,0.0,0.0,0.0,0.0,46.270957946777344,0.27835822105407715,1.0918792486190796,0.0,0.0,0.0,0.0,0.0,0.0,0.0,0.0,0.0,-0.0210563987493515,0.00437846127897501,0.04289812594652176,0.0,0.0,0.0,0.0,0.0,0.0,0.0,0.0,0.0
1606990960506076809,4011060,1606987359330926904,imu_link,0.0078076147474348545,0.0059773968532681465,0.3928663432598114,0.9195430278778076,0.0,0.0,0.0,0.0,0.0,0.0,0.0,0.0,0.0,46.270957946777344,0.27835822105407715,1.0918792486190796,0.0,0.0,0.0,0.0,0.0,0.0,0.0,0.0,0.0,-0.0210563987493515,0.00437846127897501,0.04289812594652176,0.0,0.0,0.0,0.0,0.0,0.0,0.0,0.0,0.0
1606990960506124035,4011061,1606987359331042833,imu_link,0.007809045258909464,0.005974514875560999,0.39286768436431885,0.9195424914360046,0.0,0.0,0.0,0.0,0.0,0.0,0.0,0.0,0.0,46.2711181640625,0.27798858284950256,1.0919005870819092,0.0,0.0,0.0,0.0,0.0,0.0,0.0,0.0,0.0,-0.02269265055656433,0.006062933709472418,0.05821343883872032,0.0,0.0,0.0,0.0,0.0,0.0,0.0,0.0,0.0
1606990960506140187,4011062,1606987359331127519,imu_link,0.007809045258909464,0.005974514875560999,0.39286768436431885,0.9195424914360046,0.0,0.0,0.0,0.0,0.0,0.0,0.0,0.0,0.0,46.2711181640625,0.27798858284950256,1.0919005870819092,0.0,0.0,0.0,0.0,0.0,0.0,0.0,0.0,0.0,-0.02269265055656433,0.006062933709472418,0.05821343883872032,0.0,0.0,0.0,0.0,0.0,0.0,0.0,0.0,0.0
1606990960506149975,4011063,1606987359343664253,imu_link,0.007808045018464327,0.00597485201433301,0.3928687572479248,0.9195420145988464,0.0,0.0,0.0,0.0,0.0,0.0,0.0,0.0,0.0,46.2712516784668,0.27806785702705383,1.0918108224868774,0.0,0.0,0.0,0.0,0.0,0.0,0.0,0.0,0.0,-0.0167771577835083,0.025797707960009575,0.04287612810730934,0.0,0.0,0.0,0.0,0.0,0.0,0.0,0.0,0.0
1606990960572157049,4011064,1606987359343810461,imu_link,0.007808045018464327,0.00597485201433301,0.3928687572479248,0.9195420145988464,0.0,0.0,0.0,0.0,0.0,0.0,0.0,0.0,0.0,46.2712516784668,0.27806785702705383,1.0918108224868774,0.0,0.0,0.0,0.0,0.0,0.0,0.0,0.0,0.0,-0.0167771577835083,0.025797707960009575,0.04287612810730934,0.0,0.0,0.0,0.0,0.0,0.0,0.0,0.0,0.0
1606990960572185016,4011065,1606987359343962072,imu_link,0.0078061046078801155,0.005971814971417189,0.3928675353527069,0.9195425510406494,0.0,0.0,0.0,0.0,0.0,0.0,0.0,0.0,0.0,46.271095275878906,0.2778366804122925,1.091469168663025,0.0,0.0,0.0,0.0,0.0,0.0,0.0,0.0,0.0,0.0048343283124268055,0.02441387251019478,0.03404220938682556,0.0,0.0,0.0,0.0,0.0,0.0,0.0,0.0,0.0
1606990960572197793,4011066,1606987359344059087,imu_link,0.0078061046078801155,0.005971814971417189,0.3928675353527069,0.9195425510406494,0.0,0.0,0.0,0.0,0.0,0.0,0.0,0.0,0.0,46.271095275878906,0.2778366804122925,1.091469168663025,0.0,0.0,0.0,0.0,0.0,0.0,0.0,0.0,0.0,0.0048343283124268055,0.02441387251019478,0.03404220938682556,0.0,0.0,0.0,0.0,0.0,0.0,0.0,0.0,0.0
1606990960572208488,4011067,1606987359344142936,imu_link,0.007807248737663031,0.005971548613160849,0.39286741614341736,0.9195426106452942,0.0,0.0,0.0,0.0,0.0,0.0,0.0,0.0,0.0,46.271080017089844,0.2777572274208069,1.0915777683258057,0.0,0.0,0.0,0.0,0.0,0.0,0.0,0.0,0.0,0.005979621782898903,0.0038357318844646215,0.02589227817952633,0.0,0.0,0.0,0.0,0.0,0.0,0.0,0.0,0.0
1606990960581497657,4011068,1606987359344226955,imu_link,0.007807248737663031,0.005971548613160849,0.39286741614341736,0.9195426106452942,0.0,0.0,0.0,0.0,0.0,0.0,0.0,0.0,0.0,46.271080017089844,0.2777572274208069,1.0915777683258057,0.0,0.0,0.0,0.0,0.0,0.0,0.0,0.0,0.0,0.005979621782898903,0.0038357318844646215,0.02589227817952633,0.0,0.0,0.0,0.0,0.0,0.0,0.0,0.0,0.0
1606990960581535557,4011069,1606987359344331232,imu_link,0.007804044988006353,0.005973378662019968,0.39286690950393677,0.9195428490638733,0.0,0.0,0.0,0.0,0.0,0.0,0.0,0.0,0.0,46.271018981933594,0.27809491753578186,1.0913221836090088,0.0,0.0,0.0,0.0,0.0,0.0,0.0,0.0,0.0,0.01657036878168583,8.92187817953527e-05,0.017211951315402985,0.0,0.0,0.0,0.0,0.0,0.0,0.0,0.0,0.0
1606990960581554304,4011070,1606987359344414955,imu_link,0.007804044988006353,0.005973378662019968,0.39286690950393677,0.9195428490638733,0.0,0.0,0.0,0.0,0.0,0.0,0.0,0.0,0.0,46.271018981933594,0.27809491753578186,1.0913221836090088,0.0,0.0,0.0,0.0,0.0,0.0,0.0,0.0,0.0,0.01657036878168583,8.92187817953527e-05,0.017211951315402985,0.0,0.0,0.0,0.0,0.0,0.0,0.0,0.0,0.0
1606990960581565833,4011071,1606987359344495707,imu_link,0.007806316949427128,0.005972277373075485,0.39286714792251587,0.9195427298545837,0.0,0.0,0.0,0.0,0.0,0.0,0.0,0.0,0.0,46.27104568481445,0.2778763175010681,1.0915122032165527,0.0,0.0,0.0,0.0,0.0,0.0,0.0,0.0,0.0,0.022106146439909935,0.0004306292103137821,0.022194208577275276,0.0,0.0,0.0,0.0,0.0,0.0,0.0,0.0,0.0
1606990960581580524,4011072,1606987359344578228,imu_link,0.007806316949427128,0.005972277373075485,0.39286714792251587,0.9195427298545837,0.0,0.0,0.0,0.0,0.0,0.0,0.0,0.0,0.0,46.27104568481445,0.2778763175010681,1.0915122032165527,0.0,0.0,0.0,0.0,0.0,0.0,0.0,0.0,0.0,0.022106146439909935,0.0004306292103137821,0.022194208577275276,0.0,0.0,0.0,0.0,0.0,0.0,0.0,0.0,0.0
1606990960593462937,4011073,1606987359344658744,imu_link,0.007804711814969778,0.005974617321044207,0.3928675353527069,0.9195425510406494,0.0,0.0,0.0,0.0,0.0,0.0,0.0,0.0,0.0,46.27109909057617,0.2781946361064911,1.0914485454559326,0.0,0.0,0.0,0.0,0.0,0.0,0.0,0.0,0.0,-0.011693010106682777,0.00019104231614619493,0.036555349826812744,0.0,0.0,0.0,0.0,0.0,0.0,0.0,0.0,0.0
1606990960593575287,4011074,1606987359357478223,imu_link,0.007804711814969778,0.005974617321044207,0.3928675353527069,0.9195425510406494,0.0,0.0,0.0,0.0,0.0,0.0,0.0,0.0,0.0,46.27109909057617,0.2781946361064911,1.0914485454559326,0.0,0.0,0.0,0.0,0.0,0.0,0.0,0.0,0.0,-0.011693010106682777,0.00019104231614619493,0.036555349826812744,0.0,0.0,0.0,0.0,0.0,0.0,0.0,0.0,0.0
1606990960593634064,4011075,1606987359357622602,imu_link,0.007802674546837807,0.005976392421871424,0.3928687572479248,0.9195420145988464,0.0,0.0,0.0,0.0,0.0,0.0,0.0,0.0,0.0,46.27125930786133,0.278471976518631,1.0913141965866089,0.0,0.0,0.0,0.0,0.0,0.0,0.0,0.0,0.0,-0.008523548021912575,0.0005144725437276065,0.034048255532979965,0.0,0.0,0.0,0.0,0.0,0.0,0.0,0.0,0.0
1606990960593653185,4011076,1606987359357774102,imu_link,0.007802674546837807,0.005976392421871424,0.3928687572479248,0.9195420145988464,0.0,0.0,0.0,0.0,0.0,0.0,0.0,0.0,0.0,46.27125930786133,0.278471976518631,1.0913141965866089,0.0,0.0,0.0,0.0,0.0,0.0,0.0,0.0,0.0,-0.008523548021912575,0.0005144725437276065,0.034048255532979965,0.0,0.0,0.0,0.0,0.0,0.0,0.0,0.0,0.0
1606990960599532126,4011077,1606987359357874866,imu_link,0.007804394233971834,0.005975005216896534,0.39286887645721436,0.9195420145988464,0.0,0.0,0.0,0.0,0.0,0.0,0.0,0.0,0.0,46.271263122558594,0.27824822068214417,1.0914329290390015,0.0,0.0,0.0,0.0,0.0,0.0,0.0,0.0,0.0,0.019239019602537155,0.0020381177309900522,0.019490445032715797,0.0,0.0,0.0,0.0,0.0,0.0,0.0,0.0,0.0
1606990960599580284,4011078,1606987359357954886,imu_link,0.007804394233971834,0.005975005216896534,0.39286887645721436,0.9195420145988464,0.0,0.0,0.0,0.0,0.0,0.0,0.0,0.0,0.0,46.271263122558594,0.27824822068214417,1.0914329290390015,0.0,0.0,0.0,0.0,0.0,0.0,0.0,0.0,0.0,0.019239019602537155,0.0020381177309900522,0.019490445032715797,0.0,0.0,0.0,0.0,0.0,0.0,0.0,0.0,0.0
1606990960599602952,4011079,1606987359358055709,imu_link,0.007804051507264376,0.0059745702892541885,0.39287200570106506,0.9195407032966614,0.0,0.0,0.0,0.0,0.0,0.0,0.0,0.0,0.0,46.27165222167969,0.2782141864299774,1.091378092765808,0.0,0.0,0.0,0.0,0.0,0.0,0.0,0.0,0.0,0.015434621833264828,0.005621297750622034,0.013567989692091942,0.0,0.0,0.0,0.0,0.0,0.0,0.0,0.0,0.0
1606990960599638597,4011080,1606987359358140641,imu_link,0.007804051507264376,0.0059745702892541885,0.39287200570106506,0.9195407032966614,0.0,0.0,0.0,0.0,0.0,0.0,0.0,0.0,0.0,46.27165222167969,0.2782141864299774,1.091378092765808,0.0,0.0,0.0,0.0,0.0,0.0,0.0,0.0,0.0,0.015434621833264828,0.005621297750622034,0.013567989692091942,0.0,0.0,0.0,0.0,0.0,0.0,0.0,0.0,0.0
1606990960599666920,4011081,1606987359358226519,imu_link,0.007802776526659727,0.005974486470222473,0.39287370443344116,0.9195399880409241,0.0,0.0,0.0,0.0,0.0,0.0,0.0,0.0,0.0,46.27186584472656,0.2782607078552246,1.0912405252456665,0.0,0.0,0.0,0.0,0.0,0.0,0.0,0.0,0.0,0.01529234554618597,-0.00934501364827156,0.017631592229008675,0.0,0.0,0.0,0.0,0.0,0.0,0.0,0.0,0.0
1606990960648413926,4011082,1606987359358308464,imu_link,0.007802776526659727,0.005974486470222473,0.39287370443344116,0.9195399880409241,0.0,0.0,0.0,0.0,0.0,0.0,0.0,0.0,0.0,46.27186584472656,0.2782607078552246,1.0912405252456665,0.0,0.0,0.0,0.0,0.0,0.0,0.0,0.0,0.0,0.01529234554618597,-0.00934501364827156,0.017631592229008675,0.0,0.0,0.0,0.0,0.0,0.0,0.0,0.0,0.0
1606990960648440269,4011083,1606987359358394754,imu_link,0.007801644969731569,0.005974479950964451,0.39287376403808594,0.9195399880409241,0.0,0.0,0.0,0.0,0.0,0.0,0.0,0.0,0.0,46.271873474121094,0.2783109247684479,1.0911210775375366,0.0,0.0,0.0,0.0,0.0,0.0,0.0,0.0,0.0,0.0002233692939626053,-0.01078413799405098,0.041168034076690674,0.0,0.0,0.0,0.0,0.0,0.0,0.0,0.0,0.0
1606990960648457042,4011084,1606987359358475430,imu_link,0.007801644969731569,0.005974479950964451,0.39287376403808594,0.9195399880409241,0.0,0.0,0.0,0.0,0.0,0.0,0.0,0.0,0.0,46.271873474121094,0.2783109247684479,1.0911210775375366,0.0,0.0,0.0,0.0,0.0,0.0,0.0,0.0,0.0,0.0002233692939626053,-0.01078413799405098,0.041168034076690674,0.0,0.0,0.0,0.0,0.0,0.0,0.0,0.0,0.0
1606990960648467570,4011085,1606987359367398005,imu_link,0.007803978398442268,0.005978439003229141,0.3928743600845337,0.9195396304130554,0.0,0.0,0.0,0.0,0.0,0.0,0.0,0.0,0.0,46.27195358276367,0.27862223982810974,1.0915453433990479,0.0,0.0,0.0,0.0,0.0,0.0,0.0,0.0,0.0,-0.0221258532255888,0.0038144802674651146,0.03675788268446922,0.0,0.0,0.0,0.0,0.0,0.0,0.0,0.0,0.0
1606990960662672462,4011086,1606987359367524879,imu_link,0.007803978398442268,0.005978439003229141,0.3928743600845337,0.9195396304130554,0.0,0.0,0.0,0.0,0.0,0.0,0.0,0.0,0.0,46.27195358276367,0.27862223982810974,1.0915453433990479,0.0,0.0,0.0,0.0,0.0,0.0,0.0,0.0,0.0,-0.0221258532255888,0.0038144802674651146,0.03675788268446922,0.0,0.0,0.0,0.0,0.0,0.0,0.0,0.0,0.0
1606990960662699267,4011087,1606987359367704078,imu_link,0.007804743014276028,0.005977610591799021,0.3928758203983307,0.9195390343666077,0.0,0.0,0.0,0.0,0.0,0.0,0.0,0.0,0.0,46.272132873535156,0.2784988284111023,1.091589093208313,0.0,0.0,0.0,0.0,0.0,0.0,0.0,0.0,0.0,-0.01718789152801037,0.015073126181960106,0.012829684652388096,0.0,0.0,0.0,0.0,0.0,0.0,0.0,0.0,0.0
1606990960662709858,4011088,1606987359367792292,imu_link,0.007804743014276028,0.005977610591799021,0.3928758203983307,0.9195390343666077,0.0,0.0,0.0,0.0,0.0,0.0,0.0,0.0,0.0,46.272132873535156,0.2784988284111023,1.091589093208313,0.0,0.0,0.0,0.0,0.0,0.0,0.0,0.0,0.0,-0.01718789152801037,0.015073126181960106,0.012829684652388096,0.0,0.0,0.0,0.0,0.0,0.0,0.0,0.0,0.0
1606990960662749339,4011089,1606987359367953536,imu_link,0.00780348340049386,0.0059748198837041855,0.3928738534450531,0.9195399284362793,0.0,0.0,0.0,0.0,0.0,0.0,0.0,0.0,0.0,46.27187728881836,0.2782638669013977,1.0913300514221191,0.0,0.0,0.0,0.0,0.0,0.0,0.0,0.0,0.0,-0.005773443728685379,0.012430956587195396,0.009999624453485012,0.0,0.0,0.0,0.0,0.0,0.0,0.0,0.0,0.0
1606990960662779773,4011090,1606987359368057095,imu_link,0.00780348340049386,0.0059748198837041855,0.3928738534450531,0.9195399284362793,0.0,0.0,0.0,0.0,0.0,0.0,0.0,0.0,0.0,46.27187728881836,0.2782638669013977,1.0913300514221191,0.0,0.0,0.0,0.0,0.0,0.0,0.0,0.0,0.0,-0.005773443728685379,0.012430956587195396,0.009999624453485012,0.0,0.0,0.0,0.0,0.0,0.0,0.0,0.0,0.0
1606990960668907259,4011091,1606987359368140373,imu_link,0.007804861292243004,0.005976115819066763,0.3928772509098053,0.9195384383201599,0.0,0.0,0.0,0.0,0.0,0.0,0.0,0.0,0.0,46.272308349609375,0.2783343493938446,1.0915344953536987,0.0,0.0,0.0,0.0,0.0,0.0,0.0,0.0,0.0,0.011364632286131382,0.002542029833421111,0.02877325750887394,0.0,0.0,0.0,0.0,0.0,0.0,0.0,0.0,0.0
1606990960668935450,4011092,1606987359380173030,imu_link,0.007804861292243004,0.005976115819066763,0.3928772509098053,0.9195384383201599,0.0,0.0,0.0,0.0,0.0,0.0,0.0,0.0,0.0,46.272308349609375,0.2783343493938446,1.0915344953536987,0.0,0.0,0.0,0.0,0.0,0.0,0.0,0.0,0.0,0.011364632286131382,0.002542029833421111,0.02877325750887394,0.0,0.0,0.0,0.0,0.0,0.0,0.0,0.0,0.0
1606990960668956542,4011093,1606987359380314813,imu_link,0.007803329266607761,0.005977099761366844,0.3928782045841217,0.9195380210876465,0.0,0.0,0.0,0.0,0.0,0.0,0.0,0.0,0.0,46.272430419921875,0.2785058319568634,1.091417908668518,0.0,0.0,0.0,0.0,0.0,0.0,0.0,0.0,0.0,0.017084859311580658,0.0034591518342494965,0.0418848842382431,0.0,0.0,0.0,0.0,0.0,0.0,0.0,0.0,0.0
1606990960668993995,4011094,1606987359380466890,imu_link,0.007803329266607761,0.005977099761366844,0.3928782045841217,0.9195380210876465,0.0,0.0,0.0,0.0,0.0,0.0,0.0,0.0,0.0,46.272430419921875,0.2785058319568634,1.091417908668518,0.0,0.0,0.0,0.0,0.0,0.0,0.0,0.0,0.0,0.017084859311580658,0.0034591518342494965,0.0418848842382431,0.0,0.0,0.0,0.0,0.0,0.0,0.0,0.0,0.0
1606990960673021505,4011095,1606987359380564175,imu_link,0.007804069668054581,0.005977301392704248,0.3928811252117157,0.9195367693901062,0.0,0.0,0.0,0.0,0.0,0.0,0.0,0.0,0.0,46.27279281616211,0.27849024534225464,1.0915058851242065,0.0,0.0,0.0,0.0,0.0,0.0,0.0,0.0,0.0,0.0021319256629794836,0.001955182058736682,0.05869647115468979,0.0,0.0,0.0,0.0,0.0,0.0,0.0,0.0,0.0
1606990960673043046,4011096,1606987359380662648,imu_link,0.007804069668054581,0.005977301392704248,0.3928811252117157,0.9195367693901062,0.0,0.0,0.0,0.0,0.0,0.0,0.0,0.0,0.0,46.27279281616211,0.27849024534225464,1.0915058851242065,0.0,0.0,0.0,0.0,0.0,0.0,0.0,0.0,0.0,0.0021319256629794836,0.001955182058736682,0.05869647115468979,0.0,0.0,0.0,0.0,0.0,0.0,0.0,0.0,0.0
1606990960673051385,4011097,1606987359380745024,imu_link,0.007803752087056637,0.005977650173008442,0.39288145303726196,0.9195366501808167,0.0,0.0,0.0,0.0,0.0,0.0,0.0,0.0,0.0,46.27283477783203,0.2785409688949585,1.0914881229400635,0.0,0.0,0.0,0.0,0.0,0.0,0.0,0.0,0.0,-0.0235898457467556,0.00730233546346426,0.0762857049703598,0.0,0.0,0.0,0.0,0.0,0.0,0.0,0.0,0.0
1606990960673061743,4011098,1606987359380847842,imu_link,0.007803752087056637,0.005977650173008442,0.39288145303726196,0.9195366501808167,0.0,0.0,0.0,0.0,0.0,0.0,0.0,0.0,0.0,46.27283477783203,0.2785409688949585,1.0914881229400635,0.0,0.0,0.0,0.0,0.0,0.0,0.0,0.0,0.0,-0.0235898457467556,0.00730233546346426,0.0762857049703598,0.0,0.0,0.0,0.0,0.0,0.0,0.0,0.0,0.0
1606990960673113328,4011099,1606987359380930974,imu_link,0.0078048561699688435,0.0059763542376458645,0.39288297295570374,0.9195359945297241,0.0,0.0,0.0,0.0,0.0,0.0,0.0,0.0,0.0,46.27302169799805,0.27835288643836975,1.0915465354919434,0.0,0.0,0.0,0.0,0.0,0.0,0.0,0.0,0.0,-0.015284383669495583,0.011388148181140423,0.04781566187739372,0.0,0.0,0.0,0.0,0.0,0.0,0.0,0.0,0.0
1606990960748308520,4011100,1606987359381013646,imu_link,0.0078048561699688435,0.0059763542376458645,0.39288297295570374,0.9195359945297241,0.0,0.0,0.0,0.0,0.0,0.0,0.0,0.0,0.0,46.27302169799805,0.27835288643836975,1.0915465354919434,0.0,0.0,0.0,0.0,0.0,0.0,0.0,0.0,0.0,-0.015284383669495583,0.011388148181140423,0.04781566187739372,0.0,0.0,0.0,0.0,0.0,0.0,0.0,0.0,0.0
1606990960748347115,4011101,1606987359381094383,imu_link,0.00780454883351922,0.005971778649836779,0.39288440346717834,0.9195353984832764,0.0,0.0,0.0,0.0,0.0,0.0,0.0,0.0,0.0,46.273193359375,0.2778829038143158,1.09130859375,0.0,0.0,0.0,0.0,0.0,0.0,0.0,0.0,0.0,0.0012582963099703193,0.011810960248112679,0.04370344057679176,0.0,0.0,0.0,0.0,0.0,0.0,0.0,0.0,0.0
1606990960748367750,4011102,1606987359381174939,imu_link,0.00780454883351922,0.005971778649836779,0.39288440346717834,0.9195353984832764,0.0,0.0,0.0,0.0,0.0,0.0,0.0,0.0,0.0,46.273193359375,0.2778829038143158,1.09130859375,0.0,0.0,0.0,0.0,0.0,0.0,0.0,0.0,0.0,0.0012582963099703193,0.011810960248112679,0.04370344057679176,0.0,0.0,0.0,0.0,0.0,0.0,0.0,0.0,0.0
1606990960748385344,4011103,1606987359393580599,imu_link,0.007803850341588259,0.005969400517642498,0.39288419485092163,0.9195355176925659,0.0,0.0,0.0,0.0,0.0,0.0,0.0,0.0,0.0,46.273162841796875,0.27766406536102295,1.091127872467041,0.0,0.0,0.0,0.0,0.0,0.0,0.0,0.0,0.0,-0.011332383379340172,0.0017451829044148326,0.05194004997611046,0.0,0.0,0.0,0.0,0.0,0.0,0.0,0.0,0.0
1606990960754429067,4011104,1606987359393699044,imu_link,0.007803850341588259,0.005969400517642498,0.39288419485092163,0.9195355176925659,0.0,0.0,0.0,0.0,0.0,0.0,0.0,0.0,0.0,46.273162841796875,0.27766406536102295,1.091127872467041,0.0,0.0,0.0,0.0,0.0,0.0,0.0,0.0,0.0,-0.011332383379340172,0.0017451829044148326,0.05194004997611046,0.0,0.0,0.0,0.0,0.0,0.0,0.0,0.0,0.0
1606990960754466377,4011105,1606987359393778317,imu_link,0.007803978864103556,0.0059668379835784435,0.39288270473480225,0.9195361733436584,0.0,0.0,0.0,0.0,0.0,0.0,0.0,0.0,0.0,46.272979736328125,0.2773900330066681,1.091025471687317,0.0,0.0,0.0,0.0,0.0,0.0,0.0,0.0,0.0,-0.02271396294236183,-0.00940586905926466,0.029880082234740257,0.0,0.0,0.0,0.0,0.0,0.0,0.0,0.0,0.0
1606990960754512336,4011106,1606987359393873783,imu_link,0.007803978864103556,0.0059668379835784435,0.39288270473480225,0.9195361733436584,0.0,0.0,0.0,0.0,0.0,0.0,0.0,0.0,0.0,46.272979736328125,0.2773900330066681,1.091025471687317,0.0,0.0,0.0,0.0,0.0,0.0,0.0,0.0,0.0,-0.02271396294236183,-0.00940586905926466,0.029880082234740257,0.0,0.0,0.0,0.0,0.0,0.0,0.0,0.0,0.0
1606990960754532994,4011107,1606987359393959757,imu_link,0.007804538123309612,0.005967427510768175,0.3928833603858948,0.9195358753204346,0.0,0.0,0.0,0.0,0.0,0.0,0.0,0.0,0.0,46.2730598449707,0.277426153421402,1.091111183166504,0.0,0.0,0.0,0.0,0.0,0.0,0.0,0.0,0.0,-0.006863826885819435,-0.018496941775083542,0.016301902011036873,0.0,0.0,0.0,0.0,0.0,0.0,0.0,0.0,0.0
1606990960754556689,4011108,1606987359394039341,imu_link,0.007804538123309612,0.005967427510768175,0.3928833603858948,0.9195358753204346,0.0,0.0,0.0,0.0,0.0,0.0,0.0,0.0,0.0,46.2730598449707,0.277426153421402,1.091111183166504,0.0,0.0,0.0,0.0,0.0,0.0,0.0,0.0,0.0,-0.006863826885819435,-0.018496941775083542,0.016301902011036873,0.0,0.0,0.0,0.0,0.0,0.0,0.0,0.0,0.0
1606990960768369577,4011109,1606987359394138741,imu_link,0.0078093186020851135,0.0059676747769117355,0.39288291335105896,0.9195360541343689,0.0,0.0,0.0,0.0,0.0,0.0,0.0,0.0,0.0,46.273006439208984,0.27723753452301025,1.0916259288787842,0.0,0.0,0.0,0.0,0.0,0.0,0.0,0.0,0.0,0.017511725425720215,-0.009267404675483704,0.02862909622490406,0.0,0.0,0.0,0.0,0.0,0.0,0.0,0.0,0.0
1606990960768412907,4011110,1606987359394222130,imu_link,0.0078093186020851135,0.0059676747769117355,0.39288291335105896,0.9195360541343689,0.0,0.0,0.0,0.0,0.0,0.0,0.0,0.0,0.0,46.273006439208984,0.27723753452301025,1.0916259288787842,0.0,0.0,0.0,0.0,0.0,0.0,0.0,0.0,0.0,0.017511725425720215,-0.009267404675483704,0.02862909622490406,0.0,0.0,0.0,0.0,0.0,0.0,0.0,0.0,0.0
1606990960768487426,4011111,1606987359394246002,imu_link,0.007808458060026169,0.0059671588242053986,0.3928839862346649,0.9195355772972107,0.0,0.0,0.0,0.0,0.0,0.0,0.0,0.0,0.0,46.273136138916016,0.27722060680389404,1.0915124416351318,0.0,0.0,0.0,0.0,0.0,0.0,0.0,0.0,0.0,0.009170670062303543,0.009672638960182667,0.04413820430636406,0.0,0.0,0.0,0.0,0.0,0.0,0.0,0.0,0.0
1606990960768498425,4011112,1606987359394269737,imu_link,0.007808458060026169,0.0059671588242053986,0.3928839862346649,0.9195355772972107,0.0,0.0,0.0,0.0,0.0,0.0,0.0,0.0,0.0,46.273136138916016,0.27722060680389404,1.0915124416351318,0.0,0.0,0.0,0.0,0.0,0.0,0.0,0.0,0.0,0.009170670062303543,0.009672638960182667,0.04413820430636406,0.0,0.0,0.0,0.0,0.0,0.0,0.0,0.0,0.0
1606990960774946291,4011113,1606987359394293625,imu_link,0.007807343732565641,0.005966708529740572,0.3928855359554291,0.9195349216461182,0.0,0.0,0.0,0.0,0.0,0.0,0.0,0.0,0.0,46.27333450317383,0.2772215008735657,1.0913751125335693,0.0,0.0,0.0,0.0,0.0,0.0,0.0,0.0,0.0,0.0015607521636411548,0.003950849175453186,0.040911007672548294,0.0,0.0,0.0,0.0,0.0,0.0,0.0,0.0,0.0
1606990960774992642,4011114,1606987359407405299,imu_link,0.007807343732565641,0.005966708529740572,0.3928855359554291,0.9195349216461182,0.0,0.0,0.0,0.0,0.0,0.0,0.0,0.0,0.0,46.27333450317383,0.2772215008735657,1.0913751125335693,0.0,0.0,0.0,0.0,0.0,0.0,0.0,0.0,0.0,0.0015607521636411548,0.003950849175453186,0.040911007672548294,0.0,0.0,0.0,0.0,0.0,0.0,0.0,0.0,0.0
1606990960775010132,4011115,1606987359407473686,imu_link,0.007809567730873823,0.0059663234278559685,0.3928864002227783,0.9195345640182495,0.0,0.0,0.0,0.0,0.0,0.0,0.0,0.0,0.0,46.273441314697266,0.2770797312259674,1.0915923118591309,0.0,0.0,0.0,0.0,0.0,0.0,0.0,0.0,0.0,0.013946962542831898,-0.0004093027673661709,0.042571570724248886,0.0,0.0,0.0,0.0,0.0,0.0,0.0,0.0,0.0
1606990960775122532,4011116,1606987359407523207,imu_link,0.007809567730873823,0.0059663234278559685,0.3928864002227783,0.9195345640182495,0.0,0.0,0.0,0.0,0.0,0.0,0.0,0.0,0.0,46.273441314697266,0.2770797312259674,1.0915923118591309,0.0,0.0,0.0,0.0,0.0,0.0,0.0,0.0,0.0,0.013946962542831898,-0.0004093027673661709,0.042571570724248886,0.0,0.0,0.0,0.0,0.0,0.0,0.0,0.0,0.0
1606990960868241973,4011117,1606987359407561072,imu_link,0.007806932553648949,0.005967667326331139,0.39288654923439026,0.9195345044136047,0.0,0.0,0.0,0.0,0.0,0.0,0.0,0.0,0.0,46.273460388183594,0.2773398458957672,1.0913752317428589,0.0,0.0,0.0,0.0,0.0,0.0,0.0,0.0,0.0,0.02336692437529564,-0.007042814511805773,0.014178402721881866,0.0,0.0,0.0,0.0,0.0,0.0,0.0,0.0,0.0
1606990960868282380,4011118,1606987359407597757,imu_link,0.007806932553648949,0.005967667326331139,0.39288654923439026,0.9195345044136047,0.0,0.0,0.0,0.0,0.0,0.0,0.0,0.0,0.0,46.273460388183594,0.2773398458957672,1.0913752317428589,0.0,0.0,0.0,0.0,0.0,0.0,0.0,0.0,0.0,0.02336692437529564,-0.007042814511805773,0.014178402721881866,0.0,0.0,0.0,0.0,0.0,0.0,0.0,0.0,0.0
1606990960868296225,4011119,1606987359407640556,imu_link,0.0078084273263812065,0.005968480836600065,0.39288750290870667,0.9195340871810913,0.0,0.0,0.0,0.0,0.0,0.0,0.0,0.0,0.0,46.27357864379883,0.2773571014404297,1.0915696620941162,0.0,0.0,0.0,0.0,0.0,0.0,0.0,0.0,0.0,0.021661600098013878,-0.015813997015357018,0.010751746594905853,0.0,0.0,0.0,0.0,0.0,0.0,0.0,0.0,0.0
1606990960868307044,4011120,1606987359407677473,imu_link,0.0078084273263812065,0.005968480836600065,0.39288750290870667,0.9195340871810913,0.0,0.0,0.0,0.0,0.0,0.0,0.0,0.0,0.0,46.27357864379883,0.2773571014404297,1.0915696620941162,0.0,0.0,0.0,0.0,0.0,0.0,0.0,0.0,0.0,0.021661600098013878,-0.015813997015357018,0.010751746594905853,0.0,0.0,0.0,0.0,0.0,0.0,0.0,0.0,0.0
1606990960868322994,4011121,1606987359407711739,imu_link,0.007809520699083805,0.005972304381430149,0.39288970828056335,0.9195331335067749,0.0,0.0,0.0,0.0,0.0,0.0,0.0,0.0,0.0,46.27385711669922,0.27770814299583435,1.0918577909469604,0.0,0.0,0.0,0.0,0.0,0.0,0.0,0.0,0.0,0.023595605045557022,-0.01032535545527935,0.04841618612408638,0.0,0.0,0.0,0.0,0.0,0.0,0.0,0.0,0.0
1606990960873322004,4011122,1606987359407752346,imu_link,0.007809520699083805,0.005972304381430149,0.39288970828056335,0.9195331335067749,0.0,0.0,0.0,0.0,0.0,0.0,0.0,0.0,0.0,46.27385711669922,0.27770814299583435,1.0918577909469604,0.0,0.0,0.0,0.0,0.0,0.0,0.0,0.0,0.0,0.023595605045557022,-0.01032535545527935,0.04841618612408638,0.0,0.0,0.0,0.0,0.0,0.0,0.0,0.0,0.0
1606990960873361220,4011123,1606987359407788220,imu_link,0.007809219416230917,0.005971428006887436,0.3928893804550171,0.9195332527160645,0.0,0.0,0.0,0.0,0.0,0.0,0.0,0.0,0.0,46.2738151550293,0.2776297628879547,1.091786503791809,0.0,0.0,0.0,0.0,0.0,0.0,0.0,0.0,0.0,0.014637080021202564,0.00605836883187294,0.04941878467798233,0.0,0.0,0.0,0.0,0.0,0.0,0.0,0.0,0.0
1606990960873382017,4011124,1606987359407825451,imu_link,0.007809219416230917,0.005971428006887436,0.3928893804550171,0.9195332527160645,0.0,0.0,0.0,0.0,0.0,0.0,0.0,0.0,0.0,46.2738151550293,0.2776297628879547,1.091786503791809,0.0,0.0,0.0,0.0,0.0,0.0,0.0,0.0,0.0,0.014637080021202564,0.00605836883187294,0.04941878467798233,0.0,0.0,0.0,0.0,0.0,0.0,0.0,0.0,0.0
1606990960873393657,4011125,1606987359420284356,imu_link,0.007807707414031029,0.005973981227725744,0.3928910791873932,0.9195325374603271,0.0,0.0,0.0,0.0,0.0,0.0,0.0,0.0,0.0,46.27402877807617,0.27796486020088196,1.0917426347732544,0.0,0.0,0.0,0.0,0.0,0.0,0.0,0.0,0.0,0.01718316599726677,0.0035712120588868856,0.04357900843024254,0.0,0.0,0.0,0.0,0.0,0.0,0.0,0.0,0.0
1606990960887835754,4011126,1606987359420352894,imu_link,0.007807707414031029,0.005973981227725744,0.3928910791873932,0.9195325374603271,0.0,0.0,0.0,0.0,0.0,0.0,0.0,0.0,0.0,46.27402877807617,0.27796486020088196,1.0917426347732544,0.0,0.0,0.0,0.0,0.0,0.0,0.0,0.0,0.0,0.01718316599726677,0.0035712120588868856,0.04357900843024254,0.0,0.0,0.0,0.0,0.0,0.0,0.0,0.0,0.0
1606990960887869069,4011127,1606987359420400364,imu_link,0.007808859925717115,0.005974757019430399,0.3928923010826111,0.9195320010185242,0.0,0.0,0.0,0.0,0.0,0.0,0.0,0.0,0.0,46.27418518066406,0.27799323201179504,1.0918993949890137,0.0,0.0,0.0,0.0,0.0,0.0,0.0,0.0,0.0,0.03347625210881233,-0.005386716686189175,0.0472588874399662,0.0,0.0,0.0,0.0,0.0,0.0,0.0,0.0,0.0
1606990960887878195,4011128,1606987359420438958,imu_link,0.007808859925717115,0.005974757019430399,0.3928923010826111,0.9195320010185242,0.0,0.0,0.0,0.0,0.0,0.0,0.0,0.0,0.0,46.27418518066406,0.27799323201179504,1.0918993949890137,0.0,0.0,0.0,0.0,0.0,0.0,0.0,0.0,0.0,0.03347625210881233,-0.005386716686189175,0.0472588874399662,0.0,0.0,0.0,0.0,0.0,0.0,0.0,0.0,0.0
1606990960887903751,4011129,1606987359420475879,imu_link,0.007807447575032711,0.005981144029647112,0.39289194345474243,0.9195320010185242,0.0,0.0,0.0,0.0,0.0,0.0,0.0,0.0,0.0,46.2741584777832,0.2787301540374756,1.0920382738113403,0.0,0.0,0.0,0.0,0.0,0.0,0.0,0.0,0.0,0.0032727967482060194,-0.007093838416039944,0.042158134281635284,0.0,0.0,0.0,0.0,0.0,0.0,0.0,0.0,0.0
1606990960887920645,4011130,1606987359420520865,imu_link,0.007807447575032711,0.005981144029647112,0.39289194345474243,0.9195320010185242,0.0,0.0,0.0,0.0,0.0,0.0,0.0,0.0,0.0,46.2741584777832,0.2787301540374756,1.0920382738113403,0.0,0.0,0.0,0.0,0.0,0.0,0.0,0.0,0.0,0.0032727967482060194,-0.007093838416039944,0.042158134281635284,0.0,0.0,0.0,0.0,0.0,0.0,0.0,0.0,0.0
1606990960894043165,4011131,1606987359420558386,imu_link,0.007808344438672066,0.005980421788990498,0.39289048314094543,0.9195327162742615,0.0,0.0,0.0,0.0,0.0,0.0,0.0,0.0,0.0,46.273963928222656,0.27861547470092773,1.0920997858047485,0.0,0.0,0.0,0.0,0.0,0.0,0.0,0.0,0.0,-0.017436204478144646,-0.0032028257846832275,0.046661924570798874,0.0,0.0,0.0,0.0,0.0,0.0,0.0,0.0,0.0
1606990960894100896,4011132,1606987359420592545,imu_link,0.007808344438672066,0.005980421788990498,0.39289048314094543,0.9195327162742615,0.0,0.0,0.0,0.0,0.0,0.0,0.0,0.0,0.0,46.273963928222656,0.27861547470092773,1.0920997858047485,0.0,0.0,0.0,0.0,0.0,0.0,0.0,0.0,0.0,-0.017436204478144646,-0.0032028257846832275,0.046661924570798874,0.0,0.0,0.0,0.0,0.0,0.0,0.0,0.0,0.0
1606990960894111898,4011133,1606987359420627327,imu_link,0.007811154704540968,0.005976138636469841,0.39289095997810364,0.9195324778556824,0.0,0.0,0.0,0.0,0.0,0.0,0.0,0.0,0.0,46.274024963378906,0.27803704142570496,1.092203140258789,0.0,0.0,0.0,0.0,0.0,0.0,0.0,0.0,0.0,0.00337759661488235,0.005291634239256382,0.07044478505849838,0.0,0.0,0.0,0.0,0.0,0.0,0.0,0.0,0.0
1606990960894122627,4011134,1606987359420663064,imu_link,0.007811154704540968,0.005976138636469841,0.39289095997810364,0.9195324778556824,0.0,0.0,0.0,0.0,0.0,0.0,0.0,0.0,0.0,46.274024963378906,0.27803704142570496,1.092203140258789,0.0,0.0,0.0,0.0,0.0,0.0,0.0,0.0,0.0,0.00337759661488235,0.005291634239256382,0.07044478505849838,0.0,0.0,0.0,0.0,0.0,0.0,0.0,0.0,0.0
1606990960992641059,4011135,1606987359433797948,imu_link,0.0078109148889780045,0.005977444350719452,0.39289194345474243,0.919532060623169,0.0,0.0,0.0,0.0,0.0,0.0,0.0,0.0,0.0,46.274147033691406,0.27818426489830017,1.0922369956970215,0.0,0.0,0.0,0.0,0.0,0.0,0.0,0.0,0.0,0.022137906402349472,0.009394459426403046,0.09551936388015747,0.0,0.0,0.0,0.0,0.0,0.0,0.0,0.0,0.0
1606990960992675229,4011136,1606987359433860424,imu_link,0.0078109148889780045,0.005977444350719452,0.39289194345474243,0.919532060623169,0.0,0.0,0.0,0.0,0.0,0.0,0.0,0.0,0.0,46.274147033691406,0.27818426489830017,1.0922369956970215,0.0,0.0,0.0,0.0,0.0,0.0,0.0,0.0,0.0,0.022137906402349472,0.009394459426403046,0.09551936388015747,0.0,0.0,0.0,0.0,0.0,0.0,0.0,0.0,0.0
1606990960992683586,4011137,1606987359433941362,imu_link,0.0078094275668263435,0.0059799859300255775,0.39289143681526184,0.919532299041748,0.0,0.0,0.0,0.0,0.0,0.0,0.0,0.0,0.0,46.274085998535156,0.2785196602344513,1.0921944379806519,0.0,0.0,0.0,0.0,0.0,0.0,0.0,0.0,0.0,0.015983011573553085,0.010648773983120918,0.08052919059991837,0.0,0.0,0.0,0.0,0.0,0.0,0.0,0.0,0.0
1606990960992692895,4011138,1606987359433980883,imu_link,0.0078094275668263435,0.0059799859300255775,0.39289143681526184,0.919532299041748,0.0,0.0,0.0,0.0,0.0,0.0,0.0,0.0,0.0,46.274085998535156,0.2785196602344513,1.0921944379806519,0.0,0.0,0.0,0.0,0.0,0.0,0.0,0.0,0.0,0.015983011573553085,0.010648773983120918,0.08052919059991837,0.0,0.0,0.0,0.0,0.0,0.0,0.0,0.0,0.0
1606990960992700548,4011139,1606987359434016899,imu_link,0.007808731868863106,0.005980886518955231,0.39289170503616333,0.9195321798324585,0.0,0.0,0.0,0.0,0.0,0.0,0.0,0.0,0.0,46.27412033081055,0.2786455452442169,1.092161774635315,0.0,0.0,0.0,0.0,0.0,0.0,0.0,0.0,0.0,-0.008536286652088165,0.01074899546802044,0.04888397082686424,0.0,0.0,0.0,0.0,0.0,0.0,0.0,0.0,0.0
1606990960998552997,4011140,1606987359434052940,imu_link,0.007808731868863106,0.005980886518955231,0.39289170503616333,0.9195321798324585,0.0,0.0,0.0,0.0,0.0,0.0,0.0,0.0,0.0,46.27412033081055,0.2786455452442169,1.092161774635315,0.0,0.0,0.0,0.0,0.0,0.0,0.0,0.0,0.0,-0.008536286652088165,0.01074899546802044,0.04888397082686424,0.0,0.0,0.0,0.0,0.0,0.0,0.0,0.0,0.0
1606990960998571378,4011141,1606987359434098092,imu_link,0.007808292284607887,0.005979998502880335,0.3928908407688141,0.9195325374603271,0.0,0.0,0.0,0.0,0.0,0.0,0.0,0.0,0.0,46.274009704589844,0.27857276797294617,1.092075228691101,0.0,0.0,0.0,0.0,0.0,0.0,0.0,0.0,0.0,-0.02019968442618847,-0.0016975596081465483,0.02384069561958313,0.0,0.0,0.0,0.0,0.0,0.0,0.0,0.0,0.0
1606990960998578465,4011142,1606987359434134420,imu_link,0.007808292284607887,0.005979998502880335,0.3928908407688141,0.9195325374603271,0.0,0.0,0.0,0.0,0.0,0.0,0.0,0.0,0.0,46.274009704589844,0.27857276797294617,1.092075228691101,0.0,0.0,0.0,0.0,0.0,0.0,0.0,0.0,0.0,-0.02019968442618847,-0.0016975596081465483,0.02384069561958313,0.0,0.0,0.0,0.0,0.0,0.0,0.0,0.0,0.0
1606990960998584078,4011143,1606987359434170406,imu_link,0.007807597052305937,0.005981413647532463,0.3928908705711365,0.9195325374603271,0.0,0.0,0.0,0.0,0.0,0.0,0.0,0.0,0.0,46.274017333984375,0.2787531316280365,1.092065691947937,0.0,0.0,0.0,0.0,0.0,0.0,0.0,0.0,0.0,-0.010247482918202877,-0.011260309256613255,0.03265321999788284,0.0,0.0,0.0,0.0,0.0,0.0,0.0,0.0,0.0
1606990961008789951,4011144,1606987359434207126,imu_link,0.007807597052305937,0.005981413647532463,0.3928908705711365,0.9195325374603271,0.0,0.0,0.0,0.0,0.0,0.0,0.0,0.0,0.0,46.274017333984375,0.2787531316280365,1.092065691947937,0.0,0.0,0.0,0.0,0.0,0.0,0.0,0.0,0.0,-0.010247482918202877,-0.011260309256613255,0.03265321999788284,0.0,0.0,0.0,0.0,0.0,0.0,0.0,0.0,0.0
1606990961008823566,4011145,1606987359434243669,imu_link,0.007807537447661161,0.005981707014143467,0.39289140701293945,0.919532299041748,0.0,0.0,0.0,0.0,0.0,0.0,0.0,0.0,0.0,46.274085998535156,0.2787861227989197,1.0920729637145996,0.0,0.0,0.0,0.0,0.0,0.0,0.0,0.0,0.0,-0.005150668788701296,0.00038903718814253807,0.05230288952589035,0.0,0.0,0.0,0.0,0.0,0.0,0.0,0.0,0.0
1606990961008860473,4011146,1606987359447567756,imu_link,0.007807537447661161,0.005981707014143467,0.39289140701293945,0.919532299041748,0.0,0.0,0.0,0.0,0.0,0.0,0.0,0.0,0.0,46.274085998535156,0.2787861227989197,1.0920729637145996,0.0,0.0,0.0,0.0,0.0,0.0,0.0,0.0,0.0,-0.005150668788701296,0.00038903718814253807,0.05230288952589035,0.0,0.0,0.0,0.0,0.0,0.0,0.0,0.0,0.0
1606990961008884193,4011147,1606987359447639193,imu_link,0.007808131631463766,0.005982000846415758,0.39289072155952454,0.9195325970649719,0.0,0.0,0.0,0.0,0.0,0.0,0.0,0.0,0.0,46.27399444580078,0.2787911593914032,1.0921484231948853,0.0,0.0,0.0,0.0,0.0,0.0,0.0,0.0,0.0,0.007502095308154821,0.0011507385643199086,0.05806547775864601,0.0,0.0,0.0,0.0,0.0,0.0,0.0,0.0,0.0
1606990961008898612,4011148,1606987359447691236,imu_link,0.007808131631463766,0.005982000846415758,0.39289072155952454,0.9195325970649719,0.0,0.0,0.0,0.0,0.0,0.0,0.0,0.0,0.0,46.27399444580078,0.2787911593914032,1.0921484231948853,0.0,0.0,0.0,0.0,0.0,0.0,0.0,0.0,0.0,0.007502095308154821,0.0011507385643199086,0.05806547775864601,0.0,0.0,0.0,0.0,0.0,0.0,0.0,0.0,0.0
1606990961013392126,4011149,1606987359447765457,imu_link,0.00780818797647953,0.005981751251965761,0.3928907811641693,0.9195325374603271,0.0,0.0,0.0,0.0,0.0,0.0,0.0,0.0,0.0,46.27400207519531,0.27876219153404236,1.092143177986145,0.0,0.0,0.0,0.0,0.0,0.0,0.0,0.0,0.0,0.03315191715955734,-0.004722912795841694,0.07732125371694565,0.0,0.0,0.0,0.0,0.0,0.0,0.0,0.0,0.0
1606990961013456966,4011150,1606987359447815581,imu_link,0.00780818797647953,0.005981751251965761,0.3928907811641693,0.9195325374603271,0.0,0.0,0.0,0.0,0.0,0.0,0.0,0.0,0.0,46.27400207519531,0.27876219153404236,1.092143177986145,0.0,0.0,0.0,0.0,0.0,0.0,0.0,0.0,0.0,0.03315191715955734,-0.004722912795841694,0.07732125371694565,0.0,0.0,0.0,0.0,0.0,0.0,0.0,0.0,0.0
1606990961013476964,4011151,1606987359447893513,imu_link,0.007806390058249235,0.005982364062219858,0.3928922116756439,0.9195319414138794,0.0,0.0,0.0,0.0,0.0,0.0,0.0,0.0,0.0,46.27418899536133,0.27890607714653015,1.0919817686080933,0.0,0.0,0.0,0.0,0.0,0.0,0.0,0.0,0.0,0.03397013992071152,0.001583931385539472,0.058245234191417694,0.0,0.0,0.0,0.0,0.0,0.0,0.0,0.0,0.0
1606990961013497254,4011152,1606987359447959468,imu_link,0.007806390058249235,0.005982364062219858,0.3928922116756439,0.9195319414138794,0.0,0.0,0.0,0.0,0.0,0.0,0.0,0.0,0.0,46.27418899536133,0.27890607714653015,1.0919817686080933,0.0,0.0,0.0,0.0,0.0,0.0,0.0,0.0,0.0,0.03397013992071152,0.001583931385539472,0.058245234191417694,0.0,0.0,0.0,0.0,0.0,0.0,0.0,0.0,0.0
1606990961072923916,4011153,1606987359448011446,imu_link,0.007805843371897936,0.005985108204185963,0.3928930461406708,0.9195316433906555,0.0,0.0,0.0,0.0,0.0,0.0,0.0,0.0,0.0,46.274288177490234,0.279218852519989,1.092047929763794,0.0,0.0,0.0,0.0,0.0,0.0,0.0,0.0,0.0,0.01805531047284603,0.006346713751554489,0.04135115072131157,0.0,0.0,0.0,0.0,0.0,0.0,0.0,0.0,0.0
1606990961072984203,4011154,1606987359448059924,imu_link,0.007805843371897936,0.005985108204185963,0.3928930461406708,0.9195316433906555,0.0,0.0,0.0,0.0,0.0,0.0,0.0,0.0,0.0,46.274288177490234,0.279218852519989,1.092047929763794,0.0,0.0,0.0,0.0,0.0,0.0,0.0,0.0,0.0,0.01805531047284603,0.006346713751554489,0.04135115072131157,0.0,0.0,0.0,0.0,0.0,0.0,0.0,0.0,0.0
1606990961072998876,4011155,1606987359448113697,imu_link,0.007804958615452051,0.005984775722026825,0.39289334416389465,0.919531524181366,0.0,0.0,0.0,0.0,0.0,0.0,0.0,0.0,0.0,46.274322509765625,0.2792232930660248,1.0919398069381714,0.0,0.0,0.0,0.0,0.0,0.0,0.0,0.0,0.0,-0.0012332681799307466,0.007361059542745352,0.030057629570364952,0.0,0.0,0.0,0.0,0.0,0.0,0.0,0.0,0.0
1606990961073013811,4011156,1606987359448163555,imu_link,0.007804958615452051,0.005984775722026825,0.39289334416389465,0.919531524181366,0.0,0.0,0.0,0.0,0.0,0.0,0.0,0.0,0.0,46.274322509765625,0.2792232930660248,1.0919398069381714,0.0,0.0,0.0,0.0,0.0,0.0,0.0,0.0,0.0,-0.0012332681799307466,0.007361059542745352,0.030057629570364952,0.0,0.0,0.0,0.0,0.0,0.0,0.0,0.0,0.0
1606990961073030533,4011157,1606987359461080530,imu_link,0.007805224508047104,0.00598402414470911,0.3928939700126648,0.9195312261581421,0.0,0.0,0.0,0.0,0.0,0.0,0.0,0.0,0.0,46.27440643310547,0.27913135290145874,1.0919342041015625,0.0,0.0,0.0,0.0,0.0,0.0,0.0,0.0,0.0,0.007472912780940533,0.009633410722017288,0.009022245183587074,0.0,0.0,0.0,0.0,0.0,0.0,0.0,0.0,0.0
1606990961077972125,4011158,1606987359461170848,imu_link,0.007805224508047104,0.00598402414470911,0.3928939700126648,0.9195312261581421,0.0,0.0,0.0,0.0,0.0,0.0,0.0,0.0,0.0,46.27440643310547,0.27913135290145874,1.0919342041015625,0.0,0.0,0.0,0.0,0.0,0.0,0.0,0.0,0.0,0.007472912780940533,0.009633410722017288,0.009022245183587074,0.0,0.0,0.0,0.0,0.0,0.0,0.0,0.0,0.0
1606990961078009428,4011159,1606987359461288451,imu_link,0.007805612403899431,0.005981781519949436,0.39289313554763794,0.9195315837860107,0.0,0.0,0.0,0.0,0.0,0.0,0.0,0.0,0.0,46.274295806884766,0.2788786292076111,1.0918736457824707,0.0,0.0,0.0,0.0,0.0,0.0,0.0,0.0,0.0,0.005955470260232687,0.009474310092628002,0.037112824618816376,0.0,0.0,0.0,0.0,0.0,0.0,0.0,0.0,0.0
1606990961078028649,4011160,1606987359461342076,imu_link,0.007805612403899431,0.005981781519949436,0.39289313554763794,0.9195315837860107,0.0,0.0,0.0,0.0,0.0,0.0,0.0,0.0,0.0,46.274295806884766,0.2788786292076111,1.0918736457824707,0.0,0.0,0.0,0.0,0.0,0.0,0.0,0.0,0.0,0.005955470260232687,0.009474310092628002,0.037112824618816376,0.0,0.0,0.0,0.0,0.0,0.0,0.0,0.0,0.0
1606990961078042457,4011161,1606987359461395422,imu_link,0.007804831024259329,0.005981042981147766,0.39289185404777527,0.9195321798324585,0.0,0.0,0.0,0.0,0.0,0.0,0.0,0.0,0.0,46.274131774902344,0.27883753180503845,1.0917577743530273,0.0,0.0,0.0,0.0,0.0,0.0,0.0,0.0,0.0,-0.01838742010295391,-0.00502440519630909,0.08386284857988358,0.0,0.0,0.0,0.0,0.0,0.0,0.0,0.0,0.0
1606990961091347078,4011162,1606987359461444899,imu_link,0.007804831024259329,0.005981042981147766,0.39289185404777527,0.9195321798324585,0.0,0.0,0.0,0.0,0.0,0.0,0.0,0.0,0.0,46.274131774902344,0.27883753180503845,1.0917577743530273,0.0,0.0,0.0,0.0,0.0,0.0,0.0,0.0,0.0,-0.01838742010295391,-0.00502440519630909,0.08386284857988358,0.0,0.0,0.0,0.0,0.0,0.0,0.0,0.0,0.0
1606990961091378061,4011163,1606987359461509578,imu_link,0.00780510762706399,0.005977958906441927,0.39289119839668274,0.9195324778556824,0.0,0.0,0.0,0.0,0.0,0.0,0.0,0.0,0.0,46.274051666259766,0.27850088477134705,1.091647744178772,0.0,0.0,0.0,0.0,0.0,0.0,0.0,0.0,0.0,-0.020687684416770935,-0.021023446694016457,0.08165464550256729,0.0,0.0,0.0,0.0,0.0,0.0,0.0,0.0,0.0
1606990961091391612,4011164,1606987359461559579,imu_link,0.00780510762706399,0.005977958906441927,0.39289119839668274,0.9195324778556824,0.0,0.0,0.0,0.0,0.0,0.0,0.0,0.0,0.0,46.274051666259766,0.27850088477134705,1.091647744178772,0.0,0.0,0.0,0.0,0.0,0.0,0.0,0.0,0.0,-0.020687684416770935,-0.021023446694016457,0.08165464550256729,0.0,0.0,0.0,0.0,0.0,0.0,0.0,0.0,0.0
1606990961091439655,4011165,1606987359461612227,imu_link,0.007807915098965168,0.005975654814392328,0.3928903043270111,0.919532835483551,0.0,0.0,0.0,0.0,0.0,0.0,0.0,0.0,0.0,46.27393341064453,0.27813273668289185,1.0918396711349487,0.0,0.0,0.0,0.0,0.0,0.0,0.0,0.0,0.0,-0.025982100516557693,-0.013440964743494987,0.06291777640581131,0.0,0.0,0.0,0.0,0.0,0.0,0.0,0.0,0.0
1606990961091450340,4011166,1606987359461658562,imu_link,0.007807915098965168,0.005975654814392328,0.3928903043270111,0.919532835483551,0.0,0.0,0.0,0.0,0.0,0.0,0.0,0.0,0.0,46.27393341064453,0.27813273668289185,1.0918396711349487,0.0,0.0,0.0,0.0,0.0,0.0,0.0,0.0,0.0,-0.025982100516557693,-0.013440964743494987,0.06291777640581131,0.0,0.0,0.0,0.0,0.0,0.0,0.0,0.0,0.0
1606990961101461890,4011167,1606987359461707693,imu_link,0.007808016147464514,0.0059744748286902905,0.3928910195827484,0.9195325374603271,0.0,0.0,0.0,0.0,0.0,0.0,0.0,0.0,0.0,46.274024963378906,0.2780029773712158,1.0917974710464478,0.0,0.0,0.0,0.0,0.0,0.0,0.0,0.0,0.0,-0.016206936910748482,0.0027717766351997852,0.04112577810883522,0.0,0.0,0.0,0.0,0.0,0.0,0.0,0.0,0.0
1606990961101486786,4011168,1606987359475048425,imu_link,0.007808016147464514,0.0059744748286902905,0.3928910195827484,0.9195325374603271,0.0,0.0,0.0,0.0,0.0,0.0,0.0,0.0,0.0,46.274024963378906,0.2780029773712158,1.0917974710464478,0.0,0.0,0.0,0.0,0.0,0.0,0.0,0.0,0.0,-0.016206936910748482,0.0027717766351997852,0.04112577810883522,0.0,0.0,0.0,0.0,0.0,0.0,0.0,0.0,0.0
1606990961101494173,4011169,1606987359475140400,imu_link,0.00780735956504941,0.005971528124064207,0.3928910493850708,0.9195325374603271,0.0,0.0,0.0,0.0,0.0,0.0,0.0,0.0,0.0,46.274024963378906,0.2777220606803894,1.0915954113006592,0.0,0.0,0.0,0.0,0.0,0.0,0.0,0.0,0.0,-0.007264310028403997,0.008356690406799316,0.030673373490571976,0.0,0.0,0.0,0.0,0.0,0.0,0.0,0.0,0.0
1606990961101503060,4011170,1606987359475250845,imu_link,0.00780735956504941,0.005971528124064207,0.3928910493850708,0.9195325374603271,0.0,0.0,0.0,0.0,0.0,0.0,0.0,0.0,0.0,46.274024963378906,0.2777220606803894,1.0915954113006592,0.0,0.0,0.0,0.0,0.0,0.0,0.0,0.0,0.0,-0.007264310028403997,0.008356690406799316,0.030673373490571976,0.0,0.0,0.0,0.0,0.0,0.0,0.0,0.0,0.0
1606990961179849058,4011171,1606987359475309283,imu_link,0.0078090401366353035,0.0059716058894991875,0.3928912878036499,0.9195324182510376,0.0,0.0,0.0,0.0,0.0,0.0,0.0,0.0,0.0,46.27405548095703,0.2776542901992798,1.0917763710021973,0.0,0.0,0.0,0.0,0.0,0.0,0.0,0.0,0.0,-0.016076330095529556,0.011457137763500214,0.042604487389326096,0.0,0.0,0.0,0.0,0.0,0.0,0.0,0.0,0.0
1606990961179890629,4011172,1606987359475370335,imu_link,0.0078090401366353035,0.0059716058894991875,0.3928912878036499,0.9195324182510376,0.0,0.0,0.0,0.0,0.0,0.0,0.0,0.0,0.0,46.27405548095703,0.2776542901992798,1.0917763710021973,0.0,0.0,0.0,0.0,0.0,0.0,0.0,0.0,0.0,-0.016076330095529556,0.011457137763500214,0.042604487389326096,0.0,0.0,0.0,0.0,0.0,0.0,0.0,0.0,0.0
1606990961179910808,4011173,1606987359475439487,imu_link,0.0078086527064442635,0.005971125327050686,0.39289286732673645,0.9195317625999451,0.0,0.0,0.0,0.0,0.0,0.0,0.0,0.0,0.0,46.27425003051758,0.27761921286582947,1.0917142629623413,0.0,0.0,0.0,0.0,0.0,0.0,0.0,0.0,0.0,-0.0161830373108387,0.007482951041311026,0.030959665775299072,0.0,0.0,0.0,0.0,0.0,0.0,0.0,0.0,0.0
1606990961179929401,4011174,1606987359475491968,imu_link,0.0078086527064442635,0.005971125327050686,0.39289286732673645,0.9195317625999451,0.0,0.0,0.0,0.0,0.0,0.0,0.0,0.0,0.0,46.27425003051758,0.27761921286582947,1.0917142629623413,0.0,0.0,0.0,0.0,0.0,0.0,0.0,0.0,0.0,-0.0161830373108387,0.007482951041311026,0.030959665775299072,0.0,0.0,0.0,0.0,0.0,0.0,0.0,0.0,0.0
1606990961179949893,4011175,1606987359475542265,imu_link,0.007808183319866657,0.005970396567136049,0.3928922414779663,0.9195320010185242,0.0,0.0,0.0,0.0,0.0,0.0,0.0,0.0,0.0,46.274173736572266,0.27756428718566895,1.0916317701339722,0.0,0.0,0.0,0.0,0.0,0.0,0.0,0.0,0.0,-0.016461260616779327,-0.017528027296066284,0.02896728739142418,0.0,0.0,0.0,0.0,0.0,0.0,0.0,0.0,0.0
1606990961186601169,4011176,1606987359475593919,imu_link,0.007808183319866657,0.005970396567136049,0.3928922414779663,0.9195320010185242,0.0,0.0,0.0,0.0,0.0,0.0,0.0,0.0,0.0,46.274173736572266,0.27756428718566895,1.0916317701339722,0.0,0.0,0.0,0.0,0.0,0.0,0.0,0.0,0.0,-0.016461260616779327,-0.017528027296066284,0.02896728739142418,0.0,0.0,0.0,0.0,0.0,0.0,0.0,0.0,0.0
1606990961186647582,4011177,1606987359475645300,imu_link,0.007812067866325378,0.005969161167740822,0.39289218187332153,0.919532060623169,0.0,0.0,0.0,0.0,0.0,0.0,0.0,0.0,0.0,46.2741584777832,0.27725934982299805,1.0919853448867798,0.0,0.0,0.0,0.0,0.0,0.0,0.0,0.0,0.0,-0.010554739274084568,-0.023335058242082596,0.047810982912778854,0.0,0.0,0.0,0.0,0.0,0.0,0.0,0.0,0.0
1606990961186668499,4011178,1606987359475694712,imu_link,0.007812067866325378,0.005969161167740822,0.39289218187332153,0.919532060623169,0.0,0.0,0.0,0.0,0.0,0.0,0.0,0.0,0.0,46.2741584777832,0.27725934982299805,1.0919853448867798,0.0,0.0,0.0,0.0,0.0,0.0,0.0,0.0,0.0,-0.010554739274084568,-0.023335058242082596,0.047810982912778854,0.0,0.0,0.0,0.0,0.0,0.0,0.0,0.0,0.0
1606990961186692935,4011179,1606987359487814197,imu_link,0.007812080904841423,0.005970751401036978,0.39289483428001404,0.9195309281349182,0.0,0.0,0.0,0.0,0.0,0.0,0.0,0.0,0.0,46.27449035644531,0.2774231433868408,1.0920592546463013,0.0,0.0,0.0,0.0,0.0,0.0,0.0,0.0,0.0,-0.013378117233514786,-0.0014306569937616587,0.049947552382946014,0.0,0.0,0.0,0.0,0.0,0.0,0.0,0.0,0.0
1606990961207913542,4011180,1606987359487922179,imu_link,0.007812080904841423,0.005970751401036978,0.39289483428001404,0.9195309281349182,0.0,0.0,0.0,0.0,0.0,0.0,0.0,0.0,0.0,46.27449035644531,0.2774231433868408,1.0920592546463013,0.0,0.0,0.0,0.0,0.0,0.0,0.0,0.0,0.0,-0.013378117233514786,-0.0014306569937616587,0.049947552382946014,0.0,0.0,0.0,0.0,0.0,0.0,0.0,0.0,0.0
1606990961207950496,4011181,1606987359488065754,imu_link,0.007812761701643467,0.005969719495624304,0.39289408922195435,0.9195312261581421,0.0,0.0,0.0,0.0,0.0,0.0,0.0,0.0,0.0,46.2744026184082,0.2772846221923828,1.092084288597107,0.0,0.0,0.0,0.0,0.0,0.0,0.0,0.0,0.0,-0.021798430010676384,0.008007807657122612,0.046817634254693985,0.0,0.0,0.0,0.0,0.0,0.0,0.0,0.0,0.0
1606990961208001342,4011182,1606987359488127599,imu_link,0.007812761701643467,0.005969719495624304,0.39289408922195435,0.9195312261581421,0.0,0.0,0.0,0.0,0.0,0.0,0.0,0.0,0.0,46.2744026184082,0.2772846221923828,1.092084288597107,0.0,0.0,0.0,0.0,0.0,0.0,0.0,0.0,0.0,-0.021798430010676384,0.008007807657122612,0.046817634254693985,0.0,0.0,0.0,0.0,0.0,0.0,0.0,0.0,0.0
1606990961208023404,4011183,1606987359488213889,imu_link,0.00781412422657013,0.005971945822238922,0.39289531111717224,0.9195306897163391,0.0,0.0,0.0,0.0,0.0,0.0,0.0,0.0,0.0,46.27455520629883,0.2774564325809479,1.0923285484313965,0.0,0.0,0.0,0.0,0.0,0.0,0.0,0.0,0.0,-0.009363961406052113,-0.0022110454738140106,0.05723787844181061,0.0,0.0,0.0,0.0,0.0,0.0,0.0,0.0,0.0
1606990961212920520,4011184,1606987359488291910,imu_link,0.00781412422657013,0.005971945822238922,0.39289531111717224,0.9195306897163391,0.0,0.0,0.0,0.0,0.0,0.0,0.0,0.0,0.0,46.27455520629883,0.2774564325809479,1.0923285484313965,0.0,0.0,0.0,0.0,0.0,0.0,0.0,0.0,0.0,-0.009363961406052113,-0.0022110454738140106,0.05723787844181061,0.0,0.0,0.0,0.0,0.0,0.0,0.0,0.0,0.0
1606990961212961018,4011185,1606987359488352137,imu_link,0.007816650904715061,0.005969058256596327,0.39289626479148865,0.9195302724838257,0.0,0.0,0.0,0.0,0.0,0.0,0.0,0.0,0.0,46.27467727661133,0.27703720331192017,1.0924649238586426,0.0,0.0,0.0,0.0,0.0,0.0,0.0,0.0,0.0,-0.0072164153680205345,0.006545014679431915,0.059270475059747696,0.0,0.0,0.0,0.0,0.0,0.0,0.0,0.0,0.0
1606990961212986923,4011186,1606987359488409670,imu_link,0.007816650904715061,0.005969058256596327,0.39289626479148865,0.9195302724838257,0.0,0.0,0.0,0.0,0.0,0.0,0.0,0.0,0.0,46.27467727661133,0.27703720331192017,1.0924649238586426,0.0,0.0,0.0,0.0,0.0,0.0,0.0,0.0,0.0,-0.0072164153680205345,0.006545014679431915,0.059270475059747696,0.0,0.0,0.0,0.0,0.0,0.0,0.0,0.0,0.0
1606990961213035627,4011187,1606987359488496894,imu_link,0.007818523794412613,0.005969747435301542,0.39289772510528564,0.9195296168327332,0.0,0.0,0.0,0.0,0.0,0.0,0.0,0.0,0.0,46.27485656738281,0.2770237922668457,1.0926939249038696,0.0,0.0,0.0,0.0,0.0,0.0,0.0,0.0,0.0,-0.02148667350411415,0.02117220312356949,0.0667879730463028,0.0,0.0,0.0,0.0,0.0,0.0,0.0,0.0,0.0
1606990961213051956,4011188,1606987359488555593,imu_link,0.007818523794412613,0.005969747435301542,0.39289772510528564,0.9195296168327332,0.0,0.0,0.0,0.0,0.0,0.0,0.0,0.0,0.0,46.27485656738281,0.2770237922668457,1.0926939249038696,0.0,0.0,0.0,0.0,0.0,0.0,0.0,0.0,0.0,-0.02148667350411415,0.02117220312356949,0.0667879730463028,0.0,0.0,0.0,0.0,0.0,0.0,0.0,0.0,0.0
1606990961256239290,4011189,1606987359501227545,imu_link,0.007818473502993584,0.005966825410723686,0.3928973376750946,0.9195297956466675,0.0,0.0,0.0,0.0,0.0,0.0,0.0,0.0,0.0,46.274803161621094,0.2767186164855957,1.0925568342208862,0.0,0.0,0.0,0.0,0.0,0.0,0.0,0.0,0.0,-0.01787683181464672,0.020841112360358238,0.05959117412567139,0.0,0.0,0.0,0.0,0.0,0.0,0.0,0.0,0.0
1606990961256261474,4011190,1606987359501333176,imu_link,0.007818473502993584,0.005966825410723686,0.3928973376750946,0.9195297956466675,0.0,0.0,0.0,0.0,0.0,0.0,0.0,0.0,0.0,46.274803161621094,0.2767186164855957,1.0925568342208862,0.0,0.0,0.0,0.0,0.0,0.0,0.0,0.0,0.0,-0.01787683181464672,0.020841112360358238,0.05959117412567139,0.0,0.0,0.0,0.0,0.0,0.0,0.0,0.0,0.0
1606990961256327329,4011191,1606987359501413481,imu_link,0.007818380370736122,0.0059662810526788235,0.39289745688438416,0.9195297360420227,0.0,0.0,0.0,0.0,0.0,0.0,0.0,0.0,0.0,46.274818420410156,0.27666527032852173,1.0925225019454956,0.0,0.0,0.0,0.0,0.0,0.0,0.0,0.0,0.0,0.007456503808498383,0.013139132410287857,0.02659364975988865,0.0,0.0,0.0,0.0,0.0,0.0,0.0,0.0,0.0
1606990961256335926,4011192,1606987359501474808,imu_link,0.007818380370736122,0.0059662810526788235,0.39289745688438416,0.9195297360420227,0.0,0.0,0.0,0.0,0.0,0.0,0.0,0.0,0.0,46.274818420410156,0.27666527032852173,1.0925225019454956,0.0,0.0,0.0,0.0,0.0,0.0,0.0,0.0,0.0,0.007456503808498383,0.013139132410287857,0.02659364975988865,0.0,0.0,0.0,0.0,0.0,0.0,0.0,0.0,0.0
1606990961263841171,4011193,1606987359501563417,imu_link,0.007816571742296219,0.005966314114630222,0.39289548993110657,0.9195305705070496,0.0,0.0,0.0,0.0,0.0,0.0,0.0,0.0,0.0,46.274574279785156,0.2767525315284729,1.0923327207565308,0.0,0.0,0.0,0.0,0.0,0.0,0.0,0.0,0.0,0.011052513495087624,-0.003670931328088045,0.030084095895290375,0.0,0.0,0.0,0.0,0.0,0.0,0.0,0.0,0.0
1606990961263864674,4011194,1606987359501624989,imu_link,0.007816571742296219,0.005966314114630222,0.39289548993110657,0.9195305705070496,0.0,0.0,0.0,0.0,0.0,0.0,0.0,0.0,0.0,46.274574279785156,0.2767525315284729,1.0923327207565308,0.0,0.0,0.0,0.0,0.0,0.0,0.0,0.0,0.0,0.011052513495087624,-0.003670931328088045,0.030084095895290375,0.0,0.0,0.0,0.0,0.0,0.0,0.0,0.0,0.0
1606990961263884872,4011195,1606987359501738568,imu_link,0.007816947065293789,0.005966467782855034,0.39289647340774536,0.9195301532745361,0.0,0.0,0.0,0.0,0.0,0.0,0.0,0.0,0.0,46.274696350097656,0.27675071358680725,1.0923795700073242,0.0,0.0,0.0,0.0,0.0,0.0,0.0,0.0,0.0,-0.0017874091863632202,-0.014476435258984566,0.060208842158317566,0.0,0.0,0.0,0.0,0.0,0.0,0.0,0.0,0.0
1606990961263899951,4011196,1606987359501799462,imu_link,0.007816947065293789,0.005966467782855034,0.39289647340774536,0.9195301532745361,0.0,0.0,0.0,0.0,0.0,0.0,0.0,0.0,0.0,46.274696350097656,0.27675071358680725,1.0923795700073242,0.0,0.0,0.0,0.0,0.0,0.0,0.0,0.0,0.0,-0.0017874091863632202,-0.014476435258984566,0.060208842158317566,0.0,0.0,0.0,0.0,0.0,0.0,0.0,0.0,0.0
1606990961263910114,4011197,1606987359501896315,imu_link,0.007819408550858498,0.005966620985418558,0.3928964138031006,0.9195301532745361,0.0,0.0,0.0,0.0,0.0,0.0,0.0,0.0,0.0,46.274688720703125,0.27665606141090393,1.0926458835601807,0.0,0.0,0.0,0.0,0.0,0.0,0.0,0.0,0.0,0.010487333871424198,-0.018033573403954506,0.06256330013275146,0.0,0.0,0.0,0.0,0.0,0.0,0.0,0.0,0.0
1606990961297297684,4011198,1606987359501960062,imu_link,0.007819408550858498,0.005966620985418558,0.3928964138031006,0.9195301532745361,0.0,0.0,0.0,0.0,0.0,0.0,0.0,0.0,0.0,46.274688720703125,0.27665606141090393,1.0926458835601807,0.0,0.0,0.0,0.0,0.0,0.0,0.0,0.0,0.0,0.010487333871424198,-0.018033573403954506,0.06256330013275146,0.0,0.0,0.0,0.0,0.0,0.0,0.0,0.0,0.0
1606990961297333902,4011199,1606987359502021824,imu_link,0.007819116115570068,0.005966960918158293,0.3928965926170349,0.9195300936698914,0.0,0.0,0.0,0.0,0.0,0.0,0.0,0.0,0.0,46.27471160888672,0.2767048478126526,1.092630386352539,0.0,0.0,0.0,0.0,0.0,0.0,0.0,0.0,0.0,0.013929316774010658,-0.009610540233552456,0.04057687520980835,0.0,0.0,0.0,0.0,0.0,0.0,0.0,0.0,0.0
1606990961297353733,4011200,1606987359515202360,imu_link,0.007819116115570068,0.005966960918158293,0.3928965926170349,0.9195300936698914,0.0,0.0,0.0,0.0,0.0,0.0,0.0,0.0,0.0,46.27471160888672,0.2767048478126526,1.092630386352539,0.0,0.0,0.0,0.0,0.0,0.0,0.0,0.0,0.0,0.013929316774010658,-0.009610540233552456,0.04057687520980835,0.0,0.0,0.0,0.0,0.0,0.0,0.0,0.0,0.0
1606990961297366603,4011201,1606987359515331174,imu_link,0.00781953427940607,0.0059686996974051,0.39289581775665283,0.9195303916931152,0.0,0.0,0.0,0.0,0.0,0.0,0.0,0.0,0.0,46.27461624145508,0.27687013149261475,1.092752456665039,0.0,0.0,0.0,0.0,0.0,0.0,0.0,0.0,0.0,-0.004136279225349426,-0.003399889450520277,0.04341777786612511,0.0,0.0,0.0,0.0,0.0,0.0,0.0,0.0,0.0
1606990961304838269,4011202,1606987359515472399,imu_link,0.00781953427940607,0.0059686996974051,0.39289581775665283,0.9195303916931152,0.0,0.0,0.0,0.0,0.0,0.0,0.0,0.0,0.0,46.27461624145508,0.27687013149261475,1.092752456665039,0.0,0.0,0.0,0.0,0.0,0.0,0.0,0.0,0.0,-0.004136279225349426,-0.003399889450520277,0.04341777786612511,0.0,0.0,0.0,0.0,0.0,0.0,0.0,0.0,0.0
1606990961304871322,4011203,1606987359515547346,imu_link,0.007820568978786469,0.005969657562673092,0.39289578795433044,0.9195303916931152,0.0,0.0,0.0,0.0,0.0,0.0,0.0,0.0,0.0,46.27461624145508,0.2769244909286499,1.092904806137085,0.0,0.0,0.0,0.0,0.0,0.0,0.0,0.0,0.0,-0.002495203400030732,-0.009539976716041565,0.04773792624473572,0.0,0.0,0.0,0.0,0.0,0.0,0.0,0.0,0.0
1606990961304882454,4011204,1606987359515622537,imu_link,0.007820568978786469,0.005969657562673092,0.39289578795433044,0.9195303916931152,0.0,0.0,0.0,0.0,0.0,0.0,0.0,0.0,0.0,46.27461624145508,0.2769244909286499,1.092904806137085,0.0,0.0,0.0,0.0,0.0,0.0,0.0,0.0,0.0,-0.002495203400030732,-0.009539976716041565,0.04773792624473572,0.0,0.0,0.0,0.0,0.0,0.0,0.0,0.0,0.0
1606990961304900747,4011205,1606987359515695292,imu_link,0.007822421379387379,0.005970439407974482,0.392895370721817,0.9195305705070496,0.0,0.0,0.0,0.0,0.0,0.0,0.0,0.0,0.0,46.27456283569336,0.2769240140914917,1.0931349992752075,0.0,0.0,0.0,0.0,0.0,0.0,0.0,0.0,0.0,0.010921009816229343,-0.002905248198658228,0.05181406810879707,0.0,0.0,0.0,0.0,0.0,0.0,0.0,0.0,0.0
1606990961304922132,4011206,1606987359515793520,imu_link,0.007822421379387379,0.005970439407974482,0.392895370721817,0.9195305705070496,0.0,0.0,0.0,0.0,0.0,0.0,0.0,0.0,0.0,46.27456283569336,0.2769240140914917,1.0931349992752075,0.0,0.0,0.0,0.0,0.0,0.0,0.0,0.0,0.0,0.010921009816229343,-0.002905248198658228,0.05181406810879707,0.0,0.0,0.0,0.0,0.0,0.0,0.0,0.0,0.0
1606990961380680435,4011207,1606987359515865113,imu_link,0.007823762483894825,0.005969688296318054,0.3928951919078827,0.9195306301116943,0.0,0.0,0.0,0.0,0.0,0.0,0.0,0.0,0.0,46.274539947509766,0.27678465843200684,1.0932424068450928,0.0,0.0,0.0,0.0,0.0,0.0,0.0,0.0,0.0,0.02264343574643135,-0.00804638210684061,0.059582505375146866,0.0,0.0,0.0,0.0,0.0,0.0,0.0,0.0,0.0
1606990961380696020,4011208,1606987359515944492,imu_link,0.007823762483894825,0.005969688296318054,0.3928951919078827,0.9195306301116943,0.0,0.0,0.0,0.0,0.0,0.0,0.0,0.0,0.0,46.274539947509766,0.27678465843200684,1.0932424068450928,0.0,0.0,0.0,0.0,0.0,0.0,0.0,0.0,0.0,0.02264343574643135,-0.00804638210684061,0.059582505375146866,0.0,0.0,0.0,0.0,0.0,0.0,0.0,0.0,0.0
1606990961380701345,4011209,1606987359516013959,imu_link,0.007823723368346691,0.00597227131947875,0.392892986536026,0.9195315837860107,0.0,0.0,0.0,0.0,0.0,0.0,0.0,0.0,0.0,46.274269104003906,0.27706122398376465,1.0933539867401123,0.0,0.0,0.0,0.0,0.0,0.0,0.0,0.0,0.0,0.014180917292833328,-0.014660797081887722,0.05062440037727356,0.0,0.0,0.0,0.0,0.0,0.0,0.0,0.0,0.0
1606990961380716145,4011210,1606987359516086286,imu_link,0.007823723368346691,0.00597227131947875,0.392892986536026,0.9195315837860107,0.0,0.0,0.0,0.0,0.0,0.0,0.0,0.0,0.0,46.274269104003906,0.27706122398376465,1.0933539867401123,0.0,0.0,0.0,0.0,0.0,0.0,0.0,0.0,0.0,0.014180917292833328,-0.014660797081887722,0.05062440037727356,0.0,0.0,0.0,0.0,0.0,0.0,0.0,0.0,0.0
1606990961385806278,4011211,1606987359528580550,imu_link,0.007822906598448753,0.005972583312541246,0.39289405941963196,0.9195311069488525,0.0,0.0,0.0,0.0,0.0,0.0,0.0,0.0,0.0,46.2744026184082,0.277129590511322,1.0932823419570923,0.0,0.0,0.0,0.0,0.0,0.0,0.0,0.0,0.0,0.012991130352020264,-0.0011635199189186096,0.03802098333835602,0.0,0.0,0.0,0.0,0.0,0.0,0.0,0.0,0.0
1606990961385826097,4011212,1606987359528706794,imu_link,0.007822906598448753,0.005972583312541246,0.39289405941963196,0.9195311069488525,0.0,0.0,0.0,0.0,0.0,0.0,0.0,0.0,0.0,46.2744026184082,0.277129590511322,1.0932823419570923,0.0,0.0,0.0,0.0,0.0,0.0,0.0,0.0,0.0,0.012991130352020264,-0.0011635199189186096,0.03802098333835602,0.0,0.0,0.0,0.0,0.0,0.0,0.0,0.0,0.0
1606990961385836598,4011213,1606987359528790075,imu_link,0.007821398787200451,0.005974032450467348,0.39289480447769165,0.9195308089256287,0.0,0.0,0.0,0.0,0.0,0.0,0.0,0.0,0.0,46.274497985839844,0.2773493528366089,1.0931888818740845,0.0,0.0,0.0,0.0,0.0,0.0,0.0,0.0,0.0,0.01592923328280449,0.017027724534273148,0.04671163856983185,0.0,0.0,0.0,0.0,0.0,0.0,0.0,0.0,0.0
1606990961385850276,4011214,1606987359528870595,imu_link,0.007821398787200451,0.005974032450467348,0.39289480447769165,0.9195308089256287,0.0,0.0,0.0,0.0,0.0,0.0,0.0,0.0,0.0,46.274497985839844,0.2773493528366089,1.0931888818740845,0.0,0.0,0.0,0.0,0.0,0.0,0.0,0.0,0.0,0.01592923328280449,0.017027724534273148,0.04671163856983185,0.0,0.0,0.0,0.0,0.0,0.0,0.0,0.0,0.0
1606990961385862054,4011215,1606987359528961085,imu_link,0.007820473052561283,0.0059735774993896484,0.39289334416389465,0.9195314645767212,0.0,0.0,0.0,0.0,0.0,0.0,0.0,0.0,0.0,46.27431869506836,0.27734482288360596,1.0930702686309814,0.0,0.0,0.0,0.0,0.0,0.0,0.0,0.0,0.0,0.0031041575130075216,0.014739930629730225,0.05445859953761101,0.0,0.0,0.0,0.0,0.0,0.0,0.0,0.0,0.0
1606990961405629466,4011216,1606987359529054252,imu_link,0.007820473052561283,0.0059735774993896484,0.39289334416389465,0.9195314645767212,0.0,0.0,0.0,0.0,0.0,0.0,0.0,0.0,0.0,46.27431869506836,0.27734482288360596,1.0930702686309814,0.0,0.0,0.0,0.0,0.0,0.0,0.0,0.0,0.0,0.0031041575130075216,0.014739930629730225,0.05445859953761101,0.0,0.0,0.0,0.0,0.0,0.0,0.0,0.0,0.0
1606990961405662252,4011217,1606987359529129390,imu_link,0.007820907980203629,0.005971124395728111,0.3928934931755066,0.9195314049720764,0.0,0.0,0.0,0.0,0.0,0.0,0.0,0.0,0.0,46.274330139160156,0.27706655859947205,1.0930057764053345,0.0,0.0,0.0,0.0,0.0,0.0,0.0,0.0,0.0,0.00463588023558259,0.007914203219115734,0.031897250562906265,0.0,0.0,0.0,0.0,0.0,0.0,0.0,0.0,0.0
1606990961405677535,4011218,1606987359529200059,imu_link,0.007820907980203629,0.005971124395728111,0.3928934931755066,0.9195314049720764,0.0,0.0,0.0,0.0,0.0,0.0,0.0,0.0,0.0,46.274330139160156,0.27706655859947205,1.0930057764053345,0.0,0.0,0.0,0.0,0.0,0.0,0.0,0.0,0.0,0.00463588023558259,0.007914203219115734,0.031897250562906265,0.0,0.0,0.0,0.0,0.0,0.0,0.0,0.0,0.0
1606990961405693447,4011219,1606987359529314832,imu_link,0.00782207865267992,0.0059694936498999596,0.39289501309394836,0.9195307493209839,0.0,0.0,0.0,0.0,0.0,0.0,0.0,0.0,0.0,46.27451705932617,0.2768401801586151,1.093056082725525,0.0,0.0,0.0,0.0,0.0,0.0,0.0,0.0,0.0,0.0002512982173357159,0.012226439081132412,0.007374010048806667,0.0,0.0,0.0,0.0,0.0,0.0,0.0,0.0,0.0
1606990961415579431,4011220,1606987359529386265,imu_link,0.00782207865267992,0.0059694936498999596,0.39289501309394836,0.9195307493209839,0.0,0.0,0.0,0.0,0.0,0.0,0.0,0.0,0.0,46.27451705932617,0.2768401801586151,1.093056082725525,0.0,0.0,0.0,0.0,0.0,0.0,0.0,0.0,0.0,0.0002512982173357159,0.012226439081132412,0.007374010048806667,0.0,0.0,0.0,0.0,0.0,0.0,0.0,0.0,0.0
1606990961415612490,4011221,1606987359529496484,imu_link,0.007820858620107174,0.0059689925983548164,0.3928939700126648,0.9195312261581421,0.0,0.0,0.0,0.0,0.0,0.0,0.0,0.0,0.0,46.27438735961914,0.2768435776233673,1.092904806137085,0.0,0.0,0.0,0.0,0.0,0.0,0.0,0.0,0.0,-0.004301475826650858,0.01806507259607315,0.010613501071929932,0.0,0.0,0.0,0.0,0.0,0.0,0.0,0.0,0.0
1606990961415634475,4011222,1606987359541527065,imu_link,0.007820858620107174,0.0059689925983548164,0.3928939700126648,0.9195312261581421,0.0,0.0,0.0,0.0,0.0,0.0,0.0,0.0,0.0,46.27438735961914,0.2768435776233673,1.092904806137085,0.0,0.0,0.0,0.0,0.0,0.0,0.0,0.0,0.0,-0.004301475826650858,0.01806507259607315,0.010613501071929932,0.0,0.0,0.0,0.0,0.0,0.0,0.0,0.0,0.0
1606990961415653594,4011223,1606987359541651847,imu_link,0.007819686084985733,0.005967914126813412,0.39289554953575134,0.9195305705070496,0.0,0.0,0.0,0.0,0.0,0.0,0.0,0.0,0.0,46.27458190917969,0.2767808735370636,1.0927330255508423,0.0,0.0,0.0,0.0,0.0,0.0,0.0,0.0,0.0,-0.01691470853984356,0.017299596220254898,0.045133162289857864,0.0,0.0,0.0,0.0,0.0,0.0,0.0,0.0,0.0
1606990961415676913,4011224,1606987359541752520,imu_link,0.007819686084985733,0.005967914126813412,0.39289554953575134,0.9195305705070496,0.0,0.0,0.0,0.0,0.0,0.0,0.0,0.0,0.0,46.27458190917969,0.2767808735370636,1.0927330255508423,0.0,0.0,0.0,0.0,0.0,0.0,0.0,0.0,0.0,-0.01691470853984356,0.017299596220254898,0.045133162289857864,0.0,0.0,0.0,0.0,0.0,0.0,0.0,0.0,0.0
1606990961453219699,4011225,1606987359541832496,imu_link,0.007820433005690575,0.0059664188884198666,0.39289572834968567,0.91953045129776,0.0,0.0,0.0,0.0,0.0,0.0,0.0,0.0,0.0,46.27460479736328,0.27658945322036743,1.0927444696426392,0.0,0.0,0.0,0.0,0.0,0.0,0.0,0.0,0.0,-0.01213789638131857,0.00026297580916434526,0.05338014289736748,0.0,0.0,0.0,0.0,0.0,0.0,0.0,0.0,0.0
1606990961453233694,4011226,1606987359541948881,imu_link,0.007820433005690575,0.0059664188884198666,0.39289572834968567,0.91953045129776,0.0,0.0,0.0,0.0,0.0,0.0,0.0,0.0,0.0,46.27460479736328,0.27658945322036743,1.0927444696426392,0.0,0.0,0.0,0.0,0.0,0.0,0.0,0.0,0.0,-0.01213789638131857,0.00026297580916434526,0.05338014289736748,0.0,0.0,0.0,0.0,0.0,0.0,0.0,0.0,0.0
1606990961453251642,4011227,1606987359542039442,imu_link,0.007821471430361271,0.005967782810330391,0.39289456605911255,0.9195309281349182,0.0,0.0,0.0,0.0,0.0,0.0,0.0,0.0,0.0,46.27445983886719,0.27668777108192444,1.0929150581359863,0.0,0.0,0.0,0.0,0.0,0.0,0.0,0.0,0.0,-0.0009657841874286532,0.0009835762903094292,0.02575651928782463,0.0,0.0,0.0,0.0,0.0,0.0,0.0,0.0,0.0
1606990961453257197,4011228,1606987359542144333,imu_link,0.007821471430361271,0.005967782810330391,0.39289456605911255,0.9195309281349182,0.0,0.0,0.0,0.0,0.0,0.0,0.0,0.0,0.0,46.27445983886719,0.27668777108192444,1.0929150581359863,0.0,0.0,0.0,0.0,0.0,0.0,0.0,0.0,0.0,-0.0009657841874286532,0.0009835762903094292,0.02575651928782463,0.0,0.0,0.0,0.0,0.0,0.0,0.0,0.0,0.0
1606990961458771368,4011229,1606987359542251101,imu_link,0.007821166887879372,0.005968618672341108,0.3928939998149872,0.9195311665534973,0.0,0.0,0.0,0.0,0.0,0.0,0.0,0.0,0.0,46.27438735961914,0.2767902612686157,1.0929205417633057,0.0,0.0,0.0,0.0,0.0,0.0,0.0,0.0,0.0,0.0012971649412065744,0.009988635778427124,0.04165482521057129,0.0,0.0,0.0,0.0,0.0,0.0,0.0,0.0,0.0
1606990961458791342,4011230,1606987359542328912,imu_link,0.007821166887879372,0.005968618672341108,0.3928939998149872,0.9195311665534973,0.0,0.0,0.0,0.0,0.0,0.0,0.0,0.0,0.0,46.27438735961914,0.2767902612686157,1.0929205417633057,0.0,0.0,0.0,0.0,0.0,0.0,0.0,0.0,0.0,0.0012971649412065744,0.009988635778427124,0.04165482521057129,0.0,0.0,0.0,0.0,0.0,0.0,0.0,0.0,0.0
1606990961458798072,4011231,1606987359542406363,imu_link,0.00782048236578703,0.005968047305941582,0.3928947150707245,0.9195308685302734,0.0,0.0,0.0,0.0,0.0,0.0,0.0,0.0,0.0,46.27448272705078,0.2767600119113922,1.092822790145874,0.0,0.0,0.0,0.0,0.0,0.0,0.0,0.0,0.0,0.008541340008378029,0.0020273863337934017,0.04811905324459076,0.0,0.0,0.0,0.0,0.0,0.0,0.0,0.0,0.0
1606990961458813570,4011232,1606987359555274543,imu_link,0.00782048236578703,0.005968047305941582,0.3928947150707245,0.9195308685302734,0.0,0.0,0.0,0.0,0.0,0.0,0.0,0.0,0.0,46.27448272705078,0.2767600119113922,1.092822790145874,0.0,0.0,0.0,0.0,0.0,0.0,0.0,0.0,0.0,0.008541340008378029,0.0020273863337934017,0.04811905324459076,0.0,0.0,0.0,0.0,0.0,0.0,0.0,0.0,0.0
1606990961458829534,4011233,1606987359555396214,imu_link,0.00781997013837099,0.005968926474452019,0.3928934335708618,0.9195314049720764,0.0,0.0,0.0,0.0,0.0,0.0,0.0,0.0,0.0,46.27431869506836,0.276877224445343,1.0928078889846802,0.0,0.0,0.0,0.0,0.0,0.0,0.0,0.0,0.0,-0.0017378916963934898,-0.0022341832518577576,0.024643780663609505,0.0,0.0,0.0,0.0,0.0,0.0,0.0,0.0,0.0
1606990961472794729,4011234,1606987359555485872,imu_link,0.00781997013837099,0.005968926474452019,0.3928934335708618,0.9195314049720764,0.0,0.0,0.0,0.0,0.0,0.0,0.0,0.0,0.0,46.27431869506836,0.276877224445343,1.0928078889846802,0.0,0.0,0.0,0.0,0.0,0.0,0.0,0.0,0.0,-0.0017378916963934898,-0.0022341832518577576,0.024643780663609505,0.0,0.0,0.0,0.0,0.0,0.0,0.0,0.0,0.0
1606990961472814741,4011235,1606987359555566448,imu_link,0.00782165490090847,0.005967299919575453,0.3928932845592499,0.9195314645767212,0.0,0.0,0.0,0.0,0.0,0.0,0.0,0.0,0.0,46.274295806884766,0.276630163192749,1.0929123163223267,0.0,0.0,0.0,0.0,0.0,0.0,0.0,0.0,0.0,-0.006354441866278648,0.007824748754501343,0.028749631717801094,0.0,0.0,0.0,0.0,0.0,0.0,0.0,0.0,0.0
1606990961472828358,4011236,1606987359555651285,imu_link,0.00782165490090847,0.005967299919575453,0.3928932845592499,0.9195314645767212,0.0,0.0,0.0,0.0,0.0,0.0,0.0,0.0,0.0,46.274295806884766,0.276630163192749,1.0929123163223267,0.0,0.0,0.0,0.0,0.0,0.0,0.0,0.0,0.0,-0.006354441866278648,0.007824748754501343,0.028749631717801094,0.0,0.0,0.0,0.0,0.0,0.0,0.0,0.0,0.0
1606990961472842343,4011237,1606987359555731721,imu_link,0.007820473983883858,0.005965439602732658,0.39289480447769165,0.9195308685302734,0.0,0.0,0.0,0.0,0.0,0.0,0.0,0.0,0.0,46.27448654174805,0.27648550271987915,1.09270441532135,0.0,0.0,0.0,0.0,0.0,0.0,0.0,0.0,0.0,-0.00432899035513401,0.00292170699685812,0.027652058750391006,0.0,0.0,0.0,0.0,0.0,0.0,0.0,0.0,0.0
1606990961486050601,4011238,1606987359555832695,imu_link,0.007820473983883858,0.005965439602732658,0.39289480447769165,0.9195308685302734,0.0,0.0,0.0,0.0,0.0,0.0,0.0,0.0,0.0,46.27448654174805,0.27648550271987915,1.09270441532135,0.0,0.0,0.0,0.0,0.0,0.0,0.0,0.0,0.0,-0.00432899035513401,0.00292170699685812,0.027652058750391006,0.0,0.0,0.0,0.0,0.0,0.0,0.0,0.0,0.0
1606990961486071273,4011239,1606987359555913146,imu_link,0.007819484919309616,0.005966877564787865,0.3928946554660797,0.9195309281349182,0.0,0.0,0.0,0.0,0.0,0.0,0.0,0.0,0.0,46.27446746826172,0.2766817808151245,1.0926649570465088,0.0,0.0,0.0,0.0,0.0,0.0,0.0,0.0,0.0,0.004483846947550774,-0.007891124114394188,0.0023421926889568567,0.0,0.0,0.0,0.0,0.0,0.0,0.0,0.0,0.0
1606990961486085539,4011240,1606987359555997651,imu_link,0.007819484919309616,0.005966877564787865,0.3928946554660797,0.9195309281349182,0.0,0.0,0.0,0.0,0.0,0.0,0.0,0.0,0.0,46.27446746826172,0.2766817808151245,1.0926649570465088,0.0,0.0,0.0,0.0,0.0,0.0,0.0,0.0,0.0,0.004483846947550774,-0.007891124114394188,0.0023421926889568567,0.0,0.0,0.0,0.0,0.0,0.0,0.0,0.0,0.0
1606990961486111162,4011241,1606987359556076744,imu_link,0.007822737097740173,0.0059685856103897095,0.3928946256637573,0.9195308685302734,0.0,0.0,0.0,0.0,0.0,0.0,0.0,0.0,0.0,46.27447509765625,0.27671530842781067,1.0930845737457275,0.0,0.0,0.0,0.0,0.0,0.0,0.0,0.0,0.0,0.017955010756850243,-0.007209321018308401,-0.00440956000238657,0.0,0.0,0.0,0.0,0.0,0.0,0.0,0.0,0.0
1606990961486128001,4011242,1606987359556157020,imu_link,0.007822737097740173,0.0059685856103897095,0.3928946256637573,0.9195308685302734,0.0,0.0,0.0,0.0,0.0,0.0,0.0,0.0,0.0,46.27447509765625,0.27671530842781067,1.0930845737457275,0.0,0.0,0.0,0.0,0.0,0.0,0.0,0.0,0.0,0.017955010756850243,-0.007209321018308401,-0.00440956000238657,0.0,0.0,0.0,0.0,0.0,0.0,0.0,0.0,0.0
1606990961554140641,4011243,1606987359568719373,imu_link,0.007822608575224876,0.005968512501567602,0.39289432764053345,0.919530987739563,0.0,0.0,0.0,0.0,0.0,0.0,0.0,0.0,0.0,46.27443313598633,0.2767137289047241,1.0930675268173218,0.0,0.0,0.0,0.0,0.0,0.0,0.0,0.0,0.0,0.01281637605279684,-0.007666291669011116,0.012299299240112305,0.0,0.0,0.0,0.0,0.0,0.0,0.0,0.0,0.0
1606990961554157777,4011244,1606987359568859292,imu_link,0.007822608575224876,0.005968512501567602,0.39289432764053345,0.919530987739563,0.0,0.0,0.0,0.0,0.0,0.0,0.0,0.0,0.0,46.27443313598633,0.2767137289047241,1.0930675268173218,0.0,0.0,0.0,0.0,0.0,0.0,0.0,0.0,0.0,0.01281637605279684,-0.007666291669011116,0.012299299240112305,0.0,0.0,0.0,0.0,0.0,0.0,0.0,0.0,0.0
1606990961554168291,4011245,1606987359568965874,imu_link,0.0078218262642622,0.005968645215034485,0.39289528131484985,0.9195305705070496,0.0,0.0,0.0,0.0,0.0,0.0,0.0,0.0,0.0,46.27455139160156,0.2767618000507355,1.092991590499878,0.0,0.0,0.0,0.0,0.0,0.0,0.0,0.0,0.0,0.012710504233837128,-0.0006133040296845138,0.014950447715818882,0.0,0.0,0.0,0.0,0.0,0.0,0.0,0.0,0.0
1606990961554179697,4011246,1606987359569056398,imu_link,0.0078218262642622,0.005968645215034485,0.39289528131484985,0.9195305705070496,0.0,0.0,0.0,0.0,0.0,0.0,0.0,0.0,0.0,46.27455139160156,0.2767618000507355,1.092991590499878,0.0,0.0,0.0,0.0,0.0,0.0,0.0,0.0,0.0,0.012710504233837128,-0.0006133040296845138,0.014950447715818882,0.0,0.0,0.0,0.0,0.0,0.0,0.0,0.0,0.0
1606990961585906233,4011247,1606987359569152591,imu_link,0.007822339423000813,0.005967743694782257,0.39289626479148865,0.9195302128791809,0.0,0.0,0.0,0.0,0.0,0.0,0.0,0.0,0.0,46.27467346191406,0.2766425907611847,1.0930051803588867,0.0,0.0,0.0,0.0,0.0,0.0,0.0,0.0,0.0,0.025351470336318016,0.010620402172207832,0.04038727656006813,0.0,0.0,0.0,0.0,0.0,0.0,0.0,0.0,0.0
1606990961585932373,4011248,1606987359569242133,imu_link,0.007822339423000813,0.005967743694782257,0.39289626479148865,0.9195302128791809,0.0,0.0,0.0,0.0,0.0,0.0,0.0,0.0,0.0,46.27467346191406,0.2766425907611847,1.0930051803588867,0.0,0.0,0.0,0.0,0.0,0.0,0.0,0.0,0.0,0.025351470336318016,0.010620402172207832,0.04038727656006813,0.0,0.0,0.0,0.0,0.0,0.0,0.0,0.0,0.0
1606990961585942672,4011249,1606987359569351461,imu_link,0.007820234633982182,0.005972069688141346,0.39289841055870056,0.9195292592048645,0.0,0.0,0.0,0.0,0.0,0.0,0.0,0.0,0.0,46.27494430541992,0.277190625667572,1.0929789543151855,0.0,0.0,0.0,0.0,0.0,0.0,0.0,0.0,0.0,-0.0030377916991710663,0.011830171570181847,0.04923531413078308,0.0,0.0,0.0,0.0,0.0,0.0,0.0,0.0,0.0
1606990961585957754,4011250,1606987359569434443,imu_link,0.007820234633982182,0.005972069688141346,0.39289841055870056,0.9195292592048645,0.0,0.0,0.0,0.0,0.0,0.0,0.0,0.0,0.0,46.27494430541992,0.277190625667572,1.0929789543151855,0.0,0.0,0.0,0.0,0.0,0.0,0.0,0.0,0.0,-0.0030377916991710663,0.011830171570181847,0.04923531413078308,0.0,0.0,0.0,0.0,0.0,0.0,0.0,0.0,0.0
1606990961585964594,4011251,1606987359569530977,imu_link,0.007819773629307747,0.005972445011138916,0.39289844036102295,0.9195291996002197,0.0,0.0,0.0,0.0,0.0,0.0,0.0,0.0,0.0,46.27494812011719,0.27725082635879517,1.092947244644165,0.0,0.0,0.0,0.0,0.0,0.0,0.0,0.0,0.0,-0.017536653205752373,0.02034132555127144,0.03518230468034744,0.0,0.0,0.0,0.0,0.0,0.0,0.0,0.0,0.0
1606990961595722331,4011252,1606987359569609508,imu_link,0.007819773629307747,0.005972445011138916,0.39289844036102295,0.9195291996002197,0.0,0.0,0.0,0.0,0.0,0.0,0.0,0.0,0.0,46.27494812011719,0.27725082635879517,1.092947244644165,0.0,0.0,0.0,0.0,0.0,0.0,0.0,0.0,0.0,-0.017536653205752373,0.02034132555127144,0.03518230468034744,0.0,0.0,0.0,0.0,0.0,0.0,0.0,0.0,0.0
1606990961595745387,4011253,1606987359569757536,imu_link,0.007818950340151787,0.005970712751150131,0.39289912581443787,0.9195289611816406,0.0,0.0,0.0,0.0,0.0,0.0,0.0,0.0,0.0,46.27503204345703,0.27710461616516113,1.092782735824585,0.0,0.0,0.0,0.0,0.0,0.0,0.0,0.0,0.0,-0.0011361560318619013,0.01945365034043789,0.018792174756526947,0.0,0.0,0.0,0.0,0.0,0.0,0.0,0.0,0.0
1606990961595779428,4011254,1606987359582612326,imu_link,0.007818950340151787,0.005970712751150131,0.39289912581443787,0.9195289611816406,0.0,0.0,0.0,0.0,0.0,0.0,0.0,0.0,0.0,46.27503204345703,0.27710461616516113,1.092782735824585,0.0,0.0,0.0,0.0,0.0,0.0,0.0,0.0,0.0,-0.0011361560318619013,0.01945365034043789,0.018792174756526947,0.0,0.0,0.0,0.0,0.0,0.0,0.0,0.0,0.0
1606990961595818937,4011255,1606987359582753633,imu_link,0.007817734964191914,0.005971354898065329,0.3928999602794647,0.9195286631584167,0.0,0.0,0.0,0.0,0.0,0.0,0.0,0.0,0.0,46.27513885498047,0.277226060628891,1.0926837921142578,0.0,0.0,0.0,0.0,0.0,0.0,0.0,0.0,0.0,0.004385464824736118,0.018277762457728386,0.02533523179590702,0.0,0.0,0.0,0.0,0.0,0.0,0.0,0.0,0.0
1606990961606538489,4011256,1606987359582859929,imu_link,0.007817734964191914,0.005971354898065329,0.3928999602794647,0.9195286631584167,0.0,0.0,0.0,0.0,0.0,0.0,0.0,0.0,0.0,46.27513885498047,0.277226060628891,1.0926837921142578,0.0,0.0,0.0,0.0,0.0,0.0,0.0,0.0,0.0,0.004385464824736118,0.018277762457728386,0.02533523179590702,0.0,0.0,0.0,0.0,0.0,0.0,0.0,0.0,0.0
1606990961606570476,4011257,1606987359582986141,imu_link,0.00781544204801321,0.005970984231680632,0.39289936423301697,0.9195289015769958,0.0,0.0,0.0,0.0,0.0,0.0,0.0,0.0,0.0,46.27505874633789,0.2772909104824066,1.0924252271652222,0.0,0.0,0.0,0.0,0.0,0.0,0.0,0.0,0.0,0.015853380784392357,0.010637404397130013,0.029993901029229164,0.0,0.0,0.0,0.0,0.0,0.0,0.0,0.0,0.0
1606990961606583556,4011258,1606987359583078570,imu_link,0.00781544204801321,0.005970984231680632,0.39289936423301697,0.9195289015769958,0.0,0.0,0.0,0.0,0.0,0.0,0.0,0.0,0.0,46.27505874633789,0.2772909104824066,1.0924252271652222,0.0,0.0,0.0,0.0,0.0,0.0,0.0,0.0,0.0,0.015853380784392357,0.010637404397130013,0.029993901029229164,0.0,0.0,0.0,0.0,0.0,0.0,0.0,0.0,0.0
1606990961606597613,4011259,1606987359583160209,imu_link,0.00781563576310873,0.00597101915627718,0.3929010033607483,0.9195281863212585,0.0,0.0,0.0,0.0,0.0,0.0,0.0,0.0,0.0,46.2752685546875,0.2772839069366455,1.0924478769302368,0.0,0.0,0.0,0.0,0.0,0.0,0.0,0.0,0.0,0.0066514709033071995,-0.011088337749242783,0.009667767211794853,0.0,0.0,0.0,0.0,0.0,0.0,0.0,0.0,0.0
1606990961646234371,4011260,1606987359583259914,imu_link,0.00781563576310873,0.00597101915627718,0.3929010033607483,0.9195281863212585,0.0,0.0,0.0,0.0,0.0,0.0,0.0,0.0,0.0,46.2752685546875,0.2772839069366455,1.0924478769302368,0.0,0.0,0.0,0.0,0.0,0.0,0.0,0.0,0.0,0.0066514709033071995,-0.011088337749242783,0.009667767211794853,0.0,0.0,0.0,0.0,0.0,0.0,0.0,0.0,0.0
1606990961646245236,4011261,1606987359583342105,imu_link,0.007818443700671196,0.005971576552838087,0.39290034770965576,0.9195284247398376,0.0,0.0,0.0,0.0,0.0,0.0,0.0,0.0,0.0,46.27518844604492,0.27721700072288513,1.092768669128418,0.0,0.0,0.0,0.0,0.0,0.0,0.0,0.0,0.0,-0.003674187231808901,-0.017904963344335556,0.024216964840888977,0.0,0.0,0.0,0.0,0.0,0.0,0.0,0.0,0.0
1606990961646254507,4011262,1606987359583424566,imu_link,0.007818443700671196,0.005971576552838087,0.39290034770965576,0.9195284247398376,0.0,0.0,0.0,0.0,0.0,0.0,0.0,0.0,0.0,46.27518844604492,0.27721700072288513,1.092768669128418,0.0,0.0,0.0,0.0,0.0,0.0,0.0,0.0,0.0,-0.003674187231808901,-0.017904963344335556,0.024216964840888977,0.0,0.0,0.0,0.0,0.0,0.0,0.0,0.0,0.0
1606990961646275580,4011263,1606987359583505378,imu_link,0.007818718440830708,0.00597195141017437,0.3929000198841095,0.919528603553772,0.0,0.0,0.0,0.0,0.0,0.0,0.0,0.0,0.0,46.275142669677734,0.277244508266449,1.092814326286316,0.0,0.0,0.0,0.0,0.0,0.0,0.0,0.0,0.0,0.008022780530154705,-0.01068968791514635,0.032811302691698074,0.0,0.0,0.0,0.0,0.0,0.0,0.0,0.0,0.0
1606990961646284359,4011264,1606987359583589197,imu_link,0.007818718440830708,0.00597195141017437,0.3929000198841095,0.919528603553772,0.0,0.0,0.0,0.0,0.0,0.0,0.0,0.0,0.0,46.275142669677734,0.277244508266449,1.092814326286316,0.0,0.0,0.0,0.0,0.0,0.0,0.0,0.0,0.0,0.008022780530154705,-0.01068968791514635,0.032811302691698074,0.0,0.0,0.0,0.0,0.0,0.0,0.0,0.0,0.0
1606990961655947175,4011265,1606987359596072171,imu_link,0.007819733582437038,0.005974553991109133,0.392898827791214,0.9195290803909302,0.0,0.0,0.0,0.0,0.0,0.0,0.0,0.0,0.0,46.275001525878906,0.27747443318367004,1.0930380821228027,0.0,0.0,0.0,0.0,0.0,0.0,0.0,0.0,0.0,-0.0022111234720796347,0.0006494769477285445,0.03674626350402832,0.0,0.0,0.0,0.0,0.0,0.0,0.0,0.0,0.0
1606990961655988514,4011266,1606987359596219347,imu_link,0.007819733582437038,0.005974553991109133,0.392898827791214,0.9195290803909302,0.0,0.0,0.0,0.0,0.0,0.0,0.0,0.0,0.0,46.275001525878906,0.27747443318367004,1.0930380821228027,0.0,0.0,0.0,0.0,0.0,0.0,0.0,0.0,0.0,-0.0022111234720796347,0.0006494769477285445,0.03674626350402832,0.0,0.0,0.0,0.0,0.0,0.0,0.0,0.0,0.0
1606990961656041617,4011267,1606987359596322610,imu_link,0.007821139879524708,0.0059736743569374084,0.39289841055870056,0.9195292592048645,0.0,0.0,0.0,0.0,0.0,0.0,0.0,0.0,0.0,46.27494430541992,0.27731895446777344,1.093146562576294,0.0,0.0,0.0,0.0,0.0,0.0,0.0,0.0,0.0,-0.005184543319046497,-0.00484556844457984,0.043241892009973526,0.0,0.0,0.0,0.0,0.0,0.0,0.0,0.0,0.0
1606990961656052260,4011268,1606987359596413155,imu_link,0.007821139879524708,0.0059736743569374084,0.39289841055870056,0.9195292592048645,0.0,0.0,0.0,0.0,0.0,0.0,0.0,0.0,0.0,46.27494430541992,0.27731895446777344,1.093146562576294,0.0,0.0,0.0,0.0,0.0,0.0,0.0,0.0,0.0,-0.005184543319046497,-0.00484556844457984,0.043241892009973526,0.0,0.0,0.0,0.0,0.0,0.0,0.0,0.0,0.0
1606990961669549181,4011269,1606987359596519611,imu_link,0.007820319384336472,0.005972703453153372,0.3928999900817871,0.919528603553772,0.0,0.0,0.0,0.0,0.0,0.0,0.0,0.0,0.0,46.27513885498047,0.2772517204284668,1.0930168628692627,0.0,0.0,0.0,0.0,0.0,0.0,0.0,0.0,0.0,0.008987795561552048,0.000888705370016396,0.03683406114578247,0.0,0.0,0.0,0.0,0.0,0.0,0.0,0.0,0.0
1606990961669583525,4011270,1606987359596633149,imu_link,0.007820319384336472,0.005972703453153372,0.3928999900817871,0.919528603553772,0.0,0.0,0.0,0.0,0.0,0.0,0.0,0.0,0.0,46.27513885498047,0.2772517204284668,1.0930168628692627,0.0,0.0,0.0,0.0,0.0,0.0,0.0,0.0,0.0,0.008987795561552048,0.000888705370016396,0.03683406114578247,0.0,0.0,0.0,0.0,0.0,0.0,0.0,0.0,0.0
1606990961669598974,4011271,1606987359596718617,imu_link,0.007819035090506077,0.005974442232400179,0.39289867877960205,0.9195291996002197,0.0,0.0,0.0,0.0,0.0,0.0,0.0,0.0,0.0,46.27497863769531,0.27749431133270264,1.0929594039916992,0.0,0.0,0.0,0.0,0.0,0.0,0.0,0.0,0.0,0.011755397543311119,0.0003690419252961874,0.04350963607430458,0.0,0.0,0.0,0.0,0.0,0.0,0.0,0.0,0.0
1606990961669610678,4011272,1606987359596799820,imu_link,0.007819035090506077,0.005974442232400179,0.39289867877960205,0.9195291996002197,0.0,0.0,0.0,0.0,0.0,0.0,0.0,0.0,0.0,46.27497863769531,0.27749431133270264,1.0929594039916992,0.0,0.0,0.0,0.0,0.0,0.0,0.0,0.0,0.0,0.011755397543311119,0.0003690419252961874,0.04350963607430458,0.0,0.0,0.0,0.0,0.0,0.0,0.0,0.0,0.0
1606990961669630617,4011273,1606987359596879204,imu_link,0.007817549630999565,0.005975525826215744,0.39289963245391846,0.9195287227630615,0.0,0.0,0.0,0.0,0.0,0.0,0.0,0.0,0.0,46.27510452270508,0.27767422795295715,1.092851996421814,0.0,0.0,0.0,0.0,0.0,0.0,0.0,0.0,0.0,0.006663125474005938,-0.004981866106390953,0.0568104051053524,0.0,0.0,0.0,0.0,0.0,0.0,0.0,0.0,0.0
1606990961674875464,4011274,1606987359596969287,imu_link,0.007817549630999565,0.005975525826215744,0.39289963245391846,0.9195287227630615,0.0,0.0,0.0,0.0,0.0,0.0,0.0,0.0,0.0,46.27510452270508,0.27767422795295715,1.092851996421814,0.0,0.0,0.0,0.0,0.0,0.0,0.0,0.0,0.0,0.006663125474005938,-0.004981866106390953,0.0568104051053524,0.0,0.0,0.0,0.0,0.0,0.0,0.0,0.0,0.0
1606990961674899549,4011275,1606987359597049002,imu_link,0.007816462777554989,0.005975921638309956,0.39290109276771545,0.9195281267166138,0.0,0.0,0.0,0.0,0.0,0.0,0.0,0.0,0.0,46.2752799987793,0.27776315808296204,1.092755675315857,0.0,0.0,0.0,0.0,0.0,0.0,0.0,0.0,0.0,-0.0002555614337325096,0.007284845225512981,0.06211341544985771,0.0,0.0,0.0,0.0,0.0,0.0,0.0,0.0,0.0
1606990961674913587,4011276,1606987359608987787,imu_link,0.007816462777554989,0.005975921638309956,0.39290109276771545,0.9195281267166138,0.0,0.0,0.0,0.0,0.0,0.0,0.0,0.0,0.0,46.2752799987793,0.27776315808296204,1.092755675315857,0.0,0.0,0.0,0.0,0.0,0.0,0.0,0.0,0.0,-0.0002555614337325096,0.007284845225512981,0.06211341544985771,0.0,0.0,0.0,0.0,0.0,0.0,0.0,0.0,0.0
1606990961674924249,4011277,1606987359609133955,imu_link,0.007814603857696056,0.00597737031057477,0.3929004669189453,0.9195284247398376,0.0,0.0,0.0,0.0,0.0,0.0,0.0,0.0,0.0,46.275203704833984,0.27800023555755615,1.0926249027252197,0.0,0.0,0.0,0.0,0.0,0.0,0.0,0.0,0.0,-0.007692988496273756,0.022943653166294098,0.05707139894366264,0.0,0.0,0.0,0.0,0.0,0.0,0.0,0.0,0.0
1606990961725882784,4011278,1606987359609269644,imu_link,0.007814603857696056,0.00597737031057477,0.3929004669189453,0.9195284247398376,0.0,0.0,0.0,0.0,0.0,0.0,0.0,0.0,0.0,46.275203704833984,0.27800023555755615,1.0926249027252197,0.0,0.0,0.0,0.0,0.0,0.0,0.0,0.0,0.0,-0.007692988496273756,0.022943653166294098,0.05707139894366264,0.0,0.0,0.0,0.0,0.0,0.0,0.0,0.0,0.0
1606990961725896671,4011279,1606987359609366378,imu_link,0.007812950760126114,0.005975311156362295,0.3929003179073334,0.9195284843444824,0.0,0.0,0.0,0.0,0.0,0.0,0.0,0.0,0.0,46.275184631347656,0.27785786986351013,1.092357873916626,0.0,0.0,0.0,0.0,0.0,0.0,0.0,0.0,0.0,0.008114807307720184,0.014658825471997261,0.032715678215026855,0.0,0.0,0.0,0.0,0.0,0.0,0.0,0.0,0.0
1606990961725902113,4011280,1606987359609457368,imu_link,0.007812950760126114,0.005975311156362295,0.3929003179073334,0.9195284843444824,0.0,0.0,0.0,0.0,0.0,0.0,0.0,0.0,0.0,46.275184631347656,0.27785786986351013,1.092357873916626,0.0,0.0,0.0,0.0,0.0,0.0,0.0,0.0,0.0,0.008114807307720184,0.014658825471997261,0.032715678215026855,0.0,0.0,0.0,0.0,0.0,0.0,0.0,0.0,0.0
1606990961725907745,4011281,1606987359609555510,imu_link,0.007812166586518288,0.005974637810140848,0.39289796352386475,0.9195294976234436,0.0,0.0,0.0,0.0,0.0,0.0,0.0,0.0,0.0,46.2748908996582,0.2778250277042389,1.092244267463684,0.0,0.0,0.0,0.0,0.0,0.0,0.0,0.0,0.0,0.022827336564660072,-0.0011316072195768356,0.02276449277997017,0.0,0.0,0.0,0.0,0.0,0.0,0.0,0.0,0.0
1606990961725914682,4011282,1606987359609638638,imu_link,0.007812166586518288,0.005974637810140848,0.39289796352386475,0.9195294976234436,0.0,0.0,0.0,0.0,0.0,0.0,0.0,0.0,0.0,46.2748908996582,0.2778250277042389,1.092244267463684,0.0,0.0,0.0,0.0,0.0,0.0,0.0,0.0,0.0,0.022827336564660072,-0.0011316072195768356,0.02276449277997017,0.0,0.0,0.0,0.0,0.0,0.0,0.0,0.0,0.0
1606990961729758804,4011283,1606987359609717621,imu_link,0.007812000811100006,0.005976246204227209,0.39289817214012146,0.9195294380187988,0.0,0.0,0.0,0.0,0.0,0.0,0.0,0.0,0.0,46.27491760253906,0.2780017554759979,1.0922991037368774,0.0,0.0,0.0,0.0,0.0,0.0,0.0,0.0,0.0,-0.0021701243240386248,0.011210542172193527,0.033566176891326904,0.0,0.0,0.0,0.0,0.0,0.0,0.0,0.0,0.0
1606990961729787496,4011284,1606987359609806135,imu_link,0.007812000811100006,0.005976246204227209,0.39289817214012146,0.9195294380187988,0.0,0.0,0.0,0.0,0.0,0.0,0.0,0.0,0.0,46.27491760253906,0.2780017554759979,1.0922991037368774,0.0,0.0,0.0,0.0,0.0,0.0,0.0,0.0,0.0,-0.0021701243240386248,0.011210542172193527,0.033566176891326904,0.0,0.0,0.0,0.0,0.0,0.0,0.0,0.0,0.0
1606990961729798891,4011285,1606987359609886612,imu_link,0.007809968665242195,0.005976048298180103,0.39289960265159607,0.9195287823677063,0.0,0.0,0.0,0.0,0.0,0.0,0.0,0.0,0.0,46.27510452270508,0.2780706584453583,1.0920766592025757,0.0,0.0,0.0,0.0,0.0,0.0,0.0,0.0,0.0,-0.015455035492777824,0.013271892443299294,0.055239029228687286,0.0,0.0,0.0,0.0,0.0,0.0,0.0,0.0,0.0
1606990961729804820,4011286,1606987359622735633,imu_link,0.007809968665242195,0.005976048298180103,0.39289960265159607,0.9195287823677063,0.0,0.0,0.0,0.0,0.0,0.0,0.0,0.0,0.0,46.27510452270508,0.2780706584453583,1.0920766592025757,0.0,0.0,0.0,0.0,0.0,0.0,0.0,0.0,0.0,-0.015455035492777824,0.013271892443299294,0.055239029228687286,0.0,0.0,0.0,0.0,0.0,0.0,0.0,0.0,0.0
1606990961766625043,4011287,1606987359622879361,imu_link,0.007810001261532307,0.005976217798888683,0.392896831035614,0.9195299744606018,0.0,0.0,0.0,0.0,0.0,0.0,0.0,0.0,0.0,46.27475357055664,0.27809032797813416,1.092086911201477,0.0,0.0,0.0,0.0,0.0,0.0,0.0,0.0,0.0,-0.009507185779511929,0.012698395177721977,0.04782155901193619,0.0,0.0,0.0,0.0,0.0,0.0,0.0,0.0,0.0
1606990961766650573,4011288,1606987359623015100,imu_link,0.007810001261532307,0.005976217798888683,0.392896831035614,0.9195299744606018,0.0,0.0,0.0,0.0,0.0,0.0,0.0,0.0,0.0,46.27475357055664,0.27809032797813416,1.092086911201477,0.0,0.0,0.0,0.0,0.0,0.0,0.0,0.0,0.0,-0.009507185779511929,0.012698395177721977,0.04782155901193619,0.0,0.0,0.0,0.0,0.0,0.0,0.0,0.0,0.0
1606990961766681523,4011289,1606987359623101821,imu_link,0.007807696238160133,0.00597372418269515,0.3928958475589752,0.91953045129776,0.0,0.0,0.0,0.0,0.0,0.0,0.0,0.0,0.0,46.27462387084961,0.2779325544834137,1.0917314291000366,0.0,0.0,0.0,0.0,0.0,0.0,0.0,0.0,0.0,-0.01103362999856472,0.01432240940630436,0.041385773569345474,0.0,0.0,0.0,0.0,0.0,0.0,0.0,0.0,0.0
1606990961766696287,4011290,1606987359623183790,imu_link,0.007807696238160133,0.00597372418269515,0.3928958475589752,0.91953045129776,0.0,0.0,0.0,0.0,0.0,0.0,0.0,0.0,0.0,46.27462387084961,0.2779325544834137,1.0917314291000366,0.0,0.0,0.0,0.0,0.0,0.0,0.0,0.0,0.0,-0.01103362999856472,0.01432240940630436,0.041385773569345474,0.0,0.0,0.0,0.0,0.0,0.0,0.0,0.0,0.0
