%time,field.header.seq,field.header.stamp,field.header.frame_id,field.orientation.x,field.orientation.y,field.orientation.z,field.orientation.w,field.orientation_covariance0,field.orientation_covariance1,field.orientation_covariance2,field.orientation_covariance3,field.orientation_covariance4,field.orientation_covariance5,field.orientation_covariance6,field.orientation_covariance7,field.orientation_covariance8,field.angular_velocity.x,field.angular_velocity.y,field.angular_velocity.z,field.angular_velocity_covariance0,field.angular_velocity_covariance1,field.angular_velocity_covariance2,field.angular_velocity_covariance3,field.angular_velocity_covariance4,field.angular_velocity_covariance5,field.angular_velocity_covariance6,field.angular_velocity_covariance7,field.angular_velocity_covariance8,field.linear_acceleration.x,field.linear_acceleration.y,field.linear_acceleration.z,field.linear_acceleration_covariance0,field.linear_acceleration_covariance1,field.linear_acceleration_covariance2,field.linear_acceleration_covariance3,field.linear_acceleration_covariance4,field.linear_acceleration_covariance5,field.linear_acceleration_covariance6,field.linear_acceleration_covariance7,field.linear_acceleration_covariance8
1606989742634820370,3037194,1606986141992081406,imu_link,0.01222915668040514,0.00439976854249835,0.9306380748748779,0.3657103180885315,0.0,0.0,0.0,0.0,0.0,0.0,0.0,0.0,0.0,137.08399963378906,-1.1198461055755615,0.9819324016571045,0.0,0.0,0.0,0.0,0.0,0.0,0.0,0.0,0.0,0.01371140219271183,0.0006269199075177312,0.04229329526424408,0.0,0.0,0.0,0.0,0.0,0.0,0.0,0.0,0.0
1606989742634848514,3037195,1606986141992313759,imu_link,0.012228057719767094,0.004401116166263819,0.9306378364562988,0.36571088433265686,0.0,0.0,0.0,0.0,0.0,0.0,0.0,0.0,0.0,137.0839080810547,-1.1196717023849487,0.9820306897163391,0.0,0.0,0.0,0.0,0.0,0.0,0.0,0.0,0.0,0.0025875060819089413,-0.01098792627453804,0.047377776354551315,0.0,0.0,0.0,0.0,0.0,0.0,0.0,0.0,0.0
1606989742634855699,3037196,1606986141992460514,imu_link,0.012228057719767094,0.004401116166263819,0.9306378364562988,0.36571088433265686,0.0,0.0,0.0,0.0,0.0,0.0,0.0,0.0,0.0,137.0839080810547,-1.1196717023849487,0.9820306897163391,0.0,0.0,0.0,0.0,0.0,0.0,0.0,0.0,0.0,0.0025875060819089413,-0.01098792627453804,0.047377776354551315,0.0,0.0,0.0,0.0,0.0,0.0,0.0,0.0,0.0
1606989742634878954,3037197,1606986141992555609,imu_link,0.012228102423250675,0.004404262639582157,0.930634617805481,0.3657189607620239,0.0,0.0,0.0,0.0,0.0,0.0,0.0,0.0,0.0,137.0829315185547,-1.11953604221344,0.982377827167511,0.0,0.0,0.0,0.0,0.0,0.0,0.0,0.0,0.0,0.0016577142523601651,-0.01689327135682106,0.06170802190899849,0.0,0.0,0.0,0.0,0.0,0.0,0.0,0.0,0.0
1606989742641003209,3037198,1606986141992639152,imu_link,0.012228102423250675,0.004404262639582157,0.930634617805481,0.3657189607620239,0.0,0.0,0.0,0.0,0.0,0.0,0.0,0.0,0.0,137.0829315185547,-1.11953604221344,0.982377827167511,0.0,0.0,0.0,0.0,0.0,0.0,0.0,0.0,0.0,0.0016577142523601651,-0.01689327135682106,0.06170802190899849,0.0,0.0,0.0,0.0,0.0,0.0,0.0,0.0,0.0
1606989742641034737,3037199,1606986141992715344,imu_link,0.012228400446474552,0.004405978601425886,0.9306342005729675,0.3657200038433075,0.0,0.0,0.0,0.0,0.0,0.0,0.0,0.0,0.0,137.08279418945312,-1.1194946765899658,0.9825745224952698,0.0,0.0,0.0,0.0,0.0,0.0,0.0,0.0,0.0,0.005636991001665592,0.00021404505241662264,0.07104763388633728,0.0,0.0,0.0,0.0,0.0,0.0,0.0,0.0,0.0
1606989742641065263,3037200,1606986141992832961,imu_link,0.012228400446474552,0.004405978601425886,0.9306342005729675,0.3657200038433075,0.0,0.0,0.0,0.0,0.0,0.0,0.0,0.0,0.0,137.08279418945312,-1.1194946765899658,0.9825745224952698,0.0,0.0,0.0,0.0,0.0,0.0,0.0,0.0,0.0,0.005636991001665592,0.00021404505241662264,0.07104763388633728,0.0,0.0,0.0,0.0,0.0,0.0,0.0,0.0,0.0
1606989742641088236,3037201,1606986141992915848,imu_link,0.012227714993059635,0.004408455453813076,0.9306306838989258,0.3657289445400238,0.0,0.0,0.0,0.0,0.0,0.0,0.0,0.0,0.0,137.08168029785156,-1.1193082332611084,0.9828209280967712,0.0,0.0,0.0,0.0,0.0,0.0,0.0,0.0,0.0,-0.019608382135629654,0.016763871535658836,0.06324157863855362,0.0,0.0,0.0,0.0,0.0,0.0,0.0,0.0,0.0
1606989742686100379,3037202,1606986141992991869,imu_link,0.012227714993059635,0.004408455453813076,0.9306306838989258,0.3657289445400238,0.0,0.0,0.0,0.0,0.0,0.0,0.0,0.0,0.0,137.08168029785156,-1.1193082332611084,0.9828209280967712,0.0,0.0,0.0,0.0,0.0,0.0,0.0,0.0,0.0,-0.019608382135629654,0.016763871535658836,0.06324157863855362,0.0,0.0,0.0,0.0,0.0,0.0,0.0,0.0,0.0
1606989742686128169,3037203,1606986141993072771,imu_link,0.012226545251905918,0.0044098058715462685,0.9306302666664124,0.36573001742362976,0.0,0.0,0.0,0.0,0.0,0.0,0.0,0.0,0.0,137.08155822753906,-1.1191258430480957,0.9829170107841492,0.0,0.0,0.0,0.0,0.0,0.0,0.0,0.0,0.0,-0.01032495591789484,0.0016297291731461883,0.042936667799949646,0.0,0.0,0.0,0.0,0.0,0.0,0.0,0.0,0.0
1606989742686143610,3037204,1606986141993169936,imu_link,0.012226545251905918,0.0044098058715462685,0.9306302666664124,0.36573001742362976,0.0,0.0,0.0,0.0,0.0,0.0,0.0,0.0,0.0,137.08155822753906,-1.1191258430480957,0.9829170107841492,0.0,0.0,0.0,0.0,0.0,0.0,0.0,0.0,0.0,-0.01032495591789484,0.0016297291731461883,0.042936667799949646,0.0,0.0,0.0,0.0,0.0,0.0,0.0,0.0,0.0
1606989742686152555,3037205,1606986142005490477,imu_link,0.012228281237185001,0.004408922977745533,0.930629312992096,0.365732342004776,0.0,0.0,0.0,0.0,0.0,0.0,0.0,0.0,0.0,137.08126831054688,-1.1193455457687378,0.9828984141349792,0.0,0.0,0.0,0.0,0.0,0.0,0.0,0.0,0.0,0.019552335143089294,-0.008022514171898365,0.04881197586655617,0.0,0.0,0.0,0.0,0.0,0.0,0.0,0.0,0.0
1606989742686160918,3037206,1606986142005603142,imu_link,0.012228281237185001,0.004408922977745533,0.930629312992096,0.365732342004776,0.0,0.0,0.0,0.0,0.0,0.0,0.0,0.0,0.0,137.08126831054688,-1.1193455457687378,0.9828984141349792,0.0,0.0,0.0,0.0,0.0,0.0,0.0,0.0,0.0,0.019552335143089294,-0.008022514171898365,0.04881197586655617,0.0,0.0,0.0,0.0,0.0,0.0,0.0,0.0,0.0
1606989742692333497,3037207,1606986142005732148,imu_link,0.012227283790707588,0.004408623091876507,0.9306296110153198,0.3657316565513611,0.0,0.0,0.0,0.0,0.0,0.0,0.0,0.0,0.0,137.08135986328125,-1.1192524433135986,0.98282390832901,0.0,0.0,0.0,0.0,0.0,0.0,0.0,0.0,0.0,0.0057315947487950325,-0.0010291440412402153,0.04718669131398201,0.0,0.0,0.0,0.0,0.0,0.0,0.0,0.0,0.0
1606989742692367537,3037208,1606986142005802331,imu_link,0.012227283790707588,0.004408623091876507,0.9306296110153198,0.3657316565513611,0.0,0.0,0.0,0.0,0.0,0.0,0.0,0.0,0.0,137.08135986328125,-1.1192524433135986,0.98282390832901,0.0,0.0,0.0,0.0,0.0,0.0,0.0,0.0,0.0,0.0057315947487950325,-0.0010291440412402153,0.04718669131398201,0.0,0.0,0.0,0.0,0.0,0.0,0.0,0.0,0.0
1606989742692377901,3037209,1606986142005867125,imu_link,0.012225091457366943,0.004409279208630323,0.9306284189224243,0.365734726190567,0.0,0.0,0.0,0.0,0.0,0.0,0.0,0.0,0.0,137.0809783935547,-1.118988037109375,0.9828056693077087,0.0,0.0,0.0,0.0,0.0,0.0,0.0,0.0,0.0,-0.012999147176742554,0.004186933860182762,0.05666825547814369,0.0,0.0,0.0,0.0,0.0,0.0,0.0,0.0,0.0
1606989742692389018,3037210,1606986142005955397,imu_link,0.012225091457366943,0.004409279208630323,0.9306284189224243,0.365734726190567,0.0,0.0,0.0,0.0,0.0,0.0,0.0,0.0,0.0,137.0809783935547,-1.118988037109375,0.9828056693077087,0.0,0.0,0.0,0.0,0.0,0.0,0.0,0.0,0.0,-0.012999147176742554,0.004186933860182762,0.05666825547814369,0.0,0.0,0.0,0.0,0.0,0.0,0.0,0.0,0.0
1606989742729038283,3037211,1606986142006024249,imu_link,0.012228615581989288,0.004409772343933582,0.9306274056434631,0.36573705077171326,0.0,0.0,0.0,0.0,0.0,0.0,0.0,0.0,0.0,137.0806884765625,-1.1193405389785767,0.983008861541748,0.0,0.0,0.0,0.0,0.0,0.0,0.0,0.0,0.0,-0.008411305956542492,-0.010350345633924007,0.06705494970083237,0.0,0.0,0.0,0.0,0.0,0.0,0.0,0.0,0.0
1606989742729057279,3037212,1606986142006089752,imu_link,0.012228615581989288,0.004409772343933582,0.9306274056434631,0.36573705077171326,0.0,0.0,0.0,0.0,0.0,0.0,0.0,0.0,0.0,137.0806884765625,-1.1193405389785767,0.983008861541748,0.0,0.0,0.0,0.0,0.0,0.0,0.0,0.0,0.0,-0.008411305956542492,-0.010350345633924007,0.06705494970083237,0.0,0.0,0.0,0.0,0.0,0.0,0.0,0.0,0.0
1606989742729091310,3037213,1606986142006152169,imu_link,0.012232158333063126,0.004409924149513245,0.9306286573410034,0.3657340109348297,0.0,0.0,0.0,0.0,0.0,0.0,0.0,0.0,0.0,137.0810546875,-1.1197153329849243,0.9831700325012207,0.0,0.0,0.0,0.0,0.0,0.0,0.0,0.0,0.0,-0.00655155535787344,-0.004953713156282902,0.053243864327669144,0.0,0.0,0.0,0.0,0.0,0.0,0.0,0.0,0.0
1606989742729099983,3037214,1606986142006215724,imu_link,0.012232158333063126,0.004409924149513245,0.9306286573410034,0.3657340109348297,0.0,0.0,0.0,0.0,0.0,0.0,0.0,0.0,0.0,137.0810546875,-1.1197153329849243,0.9831700325012207,0.0,0.0,0.0,0.0,0.0,0.0,0.0,0.0,0.0,-0.00655155535787344,-0.004953713156282902,0.053243864327669144,0.0,0.0,0.0,0.0,0.0,0.0,0.0,0.0,0.0
1606989742729112498,3037215,1606986142006278733,imu_link,0.012232373468577862,0.004409183748066425,0.9306286573410034,0.3657340109348297,0.0,0.0,0.0,0.0,0.0,0.0,0.0,0.0,0.0,137.0810546875,-1.1197692155838013,0.9831001162528992,0.0,0.0,0.0,0.0,0.0,0.0,0.0,0.0,0.0,-0.011959140188992023,0.020921405404806137,0.04500169679522514,0.0,0.0,0.0,0.0,0.0,0.0,0.0,0.0,0.0
1606989742736260354,3037216,1606986142018381265,imu_link,0.012232373468577862,0.004409183748066425,0.9306286573410034,0.3657340109348297,0.0,0.0,0.0,0.0,0.0,0.0,0.0,0.0,0.0,137.0810546875,-1.1197692155838013,0.9831001162528992,0.0,0.0,0.0,0.0,0.0,0.0,0.0,0.0,0.0,-0.011959140188992023,0.020921405404806137,0.04500169679522514,0.0,0.0,0.0,0.0,0.0,0.0,0.0,0.0,0.0
1606989742736281922,3037217,1606986142018723649,imu_link,0.012233804911375046,0.004404142033308744,0.9306305646896362,0.36572912335395813,0.0,0.0,0.0,0.0,0.0,0.0,0.0,0.0,0.0,137.08164978027344,-1.1201385259628296,0.9826163649559021,0.0,0.0,0.0,0.0,0.0,0.0,0.0,0.0,0.0,0.00444639241322875,0.02412319928407669,0.028896715492010117,0.0,0.0,0.0,0.0,0.0,0.0,0.0,0.0,0.0
1606989742736359631,3037218,1606986142018803398,imu_link,0.012233804911375046,0.004404142033308744,0.9306305646896362,0.36572912335395813,0.0,0.0,0.0,0.0,0.0,0.0,0.0,0.0,0.0,137.08164978027344,-1.1201385259628296,0.9826163649559021,0.0,0.0,0.0,0.0,0.0,0.0,0.0,0.0,0.0,0.00444639241322875,0.02412319928407669,0.028896715492010117,0.0,0.0,0.0,0.0,0.0,0.0,0.0,0.0,0.0
1606989742736369913,3037219,1606986142018877605,imu_link,0.012234282679855824,0.004402907099574804,0.9306299090385437,0.36573076248168945,0.0,0.0,0.0,0.0,0.0,0.0,0.0,0.0,0.0,137.08145141601562,-1.1202393770217896,0.9825067520141602,0.0,0.0,0.0,0.0,0.0,0.0,0.0,0.0,0.0,0.016787944361567497,0.008510930463671684,0.031469348818063736,0.0,0.0,0.0,0.0,0.0,0.0,0.0,0.0,0.0
1606989742748052109,3037220,1606986142018994476,imu_link,0.012234282679855824,0.004402907099574804,0.9306299090385437,0.36573076248168945,0.0,0.0,0.0,0.0,0.0,0.0,0.0,0.0,0.0,137.08145141601562,-1.1202393770217896,0.9825067520141602,0.0,0.0,0.0,0.0,0.0,0.0,0.0,0.0,0.0,0.016787944361567497,0.008510930463671684,0.031469348818063736,0.0,0.0,0.0,0.0,0.0,0.0,0.0,0.0,0.0
1606989742748071483,3037221,1606986142019091433,imu_link,0.012230915948748589,0.004402186255902052,0.9306266903877258,0.3657390773296356,0.0,0.0,0.0,0.0,0.0,0.0,0.0,0.0,0.0,137.0804443359375,-1.1199017763137817,0.9822985529899597,0.0,0.0,0.0,0.0,0.0,0.0,0.0,0.0,0.0,0.01683572307229042,0.011253196746110916,0.053455982357263565,0.0,0.0,0.0,0.0,0.0,0.0,0.0,0.0,0.0
1606989742748094733,3037222,1606986142019169093,imu_link,0.012230915948748589,0.004402186255902052,0.9306266903877258,0.3657390773296356,0.0,0.0,0.0,0.0,0.0,0.0,0.0,0.0,0.0,137.0804443359375,-1.1199017763137817,0.9822985529899597,0.0,0.0,0.0,0.0,0.0,0.0,0.0,0.0,0.0,0.01683572307229042,0.011253196746110916,0.053455982357263565,0.0,0.0,0.0,0.0,0.0,0.0,0.0,0.0,0.0
1606989742748115309,3037223,1606986142019251470,imu_link,0.01222980860620737,0.00440465472638607,0.9306261539459229,0.36574041843414307,0.0,0.0,0.0,0.0,0.0,0.0,0.0,0.0,0.0,137.0802764892578,-1.1196788549423218,0.982516884803772,0.0,0.0,0.0,0.0,0.0,0.0,0.0,0.0,0.0,0.013189348392188549,0.018498053774237633,0.046880558133125305,0.0,0.0,0.0,0.0,0.0,0.0,0.0,0.0,0.0
1606989742748130941,3037224,1606986142019344587,imu_link,0.01222980860620737,0.00440465472638607,0.9306261539459229,0.36574041843414307,0.0,0.0,0.0,0.0,0.0,0.0,0.0,0.0,0.0,137.0802764892578,-1.1196788549423218,0.982516884803772,0.0,0.0,0.0,0.0,0.0,0.0,0.0,0.0,0.0,0.013189348392188549,0.018498053774237633,0.046880558133125305,0.0,0.0,0.0,0.0,0.0,0.0,0.0,0.0,0.0
1606989742776027689,3037225,1606986142019423766,imu_link,0.012224387377500534,0.004402720835059881,0.9306225180625916,0.36574992537498474,0.0,0.0,0.0,0.0,0.0,0.0,0.0,0.0,0.0,137.07911682128906,-1.1191717386245728,0.9820947051048279,0.0,0.0,0.0,0.0,0.0,0.0,0.0,0.0,0.0,-0.00032212689984589815,0.01316303014755249,0.06428702920675278,0.0,0.0,0.0,0.0,0.0,0.0,0.0,0.0,0.0
1606989742776059405,3037226,1606986142032193503,imu_link,0.012224387377500534,0.004402720835059881,0.9306225180625916,0.36574992537498474,0.0,0.0,0.0,0.0,0.0,0.0,0.0,0.0,0.0,137.07911682128906,-1.1191717386245728,0.9820947051048279,0.0,0.0,0.0,0.0,0.0,0.0,0.0,0.0,0.0,-0.00032212689984589815,0.01316303014755249,0.06428702920675278,0.0,0.0,0.0,0.0,0.0,0.0,0.0,0.0,0.0
1606989742776067796,3037227,1606986142032334765,imu_link,0.012224407866597176,0.004404871258884668,0.9306222200393677,0.36575064063072205,0.0,0.0,0.0,0.0,0.0,0.0,0.0,0.0,0.0,137.0790252685547,-1.119083046913147,0.9823258519172668,0.0,0.0,0.0,0.0,0.0,0.0,0.0,0.0,0.0,-0.008047796785831451,0.0073937783017754555,0.08224969357252121,0.0,0.0,0.0,0.0,0.0,0.0,0.0,0.0,0.0
1606989742776107486,3037228,1606986142032486832,imu_link,0.012224407866597176,0.004404871258884668,0.9306222200393677,0.36575064063072205,0.0,0.0,0.0,0.0,0.0,0.0,0.0,0.0,0.0,137.0790252685547,-1.119083046913147,0.9823258519172668,0.0,0.0,0.0,0.0,0.0,0.0,0.0,0.0,0.0,-0.008047796785831451,0.0073937783017754555,0.08224969357252121,0.0,0.0,0.0,0.0,0.0,0.0,0.0,0.0,0.0
1606989742782000682,3037229,1606986142032584373,imu_link,0.012227796949446201,0.004403178114444017,0.9306228756904602,0.36574870347976685,0.0,0.0,0.0,0.0,0.0,0.0,0.0,0.0,0.0,137.07925415039062,-1.119517207145691,0.9822850823402405,0.0,0.0,0.0,0.0,0.0,0.0,0.0,0.0,0.0,-0.016193531453609467,-0.009600932709872723,0.07096714526414871,0.0,0.0,0.0,0.0,0.0,0.0,0.0,0.0,0.0
1606989742782027745,3037230,1606986142032673163,imu_link,0.012227796949446201,0.004403178114444017,0.9306228756904602,0.36574870347976685,0.0,0.0,0.0,0.0,0.0,0.0,0.0,0.0,0.0,137.07925415039062,-1.119517207145691,0.9822850823402405,0.0,0.0,0.0,0.0,0.0,0.0,0.0,0.0,0.0,-0.016193531453609467,-0.009600932709872723,0.07096714526414871,0.0,0.0,0.0,0.0,0.0,0.0,0.0,0.0,0.0
1606989742782056885,3037231,1606986142032755970,imu_link,0.012227486819028854,0.004402646794915199,0.9306228160858154,0.3657488226890564,0.0,0.0,0.0,0.0,0.0,0.0,0.0,0.0,0.0,137.07923889160156,-1.1195063591003418,0.9822157025337219,0.0,0.0,0.0,0.0,0.0,0.0,0.0,0.0,0.0,-0.029438458383083344,-0.007082316093146801,0.055477168411016464,0.0,0.0,0.0,0.0,0.0,0.0,0.0,0.0,0.0
1606989742782087160,3037232,1606986142032865949,imu_link,0.012227486819028854,0.004402646794915199,0.9306228160858154,0.3657488226890564,0.0,0.0,0.0,0.0,0.0,0.0,0.0,0.0,0.0,137.07923889160156,-1.1195063591003418,0.9822157025337219,0.0,0.0,0.0,0.0,0.0,0.0,0.0,0.0,0.0,-0.029438458383083344,-0.007082316093146801,0.055477168411016464,0.0,0.0,0.0,0.0,0.0,0.0,0.0,0.0,0.0
1606989742782114796,3037233,1606986142032955531,imu_link,0.01223399955779314,0.0044008162803947926,0.9306241869926453,0.3657454252243042,0.0,0.0,0.0,0.0,0.0,0.0,0.0,0.0,0.0,137.07965087890625,-1.1202813386917114,0.9822894930839539,0.0,0.0,0.0,0.0,0.0,0.0,0.0,0.0,0.0,-0.020424408838152885,0.005838826298713684,0.04313476383686066,0.0,0.0,0.0,0.0,0.0,0.0,0.0,0.0,0.0
1606989742834926936,3037234,1606986142033067806,imu_link,0.01223399955779314,0.0044008162803947926,0.9306241869926453,0.3657454252243042,0.0,0.0,0.0,0.0,0.0,0.0,0.0,0.0,0.0,137.07965087890625,-1.1202813386917114,0.9822894930839539,0.0,0.0,0.0,0.0,0.0,0.0,0.0,0.0,0.0,-0.020424408838152885,0.005838826298713684,0.04313476383686066,0.0,0.0,0.0,0.0,0.0,0.0,0.0,0.0,0.0
1606989742834957881,3037235,1606986142033144910,imu_link,0.012235431000590324,0.004400360863655806,0.930623471736908,0.3657469153404236,0.0,0.0,0.0,0.0,0.0,0.0,0.0,0.0,0.0,137.07945251464844,-1.1204513311386108,0.9823027849197388,0.0,0.0,0.0,0.0,0.0,0.0,0.0,0.0,0.0,-0.0064757633954286575,0.014295988716185093,0.06409412622451782,0.0,0.0,0.0,0.0,0.0,0.0,0.0,0.0,0.0
1606989742834970135,3037236,1606986142033234567,imu_link,0.012235431000590324,0.004400360863655806,0.930623471736908,0.3657469153404236,0.0,0.0,0.0,0.0,0.0,0.0,0.0,0.0,0.0,137.07945251464844,-1.1204513311386108,0.9823027849197388,0.0,0.0,0.0,0.0,0.0,0.0,0.0,0.0,0.0,-0.0064757633954286575,0.014295988716185093,0.06409412622451782,0.0,0.0,0.0,0.0,0.0,0.0,0.0,0.0,0.0
1606989742834992841,3037237,1606986142045668017,imu_link,0.012234459631145,0.00439650472253561,0.9306251406669617,0.36574292182922363,0.0,0.0,0.0,0.0,0.0,0.0,0.0,0.0,0.0,137.0799560546875,-1.1205137968063354,0.9818459153175354,0.0,0.0,0.0,0.0,0.0,0.0,0.0,0.0,0.0,-0.005295662209391594,0.014908131211996078,0.07767324894666672,0.0,0.0,0.0,0.0,0.0,0.0,0.0,0.0,0.0
1606989742841102937,3037238,1606986142045820801,imu_link,0.012234459631145,0.00439650472253561,0.9306251406669617,0.36574292182922363,0.0,0.0,0.0,0.0,0.0,0.0,0.0,0.0,0.0,137.0799560546875,-1.1205137968063354,0.9818459153175354,0.0,0.0,0.0,0.0,0.0,0.0,0.0,0.0,0.0,-0.005295662209391594,0.014908131211996078,0.07767324894666672,0.0,0.0,0.0,0.0,0.0,0.0,0.0,0.0,0.0
1606989742841144074,3037239,1606986142045920937,imu_link,0.01223349291831255,0.004396660253405571,0.9306239485740662,0.36574602127075195,0.0,0.0,0.0,0.0,0.0,0.0,0.0,0.0,0.0,137.07957458496094,-1.1204010248184204,0.9818255305290222,0.0,0.0,0.0,0.0,0.0,0.0,0.0,0.0,0.0,0.006977023556828499,0.007106323726475239,0.06935489177703857,0.0,0.0,0.0,0.0,0.0,0.0,0.0,0.0,0.0
1606989742841167362,3037240,1606986142046025850,imu_link,0.01223349291831255,0.004396660253405571,0.9306239485740662,0.36574602127075195,0.0,0.0,0.0,0.0,0.0,0.0,0.0,0.0,0.0,137.07957458496094,-1.1204010248184204,0.9818255305290222,0.0,0.0,0.0,0.0,0.0,0.0,0.0,0.0,0.0,0.006977023556828499,0.007106323726475239,0.06935489177703857,0.0,0.0,0.0,0.0,0.0,0.0,0.0,0.0,0.0
1606989742841185456,3037241,1606986142046115447,imu_link,0.012229787185788155,0.004397638142108917,0.9306251406669617,0.3657430112361908,0.0,0.0,0.0,0.0,0.0,0.0,0.0,0.0,0.0,137.0799560546875,-1.1199679374694824,0.981770932674408,0.0,0.0,0.0,0.0,0.0,0.0,0.0,0.0,0.0,0.0006709599401801825,0.013413363136351109,0.07798188179731369,0.0,0.0,0.0,0.0,0.0,0.0,0.0,0.0,0.0
1606989742841195410,3037242,1606986142046202519,imu_link,0.012229787185788155,0.004397638142108917,0.9306251406669617,0.3657430112361908,0.0,0.0,0.0,0.0,0.0,0.0,0.0,0.0,0.0,137.0799560546875,-1.1199679374694824,0.981770932674408,0.0,0.0,0.0,0.0,0.0,0.0,0.0,0.0,0.0,0.0006709599401801825,0.013413363136351109,0.07798188179731369,0.0,0.0,0.0,0.0,0.0,0.0,0.0,0.0,0.0
1606989742851224886,3037243,1606986142046309898,imu_link,0.012229008600115776,0.004397194366902113,0.9306244254112244,0.365744948387146,0.0,0.0,0.0,0.0,0.0,0.0,0.0,0.0,0.0,137.07972717285156,-1.119901418685913,0.9816932082176208,0.0,0.0,0.0,0.0,0.0,0.0,0.0,0.0,0.0,0.006503169424831867,-0.004111945163458586,0.05954138934612274,0.0,0.0,0.0,0.0,0.0,0.0,0.0,0.0,0.0
1606989742851253910,3037244,1606986142046392729,imu_link,0.012229008600115776,0.004397194366902113,0.9306244254112244,0.365744948387146,0.0,0.0,0.0,0.0,0.0,0.0,0.0,0.0,0.0,137.07972717285156,-1.119901418685913,0.9816932082176208,0.0,0.0,0.0,0.0,0.0,0.0,0.0,0.0,0.0,0.006503169424831867,-0.004111945163458586,0.05954138934612274,0.0,0.0,0.0,0.0,0.0,0.0,0.0,0.0,0.0
1606989742851265938,3037245,1606986142046476648,imu_link,0.012227975763380527,0.004398750141263008,0.9306249022483826,0.3657437562942505,0.0,0.0,0.0,0.0,0.0,0.0,0.0,0.0,0.0,137.07986450195312,-1.1197274923324585,0.9818143248558044,0.0,0.0,0.0,0.0,0.0,0.0,0.0,0.0,0.0,0.01118561066687107,-0.017405753955245018,0.06612100452184677,0.0,0.0,0.0,0.0,0.0,0.0,0.0,0.0,0.0
1606989742851291164,3037246,1606986142046559585,imu_link,0.012227975763380527,0.004398750141263008,0.9306249022483826,0.3657437562942505,0.0,0.0,0.0,0.0,0.0,0.0,0.0,0.0,0.0,137.07986450195312,-1.1197274923324585,0.9818143248558044,0.0,0.0,0.0,0.0,0.0,0.0,0.0,0.0,0.0,0.01118561066687107,-0.017405753955245018,0.06612100452184677,0.0,0.0,0.0,0.0,0.0,0.0,0.0,0.0,0.0
1606989742859594497,3037247,1606986142046646005,imu_link,0.01222658809274435,0.004400096368044615,0.9306243062019348,0.3657453656196594,0.0,0.0,0.0,0.0,0.0,0.0,0.0,0.0,0.0,137.07968139648438,-1.119521141052246,0.9819016456604004,0.0,0.0,0.0,0.0,0.0,0.0,0.0,0.0,0.0,0.0033678868785500526,-0.004116307478398085,0.07870945334434509,0.0,0.0,0.0,0.0,0.0,0.0,0.0,0.0,0.0
1606989742859646557,3037248,1606986142059550440,imu_link,0.01222658809274435,0.004400096368044615,0.9306243062019348,0.3657453656196594,0.0,0.0,0.0,0.0,0.0,0.0,0.0,0.0,0.0,137.07968139648438,-1.119521141052246,0.9819016456604004,0.0,0.0,0.0,0.0,0.0,0.0,0.0,0.0,0.0,0.0033678868785500526,-0.004116307478398085,0.07870945334434509,0.0,0.0,0.0,0.0,0.0,0.0,0.0,0.0,0.0
1606989742859675791,3037249,1606986142059690254,imu_link,0.012228135019540787,0.004402180667966604,0.9306249022483826,0.36574357748031616,0.0,0.0,0.0,0.0,0.0,0.0,0.0,0.0,0.0,137.07989501953125,-1.1196006536483765,0.9821867942810059,0.0,0.0,0.0,0.0,0.0,0.0,0.0,0.0,0.0,0.0002680834149941802,0.004602924454957247,0.03892095014452934,0.0,0.0,0.0,0.0,0.0,0.0,0.0,0.0,0.0
1606989742859698043,3037250,1606986142059886678,imu_link,0.012228135019540787,0.004402180667966604,0.9306249022483826,0.36574357748031616,0.0,0.0,0.0,0.0,0.0,0.0,0.0,0.0,0.0,137.07989501953125,-1.1196006536483765,0.9821867942810059,0.0,0.0,0.0,0.0,0.0,0.0,0.0,0.0,0.0,0.0002680834149941802,0.004602924454957247,0.03892095014452934,0.0,0.0,0.0,0.0,0.0,0.0,0.0,0.0,0.0
1606989742859766320,3037251,1606986142059974722,imu_link,0.0122294332832098,0.004404162056744099,0.9306252002716064,0.36574286222457886,0.0,0.0,0.0,0.0,0.0,0.0,0.0,0.0,0.0,137.07997131347656,-1.1196568012237549,0.9824516773223877,0.0,0.0,0.0,0.0,0.0,0.0,0.0,0.0,0.0,-0.009356165304780006,-0.008778275921940804,0.026985228061676025,0.0,0.0,0.0,0.0,0.0,0.0,0.0,0.0,0.0
1606989742865843551,3037252,1606986142060123186,imu_link,0.0122294332832098,0.004404162056744099,0.9306252002716064,0.36574286222457886,0.0,0.0,0.0,0.0,0.0,0.0,0.0,0.0,0.0,137.07997131347656,-1.1196568012237549,0.9824516773223877,0.0,0.0,0.0,0.0,0.0,0.0,0.0,0.0,0.0,-0.009356165304780006,-0.008778275921940804,0.026985228061676025,0.0,0.0,0.0,0.0,0.0,0.0,0.0,0.0,0.0
1606989742865878828,3037253,1606986142060211595,imu_link,0.012230939231812954,0.004405367653816938,0.9306279420852661,0.365735799074173,0.0,0.0,0.0,0.0,0.0,0.0,0.0,0.0,0.0,137.08084106445312,-1.1197744607925415,0.9826349020004272,0.0,0.0,0.0,0.0,0.0,0.0,0.0,0.0,0.0,-0.014141876250505447,-0.018000898882746696,0.03844648227095604,0.0,0.0,0.0,0.0,0.0,0.0,0.0,0.0,0.0
1606989742865911993,3037254,1606986142060394569,imu_link,0.012230939231812954,0.004405367653816938,0.9306279420852661,0.365735799074173,0.0,0.0,0.0,0.0,0.0,0.0,0.0,0.0,0.0,137.08084106445312,-1.1197744607925415,0.9826349020004272,0.0,0.0,0.0,0.0,0.0,0.0,0.0,0.0,0.0,-0.014141876250505447,-0.018000898882746696,0.03844648227095604,0.0,0.0,0.0,0.0,0.0,0.0,0.0,0.0,0.0
1606989742865938522,3037255,1606986142060480262,imu_link,0.012229030020534992,0.004405492916703224,0.9306271076202393,0.3657379746437073,0.0,0.0,0.0,0.0,0.0,0.0,0.0,0.0,0.0,137.08058166503906,-1.1195632219314575,0.9825707674026489,0.0,0.0,0.0,0.0,0.0,0.0,0.0,0.0,0.0,-0.02840283513069153,-0.006389917805790901,0.060151200741529465,0.0,0.0,0.0,0.0,0.0,0.0,0.0,0.0,0.0
1606989742920843471,3037256,1606986142060640538,imu_link,0.012229030020534992,0.004405492916703224,0.9306271076202393,0.3657379746437073,0.0,0.0,0.0,0.0,0.0,0.0,0.0,0.0,0.0,137.08058166503906,-1.1195632219314575,0.9825707674026489,0.0,0.0,0.0,0.0,0.0,0.0,0.0,0.0,0.0,-0.02840283513069153,-0.006389917805790901,0.060151200741529465,0.0,0.0,0.0,0.0,0.0,0.0,0.0,0.0,0.0
1606989742920869474,3037257,1606986142060722768,imu_link,0.01223397720605135,0.004407063592225313,0.930628776550293,0.3657335042953491,0.0,0.0,0.0,0.0,0.0,0.0,0.0,0.0,0.0,137.0811309814453,-1.1200295686721802,0.9829404950141907,0.0,0.0,0.0,0.0,0.0,0.0,0.0,0.0,0.0,-0.027559278532862663,-0.00020478107035160065,0.07137571275234222,0.0,0.0,0.0,0.0,0.0,0.0,0.0,0.0,0.0
1606989742920912355,3037258,1606986142060799947,imu_link,0.01223397720605135,0.004407063592225313,0.930628776550293,0.3657335042953491,0.0,0.0,0.0,0.0,0.0,0.0,0.0,0.0,0.0,137.0811309814453,-1.1200295686721802,0.9829404950141907,0.0,0.0,0.0,0.0,0.0,0.0,0.0,0.0,0.0,-0.027559278532862663,-0.00020478107035160065,0.07137571275234222,0.0,0.0,0.0,0.0,0.0,0.0,0.0,0.0,0.0
1606989742920928671,3037259,1606986142072897559,imu_link,0.012234139256179333,0.0044066342525184155,0.9306297898292542,0.36573106050491333,0.0,0.0,0.0,0.0,0.0,0.0,0.0,0.0,0.0,137.0814208984375,-1.1200674772262573,0.9828985333442688,0.0,0.0,0.0,0.0,0.0,0.0,0.0,0.0,0.0,-0.01965625025331974,0.00353351142257452,0.0718601644039154,0.0,0.0,0.0,0.0,0.0,0.0,0.0,0.0,0.0
1606989742920941607,3037260,1606986142073034125,imu_link,0.012234139256179333,0.0044066342525184155,0.9306297898292542,0.36573106050491333,0.0,0.0,0.0,0.0,0.0,0.0,0.0,0.0,0.0,137.0814208984375,-1.1200674772262573,0.9828985333442688,0.0,0.0,0.0,0.0,0.0,0.0,0.0,0.0,0.0,-0.01965625025331974,0.00353351142257452,0.0718601644039154,0.0,0.0,0.0,0.0,0.0,0.0,0.0,0.0,0.0
1606989742929007053,3037261,1606986142073161260,imu_link,0.012234965339303017,0.00440324516966939,0.9306312203407288,0.3657274544239044,0.0,0.0,0.0,0.0,0.0,0.0,0.0,0.0,0.0,137.0818634033203,-1.120301604270935,0.9825673699378967,0.0,0.0,0.0,0.0,0.0,0.0,0.0,0.0,0.0,-0.017290148884058,-0.0031218593940138817,0.055026162415742874,0.0,0.0,0.0,0.0,0.0,0.0,0.0,0.0,0.0
1606989742929026057,3037262,1606986142073249258,imu_link,0.012234965339303017,0.00440324516966939,0.9306312203407288,0.3657274544239044,0.0,0.0,0.0,0.0,0.0,0.0,0.0,0.0,0.0,137.0818634033203,-1.120301604270935,0.9825673699378967,0.0,0.0,0.0,0.0,0.0,0.0,0.0,0.0,0.0,-0.017290148884058,-0.0031218593940138817,0.055026162415742874,0.0,0.0,0.0,0.0,0.0,0.0,0.0,0.0,0.0
1606989742929049865,3037263,1606986142073330672,imu_link,0.012235739268362522,0.004402481019496918,0.9306313395500183,0.3657270669937134,0.0,0.0,0.0,0.0,0.0,0.0,0.0,0.0,0.0,137.0819091796875,-1.120416522026062,0.9825178384780884,0.0,0.0,0.0,0.0,0.0,0.0,0.0,0.0,0.0,-0.01186983659863472,-0.015924494713544846,0.045698024332523346,0.0,0.0,0.0,0.0,0.0,0.0,0.0,0.0,0.0
1606989742929055281,3037264,1606986142073425581,imu_link,0.012235739268362522,0.004402481019496918,0.9306313395500183,0.3657270669937134,0.0,0.0,0.0,0.0,0.0,0.0,0.0,0.0,0.0,137.0819091796875,-1.120416522026062,0.9825178384780884,0.0,0.0,0.0,0.0,0.0,0.0,0.0,0.0,0.0,-0.01186983659863472,-0.015924494713544846,0.045698024332523346,0.0,0.0,0.0,0.0,0.0,0.0,0.0,0.0,0.0
1606989742964841807,3037265,1606986142073508588,imu_link,0.012240917421877384,0.0044065495021641254,0.9306319952011108,0.36572515964508057,0.0,0.0,0.0,0.0,0.0,0.0,0.0,0.0,0.0,137.08213806152344,-1.120800256729126,0.9831668138504028,0.0,0.0,0.0,0.0,0.0,0.0,0.0,0.0,0.0,-0.015752580016851425,0.002443204168230295,0.05057058483362198,0.0,0.0,0.0,0.0,0.0,0.0,0.0,0.0,0.0
1606989742964888095,3037266,1606986142073595560,imu_link,0.012240917421877384,0.0044065495021641254,0.9306319952011108,0.36572515964508057,0.0,0.0,0.0,0.0,0.0,0.0,0.0,0.0,0.0,137.08213806152344,-1.120800256729126,0.9831668138504028,0.0,0.0,0.0,0.0,0.0,0.0,0.0,0.0,0.0,-0.015752580016851425,0.002443204168230295,0.05057058483362198,0.0,0.0,0.0,0.0,0.0,0.0,0.0,0.0,0.0
1606989742964900219,3037267,1606986142073675575,imu_link,0.012241244316101074,0.0044056386686861515,0.9306322932243347,0.36572450399398804,0.0,0.0,0.0,0.0,0.0,0.0,0.0,0.0,0.0,137.08221435546875,-1.1208739280700684,0.9830825328826904,0.0,0.0,0.0,0.0,0.0,0.0,0.0,0.0,0.0,-0.009960724972188473,0.018602289259433746,0.022251712158322334,0.0,0.0,0.0,0.0,0.0,0.0,0.0,0.0,0.0
1606989742964917279,3037268,1606986142073756422,imu_link,0.012241244316101074,0.0044056386686861515,0.9306322932243347,0.36572450399398804,0.0,0.0,0.0,0.0,0.0,0.0,0.0,0.0,0.0,137.08221435546875,-1.1208739280700684,0.9830825328826904,0.0,0.0,0.0,0.0,0.0,0.0,0.0,0.0,0.0,-0.009960724972188473,0.018602289259433746,0.022251712158322334,0.0,0.0,0.0,0.0,0.0,0.0,0.0,0.0,0.0
1606989743049981463,3037269,1606986142073836071,imu_link,0.012242024764418602,0.0044001564383506775,0.9306327700614929,0.3657233417034149,0.0,0.0,0.0,0.0,0.0,0.0,0.0,0.0,0.0,137.08236694335938,-1.1211881637573242,0.9825290441513062,0.0,0.0,0.0,0.0,0.0,0.0,0.0,0.0,0.0,0.0011880112579092383,0.0019251338671892881,0.0010188850574195385,0.0,0.0,0.0,0.0,0.0,0.0,0.0,0.0,0.0
1606989743050008686,3037270,1606986142085727138,imu_link,0.012242024764418602,0.0044001564383506775,0.9306327700614929,0.3657233417034149,0.0,0.0,0.0,0.0,0.0,0.0,0.0,0.0,0.0,137.08236694335938,-1.1211881637573242,0.9825290441513062,0.0,0.0,0.0,0.0,0.0,0.0,0.0,0.0,0.0,0.0011880112579092383,0.0019251338671892881,0.0010188850574195385,0.0,0.0,0.0,0.0,0.0,0.0,0.0,0.0,0.0
1606989743050028569,3037271,1606986142085775400,imu_link,0.012242224998772144,0.004401807207614183,0.9306327700614929,0.36572301387786865,0.0,0.0,0.0,0.0,0.0,0.0,0.0,0.0,0.0,137.0823974609375,-1.1211405992507935,0.9827133417129517,0.0,0.0,0.0,0.0,0.0,0.0,0.0,0.0,0.0,0.00851984042674303,-0.012589077465236187,0.01837451569736004,0.0,0.0,0.0,0.0,0.0,0.0,0.0,0.0,0.0
1606989743050047019,3037272,1606986142085800393,imu_link,0.012242224998772144,0.004401807207614183,0.9306327700614929,0.36572301387786865,0.0,0.0,0.0,0.0,0.0,0.0,0.0,0.0,0.0,137.0823974609375,-1.1211405992507935,0.9827133417129517,0.0,0.0,0.0,0.0,0.0,0.0,0.0,0.0,0.0,0.00851984042674303,-0.012589077465236187,0.01837451569736004,0.0,0.0,0.0,0.0,0.0,0.0,0.0,0.0,0.0
1606989743050058195,3037273,1606986142085824513,imu_link,0.012240041047334671,0.0044046007096767426,0.9306343197822571,0.36571937799453735,0.0,0.0,0.0,0.0,0.0,0.0,0.0,0.0,0.0,137.0828399658203,-1.120794653892517,0.9829151034355164,0.0,0.0,0.0,0.0,0.0,0.0,0.0,0.0,0.0,-0.005366547964513302,-0.021720703691244125,0.04729222133755684,0.0,0.0,0.0,0.0,0.0,0.0,0.0,0.0,0.0
1606989743061991681,3037274,1606986142085855094,imu_link,0.012240041047334671,0.0044046007096767426,0.9306343197822571,0.36571937799453735,0.0,0.0,0.0,0.0,0.0,0.0,0.0,0.0,0.0,137.0828399658203,-1.120794653892517,0.9829151034355164,0.0,0.0,0.0,0.0,0.0,0.0,0.0,0.0,0.0,-0.005366547964513302,-0.021720703691244125,0.04729222133755684,0.0,0.0,0.0,0.0,0.0,0.0,0.0,0.0,0.0
1606989743062031766,3037275,1606986142085885367,imu_link,0.012240483425557613,0.004405496641993523,0.9306336045265198,0.3657212257385254,0.0,0.0,0.0,0.0,0.0,0.0,0.0,0.0,0.0,137.08262634277344,-1.1208022832870483,0.9830315113067627,0.0,0.0,0.0,0.0,0.0,0.0,0.0,0.0,0.0,-0.019881386309862137,-0.027170734480023384,0.04533345624804497,0.0,0.0,0.0,0.0,0.0,0.0,0.0,0.0,0.0
1606989743062049554,3037276,1606986142085911111,imu_link,0.012240483425557613,0.004405496641993523,0.9306336045265198,0.3657212257385254,0.0,0.0,0.0,0.0,0.0,0.0,0.0,0.0,0.0,137.08262634277344,-1.1208022832870483,0.9830315113067627,0.0,0.0,0.0,0.0,0.0,0.0,0.0,0.0,0.0,-0.019881386309862137,-0.027170734480023384,0.04533345624804497,0.0,0.0,0.0,0.0,0.0,0.0,0.0,0.0,0.0
1606989743062082360,3037277,1606986142085935779,imu_link,0.012243353761732578,0.004408135544508696,0.9306334853172302,0.365721195936203,0.0,0.0,0.0,0.0,0.0,0.0,0.0,0.0,0.0,137.08261108398438,-1.120997667312622,0.9834334254264832,0.0,0.0,0.0,0.0,0.0,0.0,0.0,0.0,0.0,-0.0056729307398200035,-0.016508907079696655,0.047819528728723526,0.0,0.0,0.0,0.0,0.0,0.0,0.0,0.0,0.0
1606989743069292232,3037278,1606986142085958545,imu_link,0.012243353761732578,0.004408135544508696,0.9306334853172302,0.365721195936203,0.0,0.0,0.0,0.0,0.0,0.0,0.0,0.0,0.0,137.08261108398438,-1.120997667312622,0.9834334254264832,0.0,0.0,0.0,0.0,0.0,0.0,0.0,0.0,0.0,-0.0056729307398200035,-0.016508907079696655,0.047819528728723526,0.0,0.0,0.0,0.0,0.0,0.0,0.0,0.0,0.0
1606989743069330987,3037279,1606986142085982257,imu_link,0.01224073302000761,0.004408862441778183,0.9306328892707825,0.3657228946685791,0.0,0.0,0.0,0.0,0.0,0.0,0.0,0.0,0.0,137.08241271972656,-1.1206859350204468,0.9834030270576477,0.0,0.0,0.0,0.0,0.0,0.0,0.0,0.0,0.0,0.00048347015399485826,0.012823568657040596,0.057720039039850235,0.0,0.0,0.0,0.0,0.0,0.0,0.0,0.0,0.0
1606989743069379577,3037280,1606986142099656281,imu_link,0.01224073302000761,0.004408862441778183,0.9306328892707825,0.3657228946685791,0.0,0.0,0.0,0.0,0.0,0.0,0.0,0.0,0.0,137.08241271972656,-1.1206859350204468,0.9834030270576477,0.0,0.0,0.0,0.0,0.0,0.0,0.0,0.0,0.0,0.00048347015399485826,0.012823568657040596,0.057720039039850235,0.0,0.0,0.0,0.0,0.0,0.0,0.0,0.0,0.0
1606989743069395706,3037281,1606986142099729305,imu_link,0.012239580973982811,0.004406815394759178,0.9306328892707825,0.36572298407554626,0.0,0.0,0.0,0.0,0.0,0.0,0.0,0.0,0.0,137.08241271972656,-1.120648980140686,0.9831364154815674,0.0,0.0,0.0,0.0,0.0,0.0,0.0,0.0,0.0,-0.004822086077183485,0.01986243948340416,0.06188828870654106,0.0,0.0,0.0,0.0,0.0,0.0,0.0,0.0,0.0
1606989743069406529,3037282,1606986142099778235,imu_link,0.012239580973982811,0.004406815394759178,0.9306328892707825,0.36572298407554626,0.0,0.0,0.0,0.0,0.0,0.0,0.0,0.0,0.0,137.08241271972656,-1.120648980140686,0.9831364154815674,0.0,0.0,0.0,0.0,0.0,0.0,0.0,0.0,0.0,-0.004822086077183485,0.01986243948340416,0.06188828870654106,0.0,0.0,0.0,0.0,0.0,0.0,0.0,0.0,0.0
1606989743074084830,3037283,1606986142099817144,imu_link,0.012240291573107243,0.004404699429869652,0.9306327104568481,0.3657234013080597,0.0,0.0,0.0,0.0,0.0,0.0,0.0,0.0,0.0,137.0823516845703,-1.1208128929138184,0.9829410910606384,0.0,0.0,0.0,0.0,0.0,0.0,0.0,0.0,0.0,-0.008357184939086437,-6.632530130445957e-05,0.07238416373729706,0.0,0.0,0.0,0.0,0.0,0.0,0.0,0.0,0.0
1606989743074100702,3037284,1606986142099856085,imu_link,0.012240291573107243,0.004404699429869652,0.9306327104568481,0.3657234013080597,0.0,0.0,0.0,0.0,0.0,0.0,0.0,0.0,0.0,137.0823516845703,-1.1208128929138184,0.9829410910606384,0.0,0.0,0.0,0.0,0.0,0.0,0.0,0.0,0.0,-0.008357184939086437,-6.632530130445957e-05,0.07238416373729706,0.0,0.0,0.0,0.0,0.0,0.0,0.0,0.0,0.0
1606989743074108039,3037285,1606986142099896610,imu_link,0.01223780121654272,0.004403717815876007,0.9306310415267944,0.3657276928424835,0.0,0.0,0.0,0.0,0.0,0.0,0.0,0.0,0.0,137.0818328857422,-1.1205837726593018,0.9827371835708618,0.0,0.0,0.0,0.0,0.0,0.0,0.0,0.0,0.0,0.010448643006384373,-0.010386046022176743,0.07416897267103195,0.0,0.0,0.0,0.0,0.0,0.0,0.0,0.0,0.0
1606989743074123006,3037286,1606986142099943546,imu_link,0.01223780121654272,0.004403717815876007,0.9306310415267944,0.3657276928424835,0.0,0.0,0.0,0.0,0.0,0.0,0.0,0.0,0.0,137.0818328857422,-1.1205837726593018,0.9827371835708618,0.0,0.0,0.0,0.0,0.0,0.0,0.0,0.0,0.0,0.010448643006384373,-0.010386046022176743,0.07416897267103195,0.0,0.0,0.0,0.0,0.0,0.0,0.0,0.0,0.0
1606989743111454626,3037287,1606986142099983523,imu_link,0.012238379567861557,0.0044049532152712345,0.9306308031082153,0.36572831869125366,0.0,0.0,0.0,0.0,0.0,0.0,0.0,0.0,0.0,137.08175659179688,-1.1205930709838867,0.9828938245773315,0.0,0.0,0.0,0.0,0.0,0.0,0.0,0.0,0.0,0.016118230298161507,-0.01255001500248909,0.04646268114447594,0.0,0.0,0.0,0.0,0.0,0.0,0.0,0.0,0.0
1606989743111490505,3037288,1606986142100021272,imu_link,0.012238379567861557,0.0044049532152712345,0.9306308031082153,0.36572831869125366,0.0,0.0,0.0,0.0,0.0,0.0,0.0,0.0,0.0,137.08175659179688,-1.1205930709838867,0.9828938245773315,0.0,0.0,0.0,0.0,0.0,0.0,0.0,0.0,0.0,0.016118230298161507,-0.01255001500248909,0.04646268114447594,0.0,0.0,0.0,0.0,0.0,0.0,0.0,0.0,0.0
1606989743111506819,3037289,1606986142100060577,imu_link,0.012238075956702232,0.004407201427966356,0.9306290745735168,0.3657325208187103,0.0,0.0,0.0,0.0,0.0,0.0,0.0,0.0,0.0,137.0812225341797,-1.1204619407653809,0.983126163482666,0.0,0.0,0.0,0.0,0.0,0.0,0.0,0.0,0.0,-0.011553660035133362,-0.00397793622687459,0.04693899676203728,0.0,0.0,0.0,0.0,0.0,0.0,0.0,0.0,0.0
1606989743111524796,3037290,1606986142100098446,imu_link,0.012238075956702232,0.004407201427966356,0.9306290745735168,0.3657325208187103,0.0,0.0,0.0,0.0,0.0,0.0,0.0,0.0,0.0,137.0812225341797,-1.1204619407653809,0.983126163482666,0.0,0.0,0.0,0.0,0.0,0.0,0.0,0.0,0.0,-0.011553660035133362,-0.00397793622687459,0.04693899676203728,0.0,0.0,0.0,0.0,0.0,0.0,0.0,0.0,0.0
1606989743111538963,3037291,1606986142113182757,imu_link,0.012237698771059513,0.00440717488527298,0.9306292533874512,0.365732342004776,0.0,0.0,0.0,0.0,0.0,0.0,0.0,0.0,0.0,137.08126831054688,-1.1204230785369873,0.9831070899963379,0.0,0.0,0.0,0.0,0.0,0.0,0.0,0.0,0.0,-0.024738870561122894,0.004284723196178675,0.05923289805650711,0.0,0.0,0.0,0.0,0.0,0.0,0.0,0.0,0.0
1606989743117822448,3037292,1606986142113253956,imu_link,0.012237698771059513,0.00440717488527298,0.9306292533874512,0.365732342004776,0.0,0.0,0.0,0.0,0.0,0.0,0.0,0.0,0.0,137.08126831054688,-1.1204230785369873,0.9831070899963379,0.0,0.0,0.0,0.0,0.0,0.0,0.0,0.0,0.0,-0.024738870561122894,0.004284723196178675,0.05923289805650711,0.0,0.0,0.0,0.0,0.0,0.0,0.0,0.0,0.0
1606989743117839453,3037293,1606986142113304381,imu_link,0.012240664102137089,0.004404549952596426,0.9306280612945557,0.36573517322540283,0.0,0.0,0.0,0.0,0.0,0.0,0.0,0.0,0.0,137.08090209960938,-1.1208463907241821,0.9829549789428711,0.0,0.0,0.0,0.0,0.0,0.0,0.0,0.0,0.0,-0.01804230362176895,-0.00046677154023200274,0.05150866508483887,0.0,0.0,0.0,0.0,0.0,0.0,0.0,0.0,0.0
1606989743117849063,3037294,1606986142113345508,imu_link,0.012240664102137089,0.004404549952596426,0.9306280612945557,0.36573517322540283,0.0,0.0,0.0,0.0,0.0,0.0,0.0,0.0,0.0,137.08090209960938,-1.1208463907241821,0.9829549789428711,0.0,0.0,0.0,0.0,0.0,0.0,0.0,0.0,0.0,-0.01804230362176895,-0.00046677154023200274,0.05150866508483887,0.0,0.0,0.0,0.0,0.0,0.0,0.0,0.0,0.0
1606989743117855598,3037295,1606986142113385607,imu_link,0.012240299955010414,0.004404069855809212,0.9306279420852661,0.3657354712486267,0.0,0.0,0.0,0.0,0.0,0.0,0.0,0.0,0.0,137.08087158203125,-1.120827317237854,0.9828888177871704,0.0,0.0,0.0,0.0,0.0,0.0,0.0,0.0,0.0,-0.013558459468185902,-0.0052284961566329,0.061538662761449814,0.0,0.0,0.0,0.0,0.0,0.0,0.0,0.0,0.0
1606989743145048601,3037296,1606986142113425333,imu_link,0.012240299955010414,0.004404069855809212,0.9306279420852661,0.3657354712486267,0.0,0.0,0.0,0.0,0.0,0.0,0.0,0.0,0.0,137.08087158203125,-1.120827317237854,0.9828888177871704,0.0,0.0,0.0,0.0,0.0,0.0,0.0,0.0,0.0,-0.013558459468185902,-0.0052284961566329,0.061538662761449814,0.0,0.0,0.0,0.0,0.0,0.0,0.0,0.0,0.0
1606989743145072433,3037297,1606986142113473430,imu_link,0.01224406249821186,0.004402619786560535,0.9306272864341736,0.3657369613647461,0.0,0.0,0.0,0.0,0.0,0.0,0.0,0.0,0.0,137.08067321777344,-1.1212878227233887,0.982893705368042,0.0,0.0,0.0,0.0,0.0,0.0,0.0,0.0,0.0,-0.008479558862745762,-0.006502881646156311,0.056518565863370895,0.0,0.0,0.0,0.0,0.0,0.0,0.0,0.0,0.0
1606989743145080710,3037298,1606986142113514848,imu_link,0.01224406249821186,0.004402619786560535,0.9306272864341736,0.3657369613647461,0.0,0.0,0.0,0.0,0.0,0.0,0.0,0.0,0.0,137.08067321777344,-1.1212878227233887,0.982893705368042,0.0,0.0,0.0,0.0,0.0,0.0,0.0,0.0,0.0,-0.008479558862745762,-0.006502881646156311,0.056518565863370895,0.0,0.0,0.0,0.0,0.0,0.0,0.0,0.0,0.0
1606989743145162794,3037299,1606986142113552106,imu_link,0.012242596596479416,0.004403761588037014,0.9306274056434631,0.365736722946167,0.0,0.0,0.0,0.0,0.0,0.0,0.0,0.0,0.0,137.08070373535156,-1.1210838556289673,0.9829539060592651,0.0,0.0,0.0,0.0,0.0,0.0,0.0,0.0,0.0,-0.002947806380689144,-0.002072045113891363,0.04796292260289192,0.0,0.0,0.0,0.0,0.0,0.0,0.0,0.0,0.0
1606989743145172926,3037300,1606986142113591602,imu_link,0.012242596596479416,0.004403761588037014,0.9306274056434631,0.365736722946167,0.0,0.0,0.0,0.0,0.0,0.0,0.0,0.0,0.0,137.08070373535156,-1.1210838556289673,0.9829539060592651,0.0,0.0,0.0,0.0,0.0,0.0,0.0,0.0,0.0,-0.002947806380689144,-0.002072045113891363,0.04796292260289192,0.0,0.0,0.0,0.0,0.0,0.0,0.0,0.0,0.0
1606989743151341378,3037301,1606986142113629053,imu_link,0.01224332582205534,0.004404145758599043,0.930630087852478,0.3657299280166626,0.0,0.0,0.0,0.0,0.0,0.0,0.0,0.0,0.0,137.08154296875,-1.121152639389038,0.9830172061920166,0.0,0.0,0.0,0.0,0.0,0.0,0.0,0.0,0.0,-0.0009044862817972898,0.003643160220235586,0.039203595370054245,0.0,0.0,0.0,0.0,0.0,0.0,0.0,0.0,0.0
1606989743151373616,3037302,1606986142126852708,imu_link,0.01224332582205534,0.004404145758599043,0.930630087852478,0.3657299280166626,0.0,0.0,0.0,0.0,0.0,0.0,0.0,0.0,0.0,137.08154296875,-1.121152639389038,0.9830172061920166,0.0,0.0,0.0,0.0,0.0,0.0,0.0,0.0,0.0,-0.0009044862817972898,0.003643160220235586,0.039203595370054245,0.0,0.0,0.0,0.0,0.0,0.0,0.0,0.0,0.0
1606989743151421152,3037303,1606986142126989822,imu_link,0.012241980992257595,0.004404440056532621,0.9306300282478333,0.3657301068305969,0.0,0.0,0.0,0.0,0.0,0.0,0.0,0.0,0.0,137.08152770996094,-1.1209968328475952,0.9829925298690796,0.0,0.0,0.0,0.0,0.0,0.0,0.0,0.0,0.0,0.009351606480777264,0.0008375447359867394,0.03204772248864174,0.0,0.0,0.0,0.0,0.0,0.0,0.0,0.0,0.0
1606989743151430619,3037304,1606986142127062744,imu_link,0.012241980992257595,0.004404440056532621,0.9306300282478333,0.3657301068305969,0.0,0.0,0.0,0.0,0.0,0.0,0.0,0.0,0.0,137.08152770996094,-1.1209968328475952,0.9829925298690796,0.0,0.0,0.0,0.0,0.0,0.0,0.0,0.0,0.0,0.009351606480777264,0.0008375447359867394,0.03204772248864174,0.0,0.0,0.0,0.0,0.0,0.0,0.0,0.0,0.0
1606989743217140275,3037305,1606986142127115553,imu_link,0.012242997996509075,0.00440455274656415,0.9306331276893616,0.365722119808197,0.0,0.0,0.0,0.0,0.0,0.0,0.0,0.0,0.0,137.08250427246094,-1.121108889579773,0.9830374717712402,0.0,0.0,0.0,0.0,0.0,0.0,0.0,0.0,0.0,0.013830185867846012,-0.00024058169219642878,0.04575236141681671,0.0,0.0,0.0,0.0,0.0,0.0,0.0,0.0,0.0
1606989743217178935,3037306,1606986142127170577,imu_link,0.012242997996509075,0.00440455274656415,0.9306331276893616,0.365722119808197,0.0,0.0,0.0,0.0,0.0,0.0,0.0,0.0,0.0,137.08250427246094,-1.121108889579773,0.9830374717712402,0.0,0.0,0.0,0.0,0.0,0.0,0.0,0.0,0.0,0.013830185867846012,-0.00024058169219642878,0.04575236141681671,0.0,0.0,0.0,0.0,0.0,0.0,0.0,0.0,0.0
1606989743217195863,3037307,1606986142127236864,imu_link,0.012243364006280899,0.004404206294566393,0.9306327104568481,0.36572331190109253,0.0,0.0,0.0,0.0,0.0,0.0,0.0,0.0,0.0,137.0823516845703,-1.1211613416671753,0.9830172061920166,0.0,0.0,0.0,0.0,0.0,0.0,0.0,0.0,0.0,-0.0006357309175655246,0.002493244595825672,0.05453735962510109,0.0,0.0,0.0,0.0,0.0,0.0,0.0,0.0,0.0
1606989743217216391,3037308,1606986142127292312,imu_link,0.012243364006280899,0.004404206294566393,0.9306327104568481,0.36572331190109253,0.0,0.0,0.0,0.0,0.0,0.0,0.0,0.0,0.0,137.0823516845703,-1.1211613416671753,0.9830172061920166,0.0,0.0,0.0,0.0,0.0,0.0,0.0,0.0,0.0,-0.0006357309175655246,0.002493244595825672,0.05453735962510109,0.0,0.0,0.0,0.0,0.0,0.0,0.0,0.0,0.0
1606989743217230676,3037309,1606986142127348800,imu_link,0.012244120240211487,0.004403835628181696,0.9306337833404541,0.3657204508781433,0.0,0.0,0.0,0.0,0.0,0.0,0.0,0.0,0.0,137.08270263671875,-1.1212605237960815,0.9830061197280884,0.0,0.0,0.0,0.0,0.0,0.0,0.0,0.0,0.0,0.003977599553763866,0.008515623398125172,0.06311572343111038,0.0,0.0,0.0,0.0,0.0,0.0,0.0,0.0,0.0
1606989743225152957,3037310,1606986142127402677,imu_link,0.012244120240211487,0.004403835628181696,0.9306337833404541,0.3657204508781433,0.0,0.0,0.0,0.0,0.0,0.0,0.0,0.0,0.0,137.08270263671875,-1.1212605237960815,0.9830061197280884,0.0,0.0,0.0,0.0,0.0,0.0,0.0,0.0,0.0,0.003977599553763866,0.008515623398125172,0.06311572343111038,0.0,0.0,0.0,0.0,0.0,0.0,0.0,0.0,0.0
1606989743225191034,3037311,1606986142127456014,imu_link,0.012245883233845234,0.0044019026681780815,0.9306339025497437,0.3657201826572418,0.0,0.0,0.0,0.0,0.0,0.0,0.0,0.0,0.0,137.08273315429688,-1.1215298175811768,0.9828735589981079,0.0,0.0,0.0,0.0,0.0,0.0,0.0,0.0,0.0,0.011328393593430519,0.011796538718044758,0.05768284201622009,0.0,0.0,0.0,0.0,0.0,0.0,0.0,0.0,0.0
1606989743225203774,3037312,1606986142127509782,imu_link,0.012245883233845234,0.0044019026681780815,0.9306339025497437,0.3657201826572418,0.0,0.0,0.0,0.0,0.0,0.0,0.0,0.0,0.0,137.08273315429688,-1.1215298175811768,0.9828735589981079,0.0,0.0,0.0,0.0,0.0,0.0,0.0,0.0,0.0,0.011328393593430519,0.011796538718044758,0.05768284201622009,0.0,0.0,0.0,0.0,0.0,0.0,0.0,0.0,0.0
1606989743225243039,3037313,1606986142139967996,imu_link,0.012242704629898071,0.004400234669446945,0.9306358098983765,0.3657154440879822,0.0,0.0,0.0,0.0,0.0,0.0,0.0,0.0,0.0,137.0833282470703,-1.1212657690048218,0.9825564622879028,0.0,0.0,0.0,0.0,0.0,0.0,0.0,0.0,0.0,-0.00552228931337595,0.009755797684192657,0.057844601571559906,0.0,0.0,0.0,0.0,0.0,0.0,0.0,0.0,0.0
1606989743252185110,3037314,1606986142140072940,imu_link,0.012242704629898071,0.004400234669446945,0.9306358098983765,0.3657154440879822,0.0,0.0,0.0,0.0,0.0,0.0,0.0,0.0,0.0,137.0833282470703,-1.1212657690048218,0.9825564622879028,0.0,0.0,0.0,0.0,0.0,0.0,0.0,0.0,0.0,-0.00552228931337595,0.009755797684192657,0.057844601571559906,0.0,0.0,0.0,0.0,0.0,0.0,0.0,0.0,0.0
1606989743252230475,3037315,1606986142140219246,imu_link,0.012243755161762238,0.004397901706397533,0.9306355714797974,0.3657161593437195,0.0,0.0,0.0,0.0,0.0,0.0,0.0,0.0,0.0,137.08323669433594,-1.1214748620986938,0.9823527336120605,0.0,0.0,0.0,0.0,0.0,0.0,0.0,0.0,0.0,-0.006544707342982292,-0.0008065613219514489,0.061753977090120316,0.0,0.0,0.0,0.0,0.0,0.0,0.0,0.0,0.0
1606989743252267227,3037316,1606986142140284098,imu_link,0.012243755161762238,0.004397901706397533,0.9306355714797974,0.3657161593437195,0.0,0.0,0.0,0.0,0.0,0.0,0.0,0.0,0.0,137.08323669433594,-1.1214748620986938,0.9823527336120605,0.0,0.0,0.0,0.0,0.0,0.0,0.0,0.0,0.0,-0.006544707342982292,-0.0008065613219514489,0.061753977090120316,0.0,0.0,0.0,0.0,0.0,0.0,0.0,0.0,0.0
1606989743252287099,3037317,1606986142140342182,imu_link,0.012245958670973778,0.004396435339003801,0.9306368827819824,0.36571282148361206,0.0,0.0,0.0,0.0,0.0,0.0,0.0,0.0,0.0,137.08364868164062,-1.1217750310897827,0.9822845458984375,0.0,0.0,0.0,0.0,0.0,0.0,0.0,0.0,0.0,-0.0074488031677901745,0.010059245862066746,0.04760649800300598,0.0,0.0,0.0,0.0,0.0,0.0,0.0,0.0,0.0
1606989743252300530,3037318,1606986142140423413,imu_link,0.012245958670973778,0.004396435339003801,0.9306368827819824,0.36571282148361206,0.0,0.0,0.0,0.0,0.0,0.0,0.0,0.0,0.0,137.08364868164062,-1.1217750310897827,0.9822845458984375,0.0,0.0,0.0,0.0,0.0,0.0,0.0,0.0,0.0,-0.0074488031677901745,0.010059245862066746,0.04760649800300598,0.0,0.0,0.0,0.0,0.0,0.0,0.0,0.0,0.0
1606989743258113093,3037319,1606986142140484255,imu_link,0.01224458683282137,0.004394141025841236,0.9306368827819824,0.3657127618789673,0.0,0.0,0.0,0.0,0.0,0.0,0.0,0.0,0.0,137.0836639404297,-1.1217248439788818,0.9819823503494263,0.0,0.0,0.0,0.0,0.0,0.0,0.0,0.0,0.0,-0.01848161779344082,0.011051234789192677,0.04037490487098694,0.0,0.0,0.0,0.0,0.0,0.0,0.0,0.0,0.0
1606989743258148625,3037320,1606986142140539365,imu_link,0.01224458683282137,0.004394141025841236,0.9306368827819824,0.3657127618789673,0.0,0.0,0.0,0.0,0.0,0.0,0.0,0.0,0.0,137.0836639404297,-1.1217248439788818,0.9819823503494263,0.0,0.0,0.0,0.0,0.0,0.0,0.0,0.0,0.0,-0.01848161779344082,0.011051234789192677,0.04037490487098694,0.0,0.0,0.0,0.0,0.0,0.0,0.0,0.0,0.0
1606989743258164676,3037321,1606986142140596107,imu_link,0.012246742844581604,0.00439112912863493,0.930637776851654,0.36571040749549866,0.0,0.0,0.0,0.0,0.0,0.0,0.0,0.0,0.0,137.08395385742188,-1.1220834255218506,0.9817487001419067,0.0,0.0,0.0,0.0,0.0,0.0,0.0,0.0,0.0,-0.018579445779323578,-0.015911398455500603,0.029068607836961746,0.0,0.0,0.0,0.0,0.0,0.0,0.0,0.0,0.0
1606989743258184535,3037322,1606986142140654668,imu_link,0.012246742844581604,0.00439112912863493,0.930637776851654,0.36571040749549866,0.0,0.0,0.0,0.0,0.0,0.0,0.0,0.0,0.0,137.08395385742188,-1.1220834255218506,0.9817487001419067,0.0,0.0,0.0,0.0,0.0,0.0,0.0,0.0,0.0,-0.018579445779323578,-0.015911398455500603,0.029068607836961746,0.0,0.0,0.0,0.0,0.0,0.0,0.0,0.0,0.0
1606989743300816740,3037323,1606986142153271086,imu_link,0.012245362624526024,0.004391931928694248,0.930637538433075,0.36571112275123596,0.0,0.0,0.0,0.0,0.0,0.0,0.0,0.0,0.0,137.0838623046875,-1.1219019889831543,0.9817771911621094,0.0,0.0,0.0,0.0,0.0,0.0,0.0,0.0,0.0,-0.003391084261238575,-0.027266139164566994,0.03707940876483917,0.0,0.0,0.0,0.0,0.0,0.0,0.0,0.0,0.0
1606989743300836389,3037324,1606986142153391184,imu_link,0.012245362624526024,0.004391931928694248,0.930637538433075,0.36571112275123596,0.0,0.0,0.0,0.0,0.0,0.0,0.0,0.0,0.0,137.0838623046875,-1.1219019889831543,0.9817771911621094,0.0,0.0,0.0,0.0,0.0,0.0,0.0,0.0,0.0,-0.003391084261238575,-0.027266139164566994,0.03707940876483917,0.0,0.0,0.0,0.0,0.0,0.0,0.0,0.0,0.0
1606989743300874958,3037325,1606986142153504510,imu_link,0.012246818281710148,0.004395870491862297,0.9306354522705078,0.3657161295413971,0.0,0.0,0.0,0.0,0.0,0.0,0.0,0.0,0.0,137.08323669433594,-1.1218867301940918,0.982264518737793,0.0,0.0,0.0,0.0,0.0,0.0,0.0,0.0,0.0,-0.0031745615415275097,-0.015164995566010475,0.05993080139160156,0.0,0.0,0.0,0.0,0.0,0.0,0.0,0.0,0.0
1606989743300888041,3037326,1606986142153575783,imu_link,0.012246818281710148,0.004395870491862297,0.9306354522705078,0.3657161295413971,0.0,0.0,0.0,0.0,0.0,0.0,0.0,0.0,0.0,137.08323669433594,-1.1218867301940918,0.982264518737793,0.0,0.0,0.0,0.0,0.0,0.0,0.0,0.0,0.0,-0.0031745615415275097,-0.015164995566010475,0.05993080139160156,0.0,0.0,0.0,0.0,0.0,0.0,0.0,0.0,0.0
1606989743300943709,3037327,1606986142153636359,imu_link,0.012248831801116467,0.004397405777126551,0.9306354522705078,0.36571618914604187,0.0,0.0,0.0,0.0,0.0,0.0,0.0,0.0,0.0,137.08322143554688,-1.1220370531082153,0.9825127124786377,0.0,0.0,0.0,0.0,0.0,0.0,0.0,0.0,0.0,-0.00784264039248228,-0.00026729871751740575,0.05609108880162239,0.0,0.0,0.0,0.0,0.0,0.0,0.0,0.0,0.0
1606989743312796604,3037328,1606986142153700296,imu_link,0.012248831801116467,0.004397405777126551,0.9306354522705078,0.36571618914604187,0.0,0.0,0.0,0.0,0.0,0.0,0.0,0.0,0.0,137.08322143554688,-1.1220370531082153,0.9825127124786377,0.0,0.0,0.0,0.0,0.0,0.0,0.0,0.0,0.0,-0.00784264039248228,-0.00026729871751740575,0.05609108880162239,0.0,0.0,0.0,0.0,0.0,0.0,0.0,0.0,0.0
1606989743312836649,3037329,1606986142153781239,imu_link,0.01225227490067482,0.004397456534206867,0.9306339621543884,0.3657199442386627,0.0,0.0,0.0,0.0,0.0,0.0,0.0,0.0,0.0,137.082763671875,-1.1223982572555542,0.9826670289039612,0.0,0.0,0.0,0.0,0.0,0.0,0.0,0.0,0.0,0.001175752142444253,-0.013435126282274723,0.034436844289302826,0.0,0.0,0.0,0.0,0.0,0.0,0.0,0.0,0.0
1606989743312884329,3037330,1606986142153847877,imu_link,0.01225227490067482,0.004397456534206867,0.9306339621543884,0.3657199442386627,0.0,0.0,0.0,0.0,0.0,0.0,0.0,0.0,0.0,137.082763671875,-1.1223982572555542,0.9826670289039612,0.0,0.0,0.0,0.0,0.0,0.0,0.0,0.0,0.0,0.001175752142444253,-0.013435126282274723,0.034436844289302826,0.0,0.0,0.0,0.0,0.0,0.0,0.0,0.0,0.0
1606989743312906392,3037331,1606986142153975176,imu_link,0.012251917272806168,0.0043990532867610455,0.9306334853172302,0.365721195936203,0.0,0.0,0.0,0.0,0.0,0.0,0.0,0.0,0.0,137.08261108398438,-1.1222916841506958,0.98282390832901,0.0,0.0,0.0,0.0,0.0,0.0,0.0,0.0,0.0,0.009942375123500824,-0.0204456876963377,0.03435104340314865,0.0,0.0,0.0,0.0,0.0,0.0,0.0,0.0,0.0
1606989743321264070,3037332,1606986142154043041,imu_link,0.012251917272806168,0.0043990532867610455,0.9306334853172302,0.365721195936203,0.0,0.0,0.0,0.0,0.0,0.0,0.0,0.0,0.0,137.08261108398438,-1.1222916841506958,0.98282390832901,0.0,0.0,0.0,0.0,0.0,0.0,0.0,0.0,0.0,0.009942375123500824,-0.0204456876963377,0.03435104340314865,0.0,0.0,0.0,0.0,0.0,0.0,0.0,0.0,0.0
1606989743321305005,3037333,1606986142154110088,imu_link,0.012252060696482658,0.0044037108309566975,0.9306361675262451,0.36571428179740906,0.0,0.0,0.0,0.0,0.0,0.0,0.0,0.0,0.0,137.08346557617188,-1.1221190690994263,0.9833183884620667,0.0,0.0,0.0,0.0,0.0,0.0,0.0,0.0,0.0,0.017259644344449043,-0.01214518304914236,0.048331521451473236,0.0,0.0,0.0,0.0,0.0,0.0,0.0,0.0,0.0
1606989743321321999,3037334,1606986142167085920,imu_link,0.012252060696482658,0.0044037108309566975,0.9306361675262451,0.36571428179740906,0.0,0.0,0.0,0.0,0.0,0.0,0.0,0.0,0.0,137.08346557617188,-1.1221190690994263,0.9833183884620667,0.0,0.0,0.0,0.0,0.0,0.0,0.0,0.0,0.0,0.017259644344449043,-0.01214518304914236,0.048331521451473236,0.0,0.0,0.0,0.0,0.0,0.0,0.0,0.0,0.0
1606989743321339234,3037335,1606986142167254219,imu_link,0.01225300319492817,0.004405756015330553,0.9306367039680481,0.36571282148361206,0.0,0.0,0.0,0.0,0.0,0.0,0.0,0.0,0.0,137.08363342285156,-1.1221354007720947,0.983574390411377,0.0,0.0,0.0,0.0,0.0,0.0,0.0,0.0,0.0,0.005078767891973257,-0.008778870105743408,0.06684157252311707,0.0,0.0,0.0,0.0,0.0,0.0,0.0,0.0,0.0
1606989743321362240,3037336,1606986142167347485,imu_link,0.01225300319492817,0.004405756015330553,0.9306367039680481,0.36571282148361206,0.0,0.0,0.0,0.0,0.0,0.0,0.0,0.0,0.0,137.08363342285156,-1.1221354007720947,0.983574390411377,0.0,0.0,0.0,0.0,0.0,0.0,0.0,0.0,0.0,0.005078767891973257,-0.008778870105743408,0.06684157252311707,0.0,0.0,0.0,0.0,0.0,0.0,0.0,0.0,0.0
1606989743332622118,3037337,1606986142167423942,imu_link,0.012252409011125565,0.004407995380461216,0.9306389093399048,0.3657071590423584,0.0,0.0,0.0,0.0,0.0,0.0,0.0,0.0,0.0,137.08432006835938,-1.1219841241836548,0.9837814569473267,0.0,0.0,0.0,0.0,0.0,0.0,0.0,0.0,0.0,-0.009383616968989372,0.009128320030868053,0.07970496267080307,0.0,0.0,0.0,0.0,0.0,0.0,0.0,0.0,0.0
1606989743332660280,3037338,1606986142167493332,imu_link,0.012252409011125565,0.004407995380461216,0.9306389093399048,0.3657071590423584,0.0,0.0,0.0,0.0,0.0,0.0,0.0,0.0,0.0,137.08432006835938,-1.1219841241836548,0.9837814569473267,0.0,0.0,0.0,0.0,0.0,0.0,0.0,0.0,0.0,-0.009383616968989372,0.009128320030868053,0.07970496267080307,0.0,0.0,0.0,0.0,0.0,0.0,0.0,0.0,0.0
1606989743332680335,3037339,1606986142167565575,imu_link,0.012252386659383774,0.004408461041748524,0.9306379556655884,0.36570948362350464,0.0,0.0,0.0,0.0,0.0,0.0,0.0,0.0,0.0,137.0840301513672,-1.1219596862792969,0.9838330745697021,0.0,0.0,0.0,0.0,0.0,0.0,0.0,0.0,0.0,-0.005009335931390524,0.012781208381056786,0.08181273192167282,0.0,0.0,0.0,0.0,0.0,0.0,0.0,0.0,0.0
1606989743332728400,3037340,1606986142167650996,imu_link,0.012252386659383774,0.004408461041748524,0.9306379556655884,0.36570948362350464,0.0,0.0,0.0,0.0,0.0,0.0,0.0,0.0,0.0,137.0840301513672,-1.1219596862792969,0.9838330745697021,0.0,0.0,0.0,0.0,0.0,0.0,0.0,0.0,0.0,-0.005009335931390524,0.012781208381056786,0.08181273192167282,0.0,0.0,0.0,0.0,0.0,0.0,0.0,0.0,0.0
1606989743396193826,3037341,1606986142167722855,imu_link,0.01225234754383564,0.0044066645205020905,0.9306359887123108,0.3657146394252777,0.0,0.0,0.0,0.0,0.0,0.0,0.0,0.0,0.0,137.08340454101562,-1.1220253705978394,0.9836459159851074,0.0,0.0,0.0,0.0,0.0,0.0,0.0,0.0,0.0,0.005878289230167866,0.0030018703546375036,0.0925552248954773,0.0,0.0,0.0,0.0,0.0,0.0,0.0,0.0,0.0
1606989743396235097,3037342,1606986142167844661,imu_link,0.01225234754383564,0.0044066645205020905,0.9306359887123108,0.3657146394252777,0.0,0.0,0.0,0.0,0.0,0.0,0.0,0.0,0.0,137.08340454101562,-1.1220253705978394,0.9836459159851074,0.0,0.0,0.0,0.0,0.0,0.0,0.0,0.0,0.0,0.005878289230167866,0.0030018703546375036,0.0925552248954773,0.0,0.0,0.0,0.0,0.0,0.0,0.0,0.0,0.0
1606989743396246477,3037343,1606986142167920130,imu_link,0.012251148000359535,0.004408025648444891,0.9306361675262451,0.3657141923904419,0.0,0.0,0.0,0.0,0.0,0.0,0.0,0.0,0.0,137.08346557617188,-1.1218409538269043,0.9837402701377869,0.0,0.0,0.0,0.0,0.0,0.0,0.0,0.0,0.0,-0.00012581737246364355,0.002406021114438772,0.08955776691436768,0.0,0.0,0.0,0.0,0.0,0.0,0.0,0.0,0.0
1606989743396314715,3037344,1606986142167990831,imu_link,0.012251148000359535,0.004408025648444891,0.9306361675262451,0.3657141923904419,0.0,0.0,0.0,0.0,0.0,0.0,0.0,0.0,0.0,137.08346557617188,-1.1218409538269043,0.9837402701377869,0.0,0.0,0.0,0.0,0.0,0.0,0.0,0.0,0.0,-0.00012581737246364355,0.002406021114438772,0.08955776691436768,0.0,0.0,0.0,0.0,0.0,0.0,0.0,0.0,0.0
1606989743403394324,3037345,1606986142180671383,imu_link,0.01225295476615429,0.004406316671520472,0.930633544921875,0.3657209277153015,0.0,0.0,0.0,0.0,0.0,0.0,0.0,0.0,0.0,137.08262634277344,-1.1220982074737549,0.9836418628692627,0.0,0.0,0.0,0.0,0.0,0.0,0.0,0.0,0.0,-0.005354288034141064,-0.00013339094584807754,0.05110600218176842,0.0,0.0,0.0,0.0,0.0,0.0,0.0,0.0,0.0
1606989743403425128,3037346,1606986142180787291,imu_link,0.01225295476615429,0.004406316671520472,0.930633544921875,0.3657209277153015,0.0,0.0,0.0,0.0,0.0,0.0,0.0,0.0,0.0,137.08262634277344,-1.1220982074737549,0.9836418628692627,0.0,0.0,0.0,0.0,0.0,0.0,0.0,0.0,0.0,-0.005354288034141064,-0.00013339094584807754,0.05110600218176842,0.0,0.0,0.0,0.0,0.0,0.0,0.0,0.0,0.0
1606989743403447206,3037347,1606986142180944431,imu_link,0.012253076769411564,0.004405920393764973,0.9306330680847168,0.365722119808197,0.0,0.0,0.0,0.0,0.0,0.0,0.0,0.0,0.0,137.08248901367188,-1.1221264600753784,0.9836061000823975,0.0,0.0,0.0,0.0,0.0,0.0,0.0,0.0,0.0,3.349059261381626e-05,-0.003156711347401142,0.050958868116140366,0.0,0.0,0.0,0.0,0.0,0.0,0.0,0.0,0.0
1606989743403475511,3037348,1606986142181015631,imu_link,0.012253076769411564,0.004405920393764973,0.9306330680847168,0.365722119808197,0.0,0.0,0.0,0.0,0.0,0.0,0.0,0.0,0.0,137.08248901367188,-1.1221264600753784,0.9836061000823975,0.0,0.0,0.0,0.0,0.0,0.0,0.0,0.0,0.0,3.349059261381626e-05,-0.003156711347401142,0.050958868116140366,0.0,0.0,0.0,0.0,0.0,0.0,0.0,0.0,0.0
1606989743403495681,3037349,1606986142181084535,imu_link,0.012254676781594753,0.004405308049172163,0.9306321740150452,0.3657242953777313,0.0,0.0,0.0,0.0,0.0,0.0,0.0,0.0,0.0,137.08221435546875,-1.122320532798767,0.9836105704307556,0.0,0.0,0.0,0.0,0.0,0.0,0.0,0.0,0.0,0.015521850436925888,-0.011383929289877415,0.059870123863220215,0.0,0.0,0.0,0.0,0.0,0.0,0.0,0.0,0.0
1606989743413541012,3037350,1606986142181149986,imu_link,0.012254676781594753,0.004405308049172163,0.9306321740150452,0.3657242953777313,0.0,0.0,0.0,0.0,0.0,0.0,0.0,0.0,0.0,137.08221435546875,-1.122320532798767,0.9836105704307556,0.0,0.0,0.0,0.0,0.0,0.0,0.0,0.0,0.0,0.015521850436925888,-0.011383929289877415,0.059870123863220215,0.0,0.0,0.0,0.0,0.0,0.0,0.0,0.0,0.0
1606989743413574189,3037351,1606986142181237040,imu_link,0.01225606445223093,0.004405573941767216,0.9306315779685974,0.3657256066799164,0.0,0.0,0.0,0.0,0.0,0.0,0.0,0.0,0.0,137.08204650878906,-1.1224559545516968,0.9836987257003784,0.0,0.0,0.0,0.0,0.0,0.0,0.0,0.0,0.0,0.026740100234746933,-0.0016965935938060284,0.05247396230697632,0.0,0.0,0.0,0.0,0.0,0.0,0.0,0.0,0.0
1606989743413589190,3037352,1606986142181304023,imu_link,0.01225606445223093,0.004405573941767216,0.9306315779685974,0.3657256066799164,0.0,0.0,0.0,0.0,0.0,0.0,0.0,0.0,0.0,137.08204650878906,-1.1224559545516968,0.9836987257003784,0.0,0.0,0.0,0.0,0.0,0.0,0.0,0.0,0.0,0.026740100234746933,-0.0016965935938060284,0.05247396230697632,0.0,0.0,0.0,0.0,0.0,0.0,0.0,0.0,0.0
1606989743413602748,3037353,1606986142181373993,imu_link,0.012253490276634693,0.004406916443258524,0.9306313395500183,0.36572644114494324,0.0,0.0,0.0,0.0,0.0,0.0,0.0,0.0,0.0,137.08193969726562,-1.122124195098877,0.9837349057197571,0.0,0.0,0.0,0.0,0.0,0.0,0.0,0.0,0.0,0.012637263163924217,0.00823172740638256,0.06657697260379791,0.0,0.0,0.0,0.0,0.0,0.0,0.0,0.0,0.0
1606989743447083765,3037354,1606986142181443806,imu_link,0.012253490276634693,0.004406916443258524,0.9306313395500183,0.36572644114494324,0.0,0.0,0.0,0.0,0.0,0.0,0.0,0.0,0.0,137.08193969726562,-1.122124195098877,0.9837349057197571,0.0,0.0,0.0,0.0,0.0,0.0,0.0,0.0,0.0,0.012637263163924217,0.00823172740638256,0.06657697260379791,0.0,0.0,0.0,0.0,0.0,0.0,0.0,0.0,0.0
1606989743447123096,3037355,1606986142181509182,imu_link,0.012252459302544594,0.004407012369483709,0.9306309819221497,0.36572736501693726,0.0,0.0,0.0,0.0,0.0,0.0,0.0,0.0,0.0,137.0818328857422,-1.1220093965530396,0.9837030172348022,0.0,0.0,0.0,0.0,0.0,0.0,0.0,0.0,0.0,0.006560257636010647,0.01904299482703209,0.05649628862738609,0.0,0.0,0.0,0.0,0.0,0.0,0.0,0.0,0.0
1606989743447170413,3037356,1606986142194394434,imu_link,0.012252459302544594,0.004407012369483709,0.9306309819221497,0.36572736501693726,0.0,0.0,0.0,0.0,0.0,0.0,0.0,0.0,0.0,137.0818328857422,-1.1220093965530396,0.9837030172348022,0.0,0.0,0.0,0.0,0.0,0.0,0.0,0.0,0.0,0.006560257636010647,0.01904299482703209,0.05649628862738609,0.0,0.0,0.0,0.0,0.0,0.0,0.0,0.0,0.0
1606989743447195880,3037357,1606986142194522290,imu_link,0.012252897024154663,0.004406093619763851,0.9306334257125854,0.365721195936203,0.0,0.0,0.0,0.0,0.0,0.0,0.0,0.0,0.0,137.0825958251953,-1.1221009492874146,0.9836159944534302,0.0,0.0,0.0,0.0,0.0,0.0,0.0,0.0,0.0,0.005408899858593941,0.020171726122498512,0.06595359742641449,0.0,0.0,0.0,0.0,0.0,0.0,0.0,0.0,0.0
1606989743447219663,3037358,1606986142194682883,imu_link,0.012252897024154663,0.004406093619763851,0.9306334257125854,0.365721195936203,0.0,0.0,0.0,0.0,0.0,0.0,0.0,0.0,0.0,137.0825958251953,-1.1221009492874146,0.9836159944534302,0.0,0.0,0.0,0.0,0.0,0.0,0.0,0.0,0.0,0.005408899858593941,0.020171726122498512,0.06595359742641449,0.0,0.0,0.0,0.0,0.0,0.0,0.0,0.0,0.0
1606989743508945156,3037359,1606986142194766820,imu_link,0.012253711931407452,0.0044046128168702126,0.9306318163871765,0.3657251298427582,0.0,0.0,0.0,0.0,0.0,0.0,0.0,0.0,0.0,137.0821075439453,-1.1222456693649292,0.983497142791748,0.0,0.0,0.0,0.0,0.0,0.0,0.0,0.0,0.0,0.0012795020593330264,-0.0013412003172561526,0.06682645529508591,0.0,0.0,0.0,0.0,0.0,0.0,0.0,0.0,0.0
1606989743508978064,3037360,1606986142194843691,imu_link,0.012253711931407452,0.0044046128168702126,0.9306318163871765,0.3657251298427582,0.0,0.0,0.0,0.0,0.0,0.0,0.0,0.0,0.0,137.0821075439453,-1.1222456693649292,0.983497142791748,0.0,0.0,0.0,0.0,0.0,0.0,0.0,0.0,0.0,0.0012795020593330264,-0.0013412003172561526,0.06682645529508591,0.0,0.0,0.0,0.0,0.0,0.0,0.0,0.0,0.0
1606989743508996820,3037361,1606986142194935081,imu_link,0.012254937551915646,0.004405769985169172,0.9306343793869019,0.36571869254112244,0.0,0.0,0.0,0.0,0.0,0.0,0.0,0.0,0.0,137.08290100097656,-1.1223349571228027,0.9836640357971191,0.0,0.0,0.0,0.0,0.0,0.0,0.0,0.0,0.0,0.00020339729962870479,0.0020959204994142056,0.04894401133060455,0.0,0.0,0.0,0.0,0.0,0.0,0.0,0.0,0.0
1606989743509012474,3037362,1606986142195061443,imu_link,0.012254937551915646,0.004405769985169172,0.9306343793869019,0.36571869254112244,0.0,0.0,0.0,0.0,0.0,0.0,0.0,0.0,0.0,137.08290100097656,-1.1223349571228027,0.9836640357971191,0.0,0.0,0.0,0.0,0.0,0.0,0.0,0.0,0.0,0.00020339729962870479,0.0020959204994142056,0.04894401133060455,0.0,0.0,0.0,0.0,0.0,0.0,0.0,0.0,0.0
1606989743517520839,3037363,1606986142195144410,imu_link,0.012254762463271618,0.004406386520713568,0.9306349158287048,0.36571720242500305,0.0,0.0,0.0,0.0,0.0,0.0,0.0,0.0,0.0,137.0830841064453,-1.1222918033599854,0.983720600605011,0.0,0.0,0.0,0.0,0.0,0.0,0.0,0.0,0.0,-0.007992899045348167,0.014302070252597332,0.046367865055799484,0.0,0.0,0.0,0.0,0.0,0.0,0.0,0.0,0.0
1606989743517553721,3037364,1606986142195215623,imu_link,0.012254762463271618,0.004406386520713568,0.9306349158287048,0.36571720242500305,0.0,0.0,0.0,0.0,0.0,0.0,0.0,0.0,0.0,137.0830841064453,-1.1222918033599854,0.983720600605011,0.0,0.0,0.0,0.0,0.0,0.0,0.0,0.0,0.0,-0.007992899045348167,0.014302070252597332,0.046367865055799484,0.0,0.0,0.0,0.0,0.0,0.0,0.0,0.0,0.0
1606989743517592250,3037365,1606986142195285750,imu_link,0.012254258617758751,0.004404417704790831,0.9306333065032959,0.36572134494781494,0.0,0.0,0.0,0.0,0.0,0.0,0.0,0.0,0.0,137.0825653076172,-1.1223162412643433,0.9834944605827332,0.0,0.0,0.0,0.0,0.0,0.0,0.0,0.0,0.0,0.010525625199079514,0.00448996527120471,0.04090840741991997,0.0,0.0,0.0,0.0,0.0,0.0,0.0,0.0,0.0
1606989743517611412,3037366,1606986142195355471,imu_link,0.012254258617758751,0.004404417704790831,0.9306333065032959,0.36572134494781494,0.0,0.0,0.0,0.0,0.0,0.0,0.0,0.0,0.0,137.0825653076172,-1.1223162412643433,0.9834944605827332,0.0,0.0,0.0,0.0,0.0,0.0,0.0,0.0,0.0,0.010525625199079514,0.00448996527120471,0.04090840741991997,0.0,0.0,0.0,0.0,0.0,0.0,0.0,0.0,0.0
1606989743517669893,3037367,1606986142207249313,imu_link,0.012255189940333366,0.004404595121741295,0.9306341409683228,0.36571916937828064,0.0,0.0,0.0,0.0,0.0,0.0,0.0,0.0,0.0,137.0828399658203,-1.122410535812378,0.9835498332977295,0.0,0.0,0.0,0.0,0.0,0.0,0.0,0.0,0.0,0.007214289624243975,-0.0020362669602036476,0.04609380289912224,0.0,0.0,0.0,0.0,0.0,0.0,0.0,0.0,0.0
1606989743525427911,3037368,1606986142207374963,imu_link,0.012255189940333366,0.004404595121741295,0.9306341409683228,0.36571916937828064,0.0,0.0,0.0,0.0,0.0,0.0,0.0,0.0,0.0,137.0828399658203,-1.122410535812378,0.9835498332977295,0.0,0.0,0.0,0.0,0.0,0.0,0.0,0.0,0.0,0.007214289624243975,-0.0020362669602036476,0.04609380289912224,0.0,0.0,0.0,0.0,0.0,0.0,0.0,0.0,0.0
1606989743525471903,3037369,1606986142207501764,imu_link,0.012254763394594193,0.004406761843711138,0.930633544921875,0.3657206594944,0.0,0.0,0.0,0.0,0.0,0.0,0.0,0.0,0.0,137.08265686035156,-1.1222726106643677,0.9837648868560791,0.0,0.0,0.0,0.0,0.0,0.0,0.0,0.0,0.0,-0.020273296162486076,-0.006843002047389746,0.055448777973651886,0.0,0.0,0.0,0.0,0.0,0.0,0.0,0.0,0.0
1606989743525533438,3037370,1606986142207580572,imu_link,0.012254763394594193,0.004406761843711138,0.930633544921875,0.3657206594944,0.0,0.0,0.0,0.0,0.0,0.0,0.0,0.0,0.0,137.08265686035156,-1.1222726106643677,0.9837648868560791,0.0,0.0,0.0,0.0,0.0,0.0,0.0,0.0,0.0,-0.020273296162486076,-0.006843002047389746,0.055448777973651886,0.0,0.0,0.0,0.0,0.0,0.0,0.0,0.0,0.0
1606989743525620446,3037371,1606986142207648423,imu_link,0.012253261171281338,0.004407342057675123,0.9306343197822571,0.3657187223434448,0.0,0.0,0.0,0.0,0.0,0.0,0.0,0.0,0.0,137.08290100097656,-1.1220901012420654,0.9837616086006165,0.0,0.0,0.0,0.0,0.0,0.0,0.0,0.0,0.0,-0.010344063863158226,-0.014830637723207474,0.05114034190773964,0.0,0.0,0.0,0.0,0.0,0.0,0.0,0.0,0.0
1606989743541554513,3037372,1606986142207739384,imu_link,0.012253261171281338,0.004407342057675123,0.9306343197822571,0.3657187223434448,0.0,0.0,0.0,0.0,0.0,0.0,0.0,0.0,0.0,137.08290100097656,-1.1220901012420654,0.9837616086006165,0.0,0.0,0.0,0.0,0.0,0.0,0.0,0.0,0.0,-0.010344063863158226,-0.014830637723207474,0.05114034190773964,0.0,0.0,0.0,0.0,0.0,0.0,0.0,0.0,0.0
1606989743541675064,3037373,1606986142207812581,imu_link,0.012255525216460228,0.004409055225551128,0.9306325912475586,0.3657231628894806,0.0,0.0,0.0,0.0,0.0,0.0,0.0,0.0,0.0,137.0823516845703,-1.1222550868988037,0.9840444326400757,0.0,0.0,0.0,0.0,0.0,0.0,0.0,0.0,0.0,0.0043007805943489075,-0.0118863545358181,0.03977569192647934,0.0,0.0,0.0,0.0,0.0,0.0,0.0,0.0,0.0
1606989743541713356,3037374,1606986142207877459,imu_link,0.012255525216460228,0.004409055225551128,0.9306325912475586,0.3657231628894806,0.0,0.0,0.0,0.0,0.0,0.0,0.0,0.0,0.0,137.0823516845703,-1.1222550868988037,0.9840444326400757,0.0,0.0,0.0,0.0,0.0,0.0,0.0,0.0,0.0,0.0043007805943489075,-0.0118863545358181,0.03977569192647934,0.0,0.0,0.0,0.0,0.0,0.0,0.0,0.0,0.0
1606989743541738270,3037375,1606986142207948259,imu_link,0.012255261652171612,0.004409712739288807,0.9306325316429138,0.36572325229644775,0.0,0.0,0.0,0.0,0.0,0.0,0.0,0.0,0.0,137.08233642578125,-1.1221991777420044,0.9841037392616272,0.0,0.0,0.0,0.0,0.0,0.0,0.0,0.0,0.0,0.00027338421205058694,-0.0008746819221414626,0.051721129566431046,0.0,0.0,0.0,0.0,0.0,0.0,0.0,0.0,0.0
1606989743541766148,3037376,1606986142208016220,imu_link,0.012255261652171612,0.004409712739288807,0.9306325316429138,0.36572325229644775,0.0,0.0,0.0,0.0,0.0,0.0,0.0,0.0,0.0,137.08233642578125,-1.1221991777420044,0.9841037392616272,0.0,0.0,0.0,0.0,0.0,0.0,0.0,0.0,0.0,0.00027338421205058694,-0.0008746819221414626,0.051721129566431046,0.0,0.0,0.0,0.0,0.0,0.0,0.0,0.0,0.0
1606989743579511226,3037377,1606986142220713310,imu_link,0.012253931723535061,0.0044076815247535706,0.9306317567825317,0.36572524905204773,0.0,0.0,0.0,0.0,0.0,0.0,0.0,0.0,0.0,137.08209228515625,-1.1221405267715454,0.9838337302207947,0.0,0.0,0.0,0.0,0.0,0.0,0.0,0.0,0.0,0.003102916991338134,0.007148297969251871,0.03634026646614075,0.0,0.0,0.0,0.0,0.0,0.0,0.0,0.0,0.0
1606989743579568492,3037378,1606986142220840225,imu_link,0.012253931723535061,0.0044076815247535706,0.9306317567825317,0.36572524905204773,0.0,0.0,0.0,0.0,0.0,0.0,0.0,0.0,0.0,137.08209228515625,-1.1221405267715454,0.9838337302207947,0.0,0.0,0.0,0.0,0.0,0.0,0.0,0.0,0.0,0.003102916991338134,0.007148297969251871,0.03634026646614075,0.0,0.0,0.0,0.0,0.0,0.0,0.0,0.0,0.0
1606989743579579535,3037379,1606986142221000627,imu_link,0.01225545909255743,0.0044098966754972935,0.9306315779685974,0.36572563648223877,0.0,0.0,0.0,0.0,0.0,0.0,0.0,0.0,0.0,137.08204650878906,-1.1222100257873535,0.9841344952583313,0.0,0.0,0.0,0.0,0.0,0.0,0.0,0.0,0.0,0.01432834193110466,0.0037598616909235716,0.013349338434636593,0.0,0.0,0.0,0.0,0.0,0.0,0.0,0.0,0.0
1606989743579596400,3037380,1606986142221201154,imu_link,0.01225545909255743,0.0044098966754972935,0.9306315779685974,0.36572563648223877,0.0,0.0,0.0,0.0,0.0,0.0,0.0,0.0,0.0,137.08204650878906,-1.1222100257873535,0.9841344952583313,0.0,0.0,0.0,0.0,0.0,0.0,0.0,0.0,0.0,0.01432834193110466,0.0037598616909235716,0.013349338434636593,0.0,0.0,0.0,0.0,0.0,0.0,0.0,0.0,0.0
1606989743585752828,3037381,1606986142221385193,imu_link,0.012253455817699432,0.004409172106534243,0.9306288361549377,0.3657328188419342,0.0,0.0,0.0,0.0,0.0,0.0,0.0,0.0,0.0,137.08116149902344,-1.1220192909240723,0.9839816689491272,0.0,0.0,0.0,0.0,0.0,0.0,0.0,0.0,0.0,-0.004365502391010523,0.004424143582582474,0.05054566264152527,0.0,0.0,0.0,0.0,0.0,0.0,0.0,0.0,0.0
1606989743585770153,3037382,1606986142221458143,imu_link,0.012253455817699432,0.004409172106534243,0.9306288361549377,0.3657328188419342,0.0,0.0,0.0,0.0,0.0,0.0,0.0,0.0,0.0,137.08116149902344,-1.1220192909240723,0.9839816689491272,0.0,0.0,0.0,0.0,0.0,0.0,0.0,0.0,0.0,-0.004365502391010523,0.004424143582582474,0.05054566264152527,0.0,0.0,0.0,0.0,0.0,0.0,0.0,0.0,0.0
1606989743585779395,3037383,1606986142221550308,imu_link,0.012253335677087307,0.004406397230923176,0.9306288361549377,0.36573290824890137,0.0,0.0,0.0,0.0,0.0,0.0,0.0,0.0,0.0,137.08114624023438,-1.1221227645874023,0.983680784702301,0.0,0.0,0.0,0.0,0.0,0.0,0.0,0.0,0.0,-0.003604728961363435,-0.009375512599945068,0.0662434846162796,0.0,0.0,0.0,0.0,0.0,0.0,0.0,0.0,0.0
1606989743585791437,3037384,1606986142221624965,imu_link,0.012253335677087307,0.004406397230923176,0.9306288361549377,0.36573290824890137,0.0,0.0,0.0,0.0,0.0,0.0,0.0,0.0,0.0,137.08114624023438,-1.1221227645874023,0.983680784702301,0.0,0.0,0.0,0.0,0.0,0.0,0.0,0.0,0.0,-0.003604728961363435,-0.009375512599945068,0.0662434846162796,0.0,0.0,0.0,0.0,0.0,0.0,0.0,0.0,0.0
1606989743585804340,3037385,1606986142221695609,imu_link,0.012253981083631516,0.0044084032997488976,0.9306256771087646,0.3657408356666565,0.0,0.0,0.0,0.0,0.0,0.0,0.0,0.0,0.0,137.08016967773438,-1.1220990419387817,0.9839314818382263,0.0,0.0,0.0,0.0,0.0,0.0,0.0,0.0,0.0,0.009725792333483696,-0.018382517620921135,0.06176585704088211,0.0,0.0,0.0,0.0,0.0,0.0,0.0,0.0,0.0
1606989743593816199,3037386,1606986142221769744,imu_link,0.012253981083631516,0.0044084032997488976,0.9306256771087646,0.3657408356666565,0.0,0.0,0.0,0.0,0.0,0.0,0.0,0.0,0.0,137.08016967773438,-1.1220990419387817,0.9839314818382263,0.0,0.0,0.0,0.0,0.0,0.0,0.0,0.0,0.0,0.009725792333483696,-0.018382517620921135,0.06176585704088211,0.0,0.0,0.0,0.0,0.0,0.0,0.0,0.0,0.0
1606989743593868443,3037387,1606986142221845049,imu_link,0.012256220914423466,0.004408537410199642,0.9306256175041199,0.3657407760620117,0.0,0.0,0.0,0.0,0.0,0.0,0.0,0.0,0.0,137.08018493652344,-1.1223323345184326,0.984039843082428,0.0,0.0,0.0,0.0,0.0,0.0,0.0,0.0,0.0,0.02437145635485649,-0.00579489953815937,0.05820511654019356,0.0,0.0,0.0,0.0,0.0,0.0,0.0,0.0,0.0
1606989743593877349,3037388,1606986142234550659,imu_link,0.012256220914423466,0.004408537410199642,0.9306256175041199,0.3657407760620117,0.0,0.0,0.0,0.0,0.0,0.0,0.0,0.0,0.0,137.08018493652344,-1.1223323345184326,0.984039843082428,0.0,0.0,0.0,0.0,0.0,0.0,0.0,0.0,0.0,0.02437145635485649,-0.00579489953815937,0.05820511654019356,0.0,0.0,0.0,0.0,0.0,0.0,0.0,0.0,0.0
1606989743593889012,3037389,1606986142234676122,imu_link,0.012254031375050545,0.004409580025821924,0.930627703666687,0.36573562026023865,0.0,0.0,0.0,0.0,0.0,0.0,0.0,0.0,0.0,137.08082580566406,-1.1220605373382568,0.984052836894989,0.0,0.0,0.0,0.0,0.0,0.0,0.0,0.0,0.0,0.04342071712017059,-0.00019760767463594675,0.033819202333688736,0.0,0.0,0.0,0.0,0.0,0.0,0.0,0.0,0.0
1606989743601188535,3037390,1606986142234851203,imu_link,0.012254031375050545,0.004409580025821924,0.930627703666687,0.36573562026023865,0.0,0.0,0.0,0.0,0.0,0.0,0.0,0.0,0.0,137.08082580566406,-1.1220605373382568,0.984052836894989,0.0,0.0,0.0,0.0,0.0,0.0,0.0,0.0,0.0,0.04342071712017059,-0.00019760767463594675,0.033819202333688736,0.0,0.0,0.0,0.0,0.0,0.0,0.0,0.0,0.0
1606989743601208257,3037391,1606986142234930302,imu_link,0.012254112400114536,0.004410046152770519,0.9306269288063049,0.36573755741119385,0.0,0.0,0.0,0.0,0.0,0.0,0.0,0.0,0.0,137.08058166503906,-1.1220476627349854,0.9841082096099854,0.0,0.0,0.0,0.0,0.0,0.0,0.0,0.0,0.0,0.027228819206357002,-0.0011077108792960644,0.041316546499729156,0.0,0.0,0.0,0.0,0.0,0.0,0.0,0.0,0.0
1606989743601230092,3037392,1606986142235041309,imu_link,0.012254112400114536,0.004410046152770519,0.9306269288063049,0.36573755741119385,0.0,0.0,0.0,0.0,0.0,0.0,0.0,0.0,0.0,137.08058166503906,-1.1220476627349854,0.9841082096099854,0.0,0.0,0.0,0.0,0.0,0.0,0.0,0.0,0.0,0.027228819206357002,-0.0011077108792960644,0.041316546499729156,0.0,0.0,0.0,0.0,0.0,0.0,0.0,0.0,0.0
1606989743601237298,3037393,1606986142235119397,imu_link,0.01224991213530302,0.004412801470607519,0.9306286573410034,0.3657332956790924,0.0,0.0,0.0,0.0,0.0,0.0,0.0,0.0,0.0,137.08111572265625,-1.1214886903762817,0.9842208027839661,0.0,0.0,0.0,0.0,0.0,0.0,0.0,0.0,0.0,0.004392352420836687,-0.007231319323182106,0.054019246250391006,0.0,0.0,0.0,0.0,0.0,0.0,0.0,0.0,0.0
1606989743601243223,3037394,1606986142235243480,imu_link,0.01224991213530302,0.004412801470607519,0.9306286573410034,0.3657332956790924,0.0,0.0,0.0,0.0,0.0,0.0,0.0,0.0,0.0,137.08111572265625,-1.1214886903762817,0.9842208027839661,0.0,0.0,0.0,0.0,0.0,0.0,0.0,0.0,0.0,0.004392352420836687,-0.007231319323182106,0.054019246250391006,0.0,0.0,0.0,0.0,0.0,0.0,0.0,0.0,0.0
1606989743650807051,3037395,1606986142235319732,imu_link,0.012251264415681362,0.004412411246448755,0.9306281208992004,0.3657345473766327,0.0,0.0,0.0,0.0,0.0,0.0,0.0,0.0,0.0,137.08094787597656,-1.121647834777832,0.984237551689148,0.0,0.0,0.0,0.0,0.0,0.0,0.0,0.0,0.0,-0.009739547967910767,-0.012886674143373966,0.03733278065919876,0.0,0.0,0.0,0.0,0.0,0.0,0.0,0.0,0.0
1606989743650825126,3037396,1606986142235390348,imu_link,0.012251264415681362,0.004412411246448755,0.9306281208992004,0.3657345473766327,0.0,0.0,0.0,0.0,0.0,0.0,0.0,0.0,0.0,137.08094787597656,-1.121647834777832,0.984237551689148,0.0,0.0,0.0,0.0,0.0,0.0,0.0,0.0,0.0,-0.009739547967910767,-0.012886674143373966,0.03733278065919876,0.0,0.0,0.0,0.0,0.0,0.0,0.0,0.0,0.0
1606989743650831276,3037397,1606986142235500724,imu_link,0.012253533117473125,0.004413235001266003,0.9306285381317139,0.36573338508605957,0.0,0.0,0.0,0.0,0.0,0.0,0.0,0.0,0.0,137.08108520507812,-1.1218565702438354,0.9844189882278442,0.0,0.0,0.0,0.0,0.0,0.0,0.0,0.0,0.0,-0.0053289420902729034,0.0005565474275499582,0.04340440779924393,0.0,0.0,0.0,0.0,0.0,0.0,0.0,0.0,0.0
1606989743650846844,3037398,1606986142235574410,imu_link,0.012253533117473125,0.004413235001266003,0.9306285381317139,0.36573338508605957,0.0,0.0,0.0,0.0,0.0,0.0,0.0,0.0,0.0,137.08108520507812,-1.1218565702438354,0.9844189882278442,0.0,0.0,0.0,0.0,0.0,0.0,0.0,0.0,0.0,-0.0053289420902729034,0.0005565474275499582,0.04340440779924393,0.0,0.0,0.0,0.0,0.0,0.0,0.0,0.0,0.0
1606989743690602627,3037399,1606986142248081403,imu_link,0.01225144974887371,0.004412830341607332,0.93062824010849,0.36573418974876404,0.0,0.0,0.0,0.0,0.0,0.0,0.0,0.0,0.0,137.08099365234375,-1.1216504573822021,0.9842895269393921,0.0,0.0,0.0,0.0,0.0,0.0,0.0,0.0,0.0,0.004305514506995678,0.024538947269320488,0.044621050357818604,0.0,0.0,0.0,0.0,0.0,0.0,0.0,0.0,0.0
1606989743690629308,3037400,1606986142248229806,imu_link,0.01225144974887371,0.004412830341607332,0.93062824010849,0.36573418974876404,0.0,0.0,0.0,0.0,0.0,0.0,0.0,0.0,0.0,137.08099365234375,-1.1216504573822021,0.9842895269393921,0.0,0.0,0.0,0.0,0.0,0.0,0.0,0.0,0.0,0.004305514506995678,0.024538947269320488,0.044621050357818604,0.0,0.0,0.0,0.0,0.0,0.0,0.0,0.0,0.0
1606989743690645859,3037401,1606986142248378981,imu_link,0.012248145416378975,0.004407964646816254,0.9306287169456482,0.36573317646980286,0.0,0.0,0.0,0.0,0.0,0.0,0.0,0.0,0.0,137.0811309814453,-1.1215031147003174,0.9836306571960449,0.0,0.0,0.0,0.0,0.0,0.0,0.0,0.0,0.0,0.001869815867394209,0.019811201840639114,0.04497629031538963,0.0,0.0,0.0,0.0,0.0,0.0,0.0,0.0,0.0
1606989743690663179,3037402,1606986142248477890,imu_link,0.012248145416378975,0.004407964646816254,0.9306287169456482,0.36573317646980286,0.0,0.0,0.0,0.0,0.0,0.0,0.0,0.0,0.0,137.0811309814453,-1.1215031147003174,0.9836306571960449,0.0,0.0,0.0,0.0,0.0,0.0,0.0,0.0,0.0,0.001869815867394209,0.019811201840639114,0.04497629031538963,0.0,0.0,0.0,0.0,0.0,0.0,0.0,0.0,0.0
1606989743690671384,3037403,1606986142248552884,imu_link,0.012247562408447266,0.004407018423080444,0.9306280612945557,0.36573487520217896,0.0,0.0,0.0,0.0,0.0,0.0,0.0,0.0,0.0,137.08091735839844,-1.1214789152145386,0.9835072755813599,0.0,0.0,0.0,0.0,0.0,0.0,0.0,0.0,0.0,-0.00641031377017498,0.00986236147582531,0.050349216908216476,0.0,0.0,0.0,0.0,0.0,0.0,0.0,0.0,0.0
1606989743711141160,3037404,1606986142248655005,imu_link,0.012247562408447266,0.004407018423080444,0.9306280612945557,0.36573487520217896,0.0,0.0,0.0,0.0,0.0,0.0,0.0,0.0,0.0,137.08091735839844,-1.1214789152145386,0.9835072755813599,0.0,0.0,0.0,0.0,0.0,0.0,0.0,0.0,0.0,-0.00641031377017498,0.00986236147582531,0.050349216908216476,0.0,0.0,0.0,0.0,0.0,0.0,0.0,0.0,0.0
1606989743711179485,3037405,1606986142248740162,imu_link,0.012247845530509949,0.004404393490403891,0.930628776550293,0.3657331168651581,0.0,0.0,0.0,0.0,0.0,0.0,0.0,0.0,0.0,137.0811309814453,-1.1216208934783936,0.9832372665405273,0.0,0.0,0.0,0.0,0.0,0.0,0.0,0.0,0.0,-0.0011993901571258903,0.00841637421399355,0.05451638996601105,0.0,0.0,0.0,0.0,0.0,0.0,0.0,0.0,0.0
1606989743711199976,3037406,1606986142248817476,imu_link,0.012247845530509949,0.004404393490403891,0.930628776550293,0.3657331168651581,0.0,0.0,0.0,0.0,0.0,0.0,0.0,0.0,0.0,137.0811309814453,-1.1216208934783936,0.9832372665405273,0.0,0.0,0.0,0.0,0.0,0.0,0.0,0.0,0.0,-0.0011993901571258903,0.00841637421399355,0.05451638996601105,0.0,0.0,0.0,0.0,0.0,0.0,0.0,0.0,0.0
1606989743711273316,3037407,1606986142248898428,imu_link,0.012245966121554375,0.0044054812751710415,0.9306286573410034,0.36573347449302673,0.0,0.0,0.0,0.0,0.0,0.0,0.0,0.0,0.0,137.0811004638672,-1.1213746070861816,0.9832746386528015,0.0,0.0,0.0,0.0,0.0,0.0,0.0,0.0,0.0,0.006838346365839243,-0.00647095637395978,0.08661352097988129,0.0,0.0,0.0,0.0,0.0,0.0,0.0,0.0,0.0
1606989743737463000,3037408,1606986142248985224,imu_link,0.012245966121554375,0.0044054812751710415,0.9306286573410034,0.36573347449302673,0.0,0.0,0.0,0.0,0.0,0.0,0.0,0.0,0.0,137.0811004638672,-1.1213746070861816,0.9832746386528015,0.0,0.0,0.0,0.0,0.0,0.0,0.0,0.0,0.0,0.006838346365839243,-0.00647095637395978,0.08661352097988129,0.0,0.0,0.0,0.0,0.0,0.0,0.0,0.0,0.0
1606989743737507926,3037409,1606986142249065390,imu_link,0.012247411534190178,0.004407862201333046,0.9306297302246094,0.3657307028770447,0.0,0.0,0.0,0.0,0.0,0.0,0.0,0.0,0.0,137.08143615722656,-1.121431827545166,0.9835860133171082,0.0,0.0,0.0,0.0,0.0,0.0,0.0,0.0,0.0,0.0036042281426489353,-0.021206561475992203,0.08375973254442215,0.0,0.0,0.0,0.0,0.0,0.0,0.0,0.0,0.0
1606989743737523763,3037410,1606986142260959817,imu_link,0.012247411534190178,0.004407862201333046,0.9306297302246094,0.3657307028770447,0.0,0.0,0.0,0.0,0.0,0.0,0.0,0.0,0.0,137.08143615722656,-1.121431827545166,0.9835860133171082,0.0,0.0,0.0,0.0,0.0,0.0,0.0,0.0,0.0,0.0036042281426489353,-0.021206561475992203,0.08375973254442215,0.0,0.0,0.0,0.0,0.0,0.0,0.0,0.0,0.0
1606989743737565175,3037411,1606986142261100608,imu_link,0.012249981984496117,0.004406847525388002,0.9306302070617676,0.36572936177253723,0.0,0.0,0.0,0.0,0.0,0.0,0.0,0.0,0.0,137.08160400390625,-1.1217498779296875,0.9835839867591858,0.0,0.0,0.0,0.0,0.0,0.0,0.0,0.0,0.0,0.008585521951317787,-0.019738152623176575,0.060547348111867905,0.0,0.0,0.0,0.0,0.0,0.0,0.0,0.0,0.0
1606989743779962606,3037412,1606986142261301142,imu_link,0.012249981984496117,0.004406847525388002,0.9306302070617676,0.36572936177253723,0.0,0.0,0.0,0.0,0.0,0.0,0.0,0.0,0.0,137.08160400390625,-1.1217498779296875,0.9835839867591858,0.0,0.0,0.0,0.0,0.0,0.0,0.0,0.0,0.0,0.008585521951317787,-0.019738152623176575,0.060547348111867905,0.0,0.0,0.0,0.0,0.0,0.0,0.0,0.0,0.0
1606989743779989845,3037413,1606986142261394588,imu_link,0.012247583828866482,0.004410472232848406,0.9306286573410034,0.3657332956790924,0.0,0.0,0.0,0.0,0.0,0.0,0.0,0.0,0.0,137.08111572265625,-1.1213380098342896,0.9838747382164001,0.0,0.0,0.0,0.0,0.0,0.0,0.0,0.0,0.0,0.00967653002589941,-0.0008225375786423683,0.051570478826761246,0.0,0.0,0.0,0.0,0.0,0.0,0.0,0.0,0.0
1606989743779997792,3037414,1606986142261478092,imu_link,0.012247583828866482,0.004410472232848406,0.9306286573410034,0.3657332956790924,0.0,0.0,0.0,0.0,0.0,0.0,0.0,0.0,0.0,137.08111572265625,-1.1213380098342896,0.9838747382164001,0.0,0.0,0.0,0.0,0.0,0.0,0.0,0.0,0.0,0.00967653002589941,-0.0008225375786423683,0.051570478826761246,0.0,0.0,0.0,0.0,0.0,0.0,0.0,0.0,0.0
1606989743780014858,3037415,1606986142261582969,imu_link,0.012248706072568893,0.0044119213707745075,0.9306278824806213,0.36573532223701477,0.0,0.0,0.0,0.0,0.0,0.0,0.0,0.0,0.0,137.08087158203125,-1.1213948726654053,0.9840786457061768,0.0,0.0,0.0,0.0,0.0,0.0,0.0,0.0,0.0,0.0021871377248317003,0.01574883796274662,0.04351332038640976,0.0,0.0,0.0,0.0,0.0,0.0,0.0,0.0,0.0
1606989743780036650,3037416,1606986142261666307,imu_link,0.012248706072568893,0.0044119213707745075,0.9306278824806213,0.36573532223701477,0.0,0.0,0.0,0.0,0.0,0.0,0.0,0.0,0.0,137.08087158203125,-1.1213948726654053,0.9840786457061768,0.0,0.0,0.0,0.0,0.0,0.0,0.0,0.0,0.0,0.0021871377248317003,0.01574883796274662,0.04351332038640976,0.0,0.0,0.0,0.0,0.0,0.0,0.0,0.0,0.0
1606989743786683686,3037417,1606986142261749349,imu_link,0.012247617356479168,0.004406908061355352,0.930625855922699,0.3657405376434326,0.0,0.0,0.0,0.0,0.0,0.0,0.0,0.0,0.0,137.08021545410156,-1.121483325958252,0.983504593372345,0.0,0.0,0.0,0.0,0.0,0.0,0.0,0.0,0.0,-0.009122916497290134,0.014132720418274403,0.05501505360007286,0.0,0.0,0.0,0.0,0.0,0.0,0.0,0.0,0.0
1606989743786703897,3037418,1606986142261853641,imu_link,0.012247617356479168,0.004406908061355352,0.930625855922699,0.3657405376434326,0.0,0.0,0.0,0.0,0.0,0.0,0.0,0.0,0.0,137.08021545410156,-1.121483325958252,0.983504593372345,0.0,0.0,0.0,0.0,0.0,0.0,0.0,0.0,0.0,-0.009122916497290134,0.014132720418274403,0.05501505360007286,0.0,0.0,0.0,0.0,0.0,0.0,0.0,0.0,0.0
1606989743786710388,3037419,1606986142261973844,imu_link,0.012249927036464214,0.004405157640576363,0.9306246042251587,0.36574357748031616,0.0,0.0,0.0,0.0,0.0,0.0,0.0,0.0,0.0,137.079833984375,-1.1217998266220093,0.9834184646606445,0.0,0.0,0.0,0.0,0.0,0.0,0.0,0.0,0.0,-0.02812720648944378,0.005049354396760464,0.068724624812603,0.0,0.0,0.0,0.0,0.0,0.0,0.0,0.0,0.0
1606989743786725532,3037420,1606986142274764666,imu_link,0.012249927036464214,0.004405157640576363,0.9306246042251587,0.36574357748031616,0.0,0.0,0.0,0.0,0.0,0.0,0.0,0.0,0.0,137.079833984375,-1.1217998266220093,0.9834184646606445,0.0,0.0,0.0,0.0,0.0,0.0,0.0,0.0,0.0,-0.02812720648944378,0.005049354396760464,0.068724624812603,0.0,0.0,0.0,0.0,0.0,0.0,0.0,0.0,0.0
1606989743797336111,3037421,1606986142274909571,imu_link,0.012254176661372185,0.004404881037771702,0.9306211471557617,0.36575236916542053,0.0,0.0,0.0,0.0,0.0,0.0,0.0,0.0,0.0,137.07876586914062,-1.1222553253173828,0.9835779070854187,0.0,0.0,0.0,0.0,0.0,0.0,0.0,0.0,0.0,-0.012051701545715332,6.707257125526667e-05,0.05157627910375595,0.0,0.0,0.0,0.0,0.0,0.0,0.0,0.0,0.0
1606989743797373330,3037422,1606986142275085979,imu_link,0.012254176661372185,0.004404881037771702,0.9306211471557617,0.36575236916542053,0.0,0.0,0.0,0.0,0.0,0.0,0.0,0.0,0.0,137.07876586914062,-1.1222553253173828,0.9835779070854187,0.0,0.0,0.0,0.0,0.0,0.0,0.0,0.0,0.0,-0.012051701545715332,6.707257125526667e-05,0.05157627910375595,0.0,0.0,0.0,0.0,0.0,0.0,0.0,0.0,0.0
1606989743797392365,3037423,1606986142275192195,imu_link,0.012253900989890099,0.00440596230328083,0.9306210279464722,0.3657526671886444,0.0,0.0,0.0,0.0,0.0,0.0,0.0,0.0,0.0,137.07872009277344,-1.1221802234649658,0.9836820960044861,0.0,0.0,0.0,0.0,0.0,0.0,0.0,0.0,0.0,0.016904732212424278,-0.0013439272297546268,0.04317225515842438,0.0,0.0,0.0,0.0,0.0,0.0,0.0,0.0,0.0
1606989743797477609,3037424,1606986142275275217,imu_link,0.012253900989890099,0.00440596230328083,0.9306210279464722,0.3657526671886444,0.0,0.0,0.0,0.0,0.0,0.0,0.0,0.0,0.0,137.07872009277344,-1.1221802234649658,0.9836820960044861,0.0,0.0,0.0,0.0,0.0,0.0,0.0,0.0,0.0,0.016904732212424278,-0.0013439272297546268,0.04317225515842438,0.0,0.0,0.0,0.0,0.0,0.0,0.0,0.0,0.0
1606989743797490817,3037425,1606986142275351574,imu_link,0.012252011336386204,0.0044069853611290455,0.930618941783905,0.3657580316066742,0.0,0.0,0.0,0.0,0.0,0.0,0.0,0.0,0.0,137.07806396484375,-1.1219303607940674,0.9837182760238647,0.0,0.0,0.0,0.0,0.0,0.0,0.0,0.0,0.0,0.01757790707051754,0.008413132280111313,0.050586383789777756,0.0,0.0,0.0,0.0,0.0,0.0,0.0,0.0,0.0
1606989743804844481,3037426,1606986142275453765,imu_link,0.012252011336386204,0.0044069853611290455,0.930618941783905,0.3657580316066742,0.0,0.0,0.0,0.0,0.0,0.0,0.0,0.0,0.0,137.07806396484375,-1.1219303607940674,0.9837182760238647,0.0,0.0,0.0,0.0,0.0,0.0,0.0,0.0,0.0,0.01757790707051754,0.008413132280111313,0.050586383789777756,0.0,0.0,0.0,0.0,0.0,0.0,0.0,0.0,0.0
1606989743804871942,3037427,1606986142275537239,imu_link,0.012252597138285637,0.004409484099596739,0.9306184649467468,0.3657591640949249,0.0,0.0,0.0,0.0,0.0,0.0,0.0,0.0,0.0,137.0779266357422,-1.1218868494033813,0.9840107560157776,0.0,0.0,0.0,0.0,0.0,0.0,0.0,0.0,0.0,0.021086489781737328,0.005090393591672182,0.0628221333026886,0.0,0.0,0.0,0.0,0.0,0.0,0.0,0.0,0.0
1606989743804888628,3037428,1606986142275620095,imu_link,0.012252597138285637,0.004409484099596739,0.9306184649467468,0.3657591640949249,0.0,0.0,0.0,0.0,0.0,0.0,0.0,0.0,0.0,137.0779266357422,-1.1218868494033813,0.9840107560157776,0.0,0.0,0.0,0.0,0.0,0.0,0.0,0.0,0.0,0.021086489781737328,0.005090393591672182,0.0628221333026886,0.0,0.0,0.0,0.0,0.0,0.0,0.0,0.0,0.0
1606989743804903282,3037429,1606986142275700171,imu_link,0.012249255552887917,0.0044091930612921715,0.9306203126907349,0.36575451493263245,0.0,0.0,0.0,0.0,0.0,0.0,0.0,0.0,0.0,137.07850646972656,-1.1215475797653198,0.9838339686393738,0.0,0.0,0.0,0.0,0.0,0.0,0.0,0.0,0.0,0.01667693257331848,-0.003906572237610817,0.05627540871500969,0.0,0.0,0.0,0.0,0.0,0.0,0.0,0.0,0.0
1606989743873870140,3037430,1606986142275780973,imu_link,0.012249255552887917,0.0044091930612921715,0.9306203126907349,0.36575451493263245,0.0,0.0,0.0,0.0,0.0,0.0,0.0,0.0,0.0,137.07850646972656,-1.1215475797653198,0.9838339686393738,0.0,0.0,0.0,0.0,0.0,0.0,0.0,0.0,0.0,0.01667693257331848,-0.003906572237610817,0.05627540871500969,0.0,0.0,0.0,0.0,0.0,0.0,0.0,0.0,0.0
1606989743873895545,3037431,1606986142288227022,imu_link,0.012245522812008858,0.004408945329487324,0.9306207895278931,0.36575356125831604,0.0,0.0,0.0,0.0,0.0,0.0,0.0,0.0,0.0,137.07862854003906,-1.1211607456207275,0.9836496114730835,0.0,0.0,0.0,0.0,0.0,0.0,0.0,0.0,0.0,0.005915547721087933,-0.003779700491577387,0.04127628356218338,0.0,0.0,0.0,0.0,0.0,0.0,0.0,0.0,0.0
1606989743873909665,3037432,1606986142288368544,imu_link,0.012245522812008858,0.004408945329487324,0.9306207895278931,0.36575356125831604,0.0,0.0,0.0,0.0,0.0,0.0,0.0,0.0,0.0,137.07862854003906,-1.1211607456207275,0.9836496114730835,0.0,0.0,0.0,0.0,0.0,0.0,0.0,0.0,0.0,0.005915547721087933,-0.003779700491577387,0.04127628356218338,0.0,0.0,0.0,0.0,0.0,0.0,0.0,0.0,0.0
1606989743873934548,3037433,1606986142288524375,imu_link,0.01224635262042284,0.004410498775541782,0.9306225180625916,0.3657490313053131,0.0,0.0,0.0,0.0,0.0,0.0,0.0,0.0,0.0,137.0791778564453,-1.1211888790130615,0.9838448166847229,0.0,0.0,0.0,0.0,0.0,0.0,0.0,0.0,0.0,0.003876296104863286,0.0055243573151528835,0.03663162514567375,0.0,0.0,0.0,0.0,0.0,0.0,0.0,0.0,0.0
1606989743873944082,3037434,1606986142288623043,imu_link,0.01224635262042284,0.004410498775541782,0.9306225180625916,0.3657490313053131,0.0,0.0,0.0,0.0,0.0,0.0,0.0,0.0,0.0,137.0791778564453,-1.1211888790130615,0.9838448166847229,0.0,0.0,0.0,0.0,0.0,0.0,0.0,0.0,0.0,0.003876296104863286,0.0055243573151528835,0.03663162514567375,0.0,0.0,0.0,0.0,0.0,0.0,0.0,0.0,0.0
1606989743888888543,3037435,1606986142288714314,imu_link,0.01224741991609335,0.004409747198224068,0.9306222200393677,0.36574968695640564,0.0,0.0,0.0,0.0,0.0,0.0,0.0,0.0,0.0,137.07908630371094,-1.1213335990905762,0.9838103652000427,0.0,0.0,0.0,0.0,0.0,0.0,0.0,0.0,0.0,0.008493026718497276,0.017423033714294434,0.030720723792910576,0.0,0.0,0.0,0.0,0.0,0.0,0.0,0.0,0.0
1606989743888915809,3037436,1606986142288797888,imu_link,0.01224741991609335,0.004409747198224068,0.9306222200393677,0.36574968695640564,0.0,0.0,0.0,0.0,0.0,0.0,0.0,0.0,0.0,137.07908630371094,-1.1213335990905762,0.9838103652000427,0.0,0.0,0.0,0.0,0.0,0.0,0.0,0.0,0.0,0.008493026718497276,0.017423033714294434,0.030720723792910576,0.0,0.0,0.0,0.0,0.0,0.0,0.0,0.0,0.0
1606989743888927680,3037437,1606986142288900961,imu_link,0.012247438542544842,0.004405580926686525,0.9306203126907349,0.3657546639442444,0.0,0.0,0.0,0.0,0.0,0.0,0.0,0.0,0.0,137.0784912109375,-1.1215049028396606,0.983372688293457,0.0,0.0,0.0,0.0,0.0,0.0,0.0,0.0,0.0,0.010315636172890663,0.020674970000982285,0.06423484534025192,0.0,0.0,0.0,0.0,0.0,0.0,0.0,0.0,0.0
1606989743888943505,3037438,1606986142288984545,imu_link,0.012247438542544842,0.004405580926686525,0.9306203126907349,0.3657546639442444,0.0,0.0,0.0,0.0,0.0,0.0,0.0,0.0,0.0,137.0784912109375,-1.1215049028396606,0.983372688293457,0.0,0.0,0.0,0.0,0.0,0.0,0.0,0.0,0.0,0.010315636172890663,0.020674970000982285,0.06423484534025192,0.0,0.0,0.0,0.0,0.0,0.0,0.0,0.0,0.0
1606989743926715295,3037439,1606986142289067607,imu_link,0.012247699312865734,0.00440549710765481,0.9306195974349976,0.36575642228126526,0.0,0.0,0.0,0.0,0.0,0.0,0.0,0.0,0.0,137.07826232910156,-1.1215344667434692,0.9833767414093018,0.0,0.0,0.0,0.0,0.0,0.0,0.0,0.0,0.0,0.00032094866037368774,0.030270829796791077,0.08273712545633316,0.0,0.0,0.0,0.0,0.0,0.0,0.0,0.0,0.0
1606989743926748067,3037440,1606986142289150263,imu_link,0.012247699312865734,0.00440549710765481,0.9306195974349976,0.36575642228126526,0.0,0.0,0.0,0.0,0.0,0.0,0.0,0.0,0.0,137.07826232910156,-1.1215344667434692,0.9833767414093018,0.0,0.0,0.0,0.0,0.0,0.0,0.0,0.0,0.0,0.00032094866037368774,0.030270829796791077,0.08273712545633316,0.0,0.0,0.0,0.0,0.0,0.0,0.0,0.0,0.0
1606989743926776462,3037441,1606986142289232975,imu_link,0.012244850397109985,0.004400116857141256,0.9306191205978394,0.3657577931880951,0.0,0.0,0.0,0.0,0.0,0.0,0.0,0.0,0.0,137.07810974121094,-1.1214548349380493,0.9826849699020386,0.0,0.0,0.0,0.0,0.0,0.0,0.0,0.0,0.0,0.002694841707125306,0.0243320744484663,0.06462015956640244,0.0,0.0,0.0,0.0,0.0,0.0,0.0,0.0,0.0
1606989743926784620,3037442,1606986142302047531,imu_link,0.012244850397109985,0.004400116857141256,0.9306191205978394,0.3657577931880951,0.0,0.0,0.0,0.0,0.0,0.0,0.0,0.0,0.0,137.07810974121094,-1.1214548349380493,0.9826849699020386,0.0,0.0,0.0,0.0,0.0,0.0,0.0,0.0,0.0,0.002694841707125306,0.0243320744484663,0.06462015956640244,0.0,0.0,0.0,0.0,0.0,0.0,0.0,0.0,0.0
1606989743926816537,3037443,1606986142302195183,imu_link,0.012243631295859814,0.004399643279612064,0.930618941783905,0.36575838923454285,0.0,0.0,0.0,0.0,0.0,0.0,0.0,0.0,0.0,137.07803344726562,-1.1213440895080566,0.9825839996337891,0.0,0.0,0.0,0.0,0.0,0.0,0.0,0.0,0.0,0.00019796844571828842,0.012358139269053936,0.04568098485469818,0.0,0.0,0.0,0.0,0.0,0.0,0.0,0.0,0.0
1606989743932367649,3037444,1606986142302338009,imu_link,0.012243631295859814,0.004399643279612064,0.930618941783905,0.36575838923454285,0.0,0.0,0.0,0.0,0.0,0.0,0.0,0.0,0.0,137.07803344726562,-1.1213440895080566,0.9825839996337891,0.0,0.0,0.0,0.0,0.0,0.0,0.0,0.0,0.0,0.00019796844571828842,0.012358139269053936,0.04568098485469818,0.0,0.0,0.0,0.0,0.0,0.0,0.0,0.0,0.0
1606989743932401410,3037445,1606986142302433845,imu_link,0.012241711840033531,0.004398085176944733,0.9306208491325378,0.36575350165367126,0.0,0.0,0.0,0.0,0.0,0.0,0.0,0.0,0.0,137.07864379882812,-1.1212098598480225,0.9823315143585205,0.0,0.0,0.0,0.0,0.0,0.0,0.0,0.0,0.0,-0.009084749966859818,0.011138147674500942,0.03806468844413757,0.0,0.0,0.0,0.0,0.0,0.0,0.0,0.0,0.0
1606989743932434830,3037446,1606986142302520381,imu_link,0.012241711840033531,0.004398085176944733,0.9306208491325378,0.36575350165367126,0.0,0.0,0.0,0.0,0.0,0.0,0.0,0.0,0.0,137.07864379882812,-1.1212098598480225,0.9823315143585205,0.0,0.0,0.0,0.0,0.0,0.0,0.0,0.0,0.0,-0.009084749966859818,0.011138147674500942,0.03806468844413757,0.0,0.0,0.0,0.0,0.0,0.0,0.0,0.0,0.0
1606989743932450509,3037447,1606986142302604515,imu_link,0.012241226620972157,0.00439862534403801,0.9306217432022095,0.3657512664794922,0.0,0.0,0.0,0.0,0.0,0.0,0.0,0.0,0.0,137.07891845703125,-1.1211377382278442,0.9823662042617798,0.0,0.0,0.0,0.0,0.0,0.0,0.0,0.0,0.0,-0.008039253763854504,0.017566721886396408,0.04735660180449486,0.0,0.0,0.0,0.0,0.0,0.0,0.0,0.0,0.0
1606989744002116010,3037448,1606986142302703860,imu_link,0.012241226620972157,0.00439862534403801,0.9306217432022095,0.3657512664794922,0.0,0.0,0.0,0.0,0.0,0.0,0.0,0.0,0.0,137.07891845703125,-1.1211377382278442,0.9823662042617798,0.0,0.0,0.0,0.0,0.0,0.0,0.0,0.0,0.0,-0.008039253763854504,0.017566721886396408,0.04735660180449486,0.0,0.0,0.0,0.0,0.0,0.0,0.0,0.0,0.0
1606989744002132551,3037449,1606986142302786462,imu_link,0.012240367010235786,0.004395355470478535,0.9306222200393677,0.36575016379356384,0.0,0.0,0.0,0.0,0.0,0.0,0.0,0.0,0.0,137.0790557861328,-1.121184229850769,0.9819798469543457,0.0,0.0,0.0,0.0,0.0,0.0,0.0,0.0,0.0,-0.004170949570834637,0.00972391664981842,0.06509872525930405,0.0,0.0,0.0,0.0,0.0,0.0,0.0,0.0,0.0
1606989744002138080,3037450,1606986142302865885,imu_link,0.012240367010235786,0.004395355470478535,0.9306222200393677,0.36575016379356384,0.0,0.0,0.0,0.0,0.0,0.0,0.0,0.0,0.0,137.0790557861328,-1.121184229850769,0.9819798469543457,0.0,0.0,0.0,0.0,0.0,0.0,0.0,0.0,0.0,-0.004170949570834637,0.00972391664981842,0.06509872525930405,0.0,0.0,0.0,0.0,0.0,0.0,0.0,0.0,0.0
1606989744002145324,3037451,1606986142302974802,imu_link,0.012240089476108551,0.004395440220832825,0.9306228160858154,0.3657486140727997,0.0,0.0,0.0,0.0,0.0,0.0,0.0,0.0,0.0,137.07925415039062,-1.1211528778076172,0.9819753766059875,0.0,0.0,0.0,0.0,0.0,0.0,0.0,0.0,0.0,-0.003106732154265046,-0.002554810605943203,0.06670121848583221,0.0,0.0,0.0,0.0,0.0,0.0,0.0,0.0,0.0
1606989744002170069,3037452,1606986142303058772,imu_link,0.012240089476108551,0.004395440220832825,0.9306228160858154,0.3657486140727997,0.0,0.0,0.0,0.0,0.0,0.0,0.0,0.0,0.0,137.07925415039062,-1.1211528778076172,0.9819753766059875,0.0,0.0,0.0,0.0,0.0,0.0,0.0,0.0,0.0,-0.003106732154265046,-0.002554810605943203,0.06670121848583221,0.0,0.0,0.0,0.0,0.0,0.0,0.0,0.0,0.0
1606989744009551202,3037453,1606986142315534068,imu_link,0.012239598669111729,0.004395997617393732,0.9306234121322632,0.3657471835613251,0.0,0.0,0.0,0.0,0.0,0.0,0.0,0.0,0.0,137.07943725585938,-1.121078610420227,0.9820125102996826,0.0,0.0,0.0,0.0,0.0,0.0,0.0,0.0,0.0,0.0018381057307124138,0.020118191838264465,0.05395885184407234,0.0,0.0,0.0,0.0,0.0,0.0,0.0,0.0,0.0
1606989744009568571,3037454,1606986142315673175,imu_link,0.012239598669111729,0.004395997617393732,0.9306234121322632,0.3657471835613251,0.0,0.0,0.0,0.0,0.0,0.0,0.0,0.0,0.0,137.07943725585938,-1.121078610420227,0.9820125102996826,0.0,0.0,0.0,0.0,0.0,0.0,0.0,0.0,0.0,0.0018381057307124138,0.020118191838264465,0.05395885184407234,0.0,0.0,0.0,0.0,0.0,0.0,0.0,0.0,0.0
1606989744009574974,3037455,1606986142315828510,imu_link,0.012239053845405579,0.004396931268274784,0.9306228756904602,0.3657485544681549,0.0,0.0,0.0,0.0,0.0,0.0,0.0,0.0,0.0,137.0792694091797,-1.1209800243377686,0.982090950012207,0.0,0.0,0.0,0.0,0.0,0.0,0.0,0.0,0.0,0.0006760586984455585,0.024951951578259468,0.06909683346748352,0.0,0.0,0.0,0.0,0.0,0.0,0.0,0.0,0.0
1606989744009579530,3037456,1606986142315926747,imu_link,0.012239053845405579,0.004396931268274784,0.9306228756904602,0.3657485544681549,0.0,0.0,0.0,0.0,0.0,0.0,0.0,0.0,0.0,137.0792694091797,-1.1209800243377686,0.982090950012207,0.0,0.0,0.0,0.0,0.0,0.0,0.0,0.0,0.0,0.0006760586984455585,0.024951951578259468,0.06909683346748352,0.0,0.0,0.0,0.0,0.0,0.0,0.0,0.0,0.0
1606989744018949093,3037457,1606986142316004587,imu_link,0.012237101793289185,0.004391573369503021,0.9306238889694214,0.36574605107307434,0.0,0.0,0.0,0.0,0.0,0.0,0.0,0.0,0.0,137.07957458496094,-1.1209989786148071,0.9814345240592957,0.0,0.0,0.0,0.0,0.0,0.0,0.0,0.0,0.0,0.000562558532692492,0.003388720564544201,0.08407727628946304,0.0,0.0,0.0,0.0,0.0,0.0,0.0,0.0,0.0
1606989744018994614,3037458,1606986142316106072,imu_link,0.012237101793289185,0.004391573369503021,0.9306238889694214,0.36574605107307434,0.0,0.0,0.0,0.0,0.0,0.0,0.0,0.0,0.0,137.07957458496094,-1.1209989786148071,0.9814345240592957,0.0,0.0,0.0,0.0,0.0,0.0,0.0,0.0,0.0,0.000562558532692492,0.003388720564544201,0.08407727628946304,0.0,0.0,0.0,0.0,0.0,0.0,0.0,0.0,0.0
1606989744019014088,3037459,1606986142316192893,imu_link,0.012237660586833954,0.004391699098050594,0.9306241273880005,0.3657454550266266,0.0,0.0,0.0,0.0,0.0,0.0,0.0,0.0,0.0,137.07965087890625,-1.1210540533065796,0.9814705848693848,0.0,0.0,0.0,0.0,0.0,0.0,0.0,0.0,0.0,0.013861468061804771,-0.0070635247975587845,0.07301556318998337,0.0,0.0,0.0,0.0,0.0,0.0,0.0,0.0,0.0
1606989744019023644,3037460,1606986142316275765,imu_link,0.012237660586833954,0.004391699098050594,0.9306241273880005,0.3657454550266266,0.0,0.0,0.0,0.0,0.0,0.0,0.0,0.0,0.0,137.07965087890625,-1.1210540533065796,0.9814705848693848,0.0,0.0,0.0,0.0,0.0,0.0,0.0,0.0,0.0,0.013861468061804771,-0.0070635247975587845,0.07301556318998337,0.0,0.0,0.0,0.0,0.0,0.0,0.0,0.0,0.0
1606989744019037151,3037461,1606986142316405410,imu_link,0.012238518334925175,0.0043946243822574615,0.9306221604347229,0.36575043201446533,0.0,0.0,0.0,0.0,0.0,0.0,0.0,0.0,0.0,137.07904052734375,-1.121017575263977,0.9818245768547058,0.0,0.0,0.0,0.0,0.0,0.0,0.0,0.0,0.0,0.009633072651922703,-0.011073396541178226,0.053592029958963394,0.0,0.0,0.0,0.0,0.0,0.0,0.0,0.0,0.0
1606989744026740908,3037462,1606986142316541811,imu_link,0.012238518334925175,0.0043946243822574615,0.9306221604347229,0.36575043201446533,0.0,0.0,0.0,0.0,0.0,0.0,0.0,0.0,0.0,137.07904052734375,-1.121017575263977,0.9818245768547058,0.0,0.0,0.0,0.0,0.0,0.0,0.0,0.0,0.0,0.009633072651922703,-0.011073396541178226,0.053592029958963394,0.0,0.0,0.0,0.0,0.0,0.0,0.0,0.0,0.0
1606989744026758996,3037463,1606986142316640023,imu_link,0.012237343937158585,0.004395691677927971,0.9306218028068542,0.36575132608413696,0.0,0.0,0.0,0.0,0.0,0.0,0.0,0.0,0.0,137.07891845703125,-1.1208466291427612,0.9818902015686035,0.0,0.0,0.0,0.0,0.0,0.0,0.0,0.0,0.0,-0.006858276203274727,-0.009424291551113129,0.04769697040319443,0.0,0.0,0.0,0.0,0.0,0.0,0.0,0.0,0.0
1606989744026765137,3037464,1606986142328300238,imu_link,0.012237343937158585,0.004395691677927971,0.9306218028068542,0.36575132608413696,0.0,0.0,0.0,0.0,0.0,0.0,0.0,0.0,0.0,137.07891845703125,-1.1208466291427612,0.9818902015686035,0.0,0.0,0.0,0.0,0.0,0.0,0.0,0.0,0.0,-0.006858276203274727,-0.009424291551113129,0.04769697040319443,0.0,0.0,0.0,0.0,0.0,0.0,0.0,0.0,0.0
1606989744026773634,3037465,1606986142328417725,imu_link,0.012240630574524403,0.00439494289457798,0.9306204319000244,0.3657548129558563,0.0,0.0,0.0,0.0,0.0,0.0,0.0,0.0,0.0,137.0784912109375,-1.1212249994277954,0.981952428817749,0.0,0.0,0.0,0.0,0.0,0.0,0.0,0.0,0.0,-0.017975855618715286,-0.004879486747086048,0.055844612419605255,0.0,0.0,0.0,0.0,0.0,0.0,0.0,0.0,0.0
1606989744067903244,3037466,1606986142328502336,imu_link,0.012240630574524403,0.00439494289457798,0.9306204319000244,0.3657548129558563,0.0,0.0,0.0,0.0,0.0,0.0,0.0,0.0,0.0,137.0784912109375,-1.1212249994277954,0.981952428817749,0.0,0.0,0.0,0.0,0.0,0.0,0.0,0.0,0.0,-0.017975855618715286,-0.004879486747086048,0.055844612419605255,0.0,0.0,0.0,0.0,0.0,0.0,0.0,0.0,0.0
1606989744067922799,3037467,1606986142328584496,imu_link,0.01224118284881115,0.004396307282149792,0.9306201338768005,0.3657556176185608,0.0,0.0,0.0,0.0,0.0,0.0,0.0,0.0,0.0,137.07839965820312,-1.1212258338928223,0.9821222424507141,0.0,0.0,0.0,0.0,0.0,0.0,0.0,0.0,0.0,-0.013992883265018463,0.0019820574671030045,0.06251495331525803,0.0,0.0,0.0,0.0,0.0,0.0,0.0,0.0,0.0
1606989744067931058,3037468,1606986142328669783,imu_link,0.01224118284881115,0.004396307282149792,0.9306201338768005,0.3657556176185608,0.0,0.0,0.0,0.0,0.0,0.0,0.0,0.0,0.0,137.07839965820312,-1.1212258338928223,0.9821222424507141,0.0,0.0,0.0,0.0,0.0,0.0,0.0,0.0,0.0,-0.013992883265018463,0.0019820574671030045,0.06251495331525803,0.0,0.0,0.0,0.0,0.0,0.0,0.0,0.0,0.0
1606989744067936234,3037469,1606986142328776074,imu_link,0.012241283431649208,0.004394974559545517,0.9306167960166931,0.36576393246650696,0.0,0.0,0.0,0.0,0.0,0.0,0.0,0.0,0.0,137.07736206054688,-1.1212836503982544,0.9819942712783813,0.0,0.0,0.0,0.0,0.0,0.0,0.0,0.0,0.0,-0.003935204818844795,-0.011554352939128876,0.0489947609603405,0.0,0.0,0.0,0.0,0.0,0.0,0.0,0.0,0.0
1606989744067947603,3037470,1606986142328865842,imu_link,0.012241283431649208,0.004394974559545517,0.9306167960166931,0.36576393246650696,0.0,0.0,0.0,0.0,0.0,0.0,0.0,0.0,0.0,137.07736206054688,-1.1212836503982544,0.9819942712783813,0.0,0.0,0.0,0.0,0.0,0.0,0.0,0.0,0.0,-0.003935204818844795,-0.011554352939128876,0.0489947609603405,0.0,0.0,0.0,0.0,0.0,0.0,0.0,0.0,0.0
1606989744075486075,3037471,1606986142328950247,imu_link,0.012240956537425518,0.004392346832901239,0.930616557598114,0.36576446890830994,0.0,0.0,0.0,0.0,0.0,0.0,0.0,0.0,0.0,137.07730102539062,-1.1213582754135132,0.9817008972167969,0.0,0.0,0.0,0.0,0.0,0.0,0.0,0.0,0.0,0.005260863807052374,-0.029611291363835335,0.0324358195066452,0.0,0.0,0.0,0.0,0.0,0.0,0.0,0.0,0.0
1606989744075506927,3037472,1606986142329030278,imu_link,0.012240956537425518,0.004392346832901239,0.930616557598114,0.36576446890830994,0.0,0.0,0.0,0.0,0.0,0.0,0.0,0.0,0.0,137.07730102539062,-1.1213582754135132,0.9817008972167969,0.0,0.0,0.0,0.0,0.0,0.0,0.0,0.0,0.0,0.005260863807052374,-0.029611291363835335,0.0324358195066452,0.0,0.0,0.0,0.0,0.0,0.0,0.0,0.0,0.0
1606989744075516185,3037473,1606986142329115460,imu_link,0.012240803800523281,0.004397875629365444,0.930614173412323,0.36577069759368896,0.0,0.0,0.0,0.0,0.0,0.0,0.0,0.0,0.0,137.0765380859375,-1.1211036443710327,0.982291579246521,0.0,0.0,0.0,0.0,0.0,0.0,0.0,0.0,0.0,0.009093503467738628,-0.016703421249985695,0.0222421046346426,0.0,0.0,0.0,0.0,0.0,0.0,0.0,0.0,0.0
1606989744075541787,3037474,1606986142342086594,imu_link,0.012240803800523281,0.004397875629365444,0.930614173412323,0.36577069759368896,0.0,0.0,0.0,0.0,0.0,0.0,0.0,0.0,0.0,137.0765380859375,-1.1211036443710327,0.982291579246521,0.0,0.0,0.0,0.0,0.0,0.0,0.0,0.0,0.0,0.009093503467738628,-0.016703421249985695,0.0222421046346426,0.0,0.0,0.0,0.0,0.0,0.0,0.0,0.0,0.0
1606989744080882648,3037475,1606986142342203830,imu_link,0.012241452001035213,0.004396429285407066,0.9306140542030334,0.3657708466053009,0.0,0.0,0.0,0.0,0.0,0.0,0.0,0.0,0.0,137.07650756835938,-1.1212332248687744,0.982164740562439,0.0,0.0,0.0,0.0,0.0,0.0,0.0,0.0,0.0,0.018688609823584557,0.008676938712596893,0.030881471931934357,0.0,0.0,0.0,0.0,0.0,0.0,0.0,0.0,0.0
1606989744080914048,3037476,1606986142342288782,imu_link,0.012241452001035213,0.004396429285407066,0.9306140542030334,0.3657708466053009,0.0,0.0,0.0,0.0,0.0,0.0,0.0,0.0,0.0,137.07650756835938,-1.1212332248687744,0.982164740562439,0.0,0.0,0.0,0.0,0.0,0.0,0.0,0.0,0.0,0.018688609823584557,0.008676938712596893,0.030881471931934357,0.0,0.0,0.0,0.0,0.0,0.0,0.0,0.0,0.0
1606989744080931073,3037477,1606986142342378940,imu_link,0.012239383533596992,0.004395841155201197,0.9306105375289917,0.3657799959182739,0.0,0.0,0.0,0.0,0.0,0.0,0.0,0.0,0.0,137.0753936767578,-1.1210277080535889,0.9820261597633362,0.0,0.0,0.0,0.0,0.0,0.0,0.0,0.0,0.0,0.017346492037177086,0.007086286321282387,0.04187743738293648,0.0,0.0,0.0,0.0,0.0,0.0,0.0,0.0,0.0
1606989744080943676,3037478,1606986142342460339,imu_link,0.012239383533596992,0.004395841155201197,0.9306105375289917,0.3657799959182739,0.0,0.0,0.0,0.0,0.0,0.0,0.0,0.0,0.0,137.0753936767578,-1.1210277080535889,0.9820261597633362,0.0,0.0,0.0,0.0,0.0,0.0,0.0,0.0,0.0,0.017346492037177086,0.007086286321282387,0.04187743738293648,0.0,0.0,0.0,0.0,0.0,0.0,0.0,0.0,0.0
1606989744080961589,3037479,1606986142342544739,imu_link,0.01224108599126339,0.004397395998239517,0.9306104779243469,0.3657800257205963,0.0,0.0,0.0,0.0,0.0,0.0,0.0,0.0,0.0,137.0753936767578,-1.1211439371109009,0.9822635650634766,0.0,0.0,0.0,0.0,0.0,0.0,0.0,0.0,0.0,0.004418722819536924,-0.004411625675857067,0.03870140388607979,0.0,0.0,0.0,0.0,0.0,0.0,0.0,0.0,0.0
1606989744087640987,3037480,1606986142342642064,imu_link,0.01224108599126339,0.004397395998239517,0.9306104779243469,0.3657800257205963,0.0,0.0,0.0,0.0,0.0,0.0,0.0,0.0,0.0,137.0753936767578,-1.1211439371109009,0.9822635650634766,0.0,0.0,0.0,0.0,0.0,0.0,0.0,0.0,0.0,0.004418722819536924,-0.004411625675857067,0.03870140388607979,0.0,0.0,0.0,0.0,0.0,0.0,0.0,0.0,0.0
1606989744087662864,3037481,1606986142342724786,imu_link,0.01224153209477663,0.004397265147417784,0.9306080937385559,0.365786075592041,0.0,0.0,0.0,0.0,0.0,0.0,0.0,0.0,0.0,137.0746307373047,-1.1211906671524048,0.9822757840156555,0.0,0.0,0.0,0.0,0.0,0.0,0.0,0.0,0.0,0.007057413458824158,-0.003963868599385023,0.04303332045674324,0.0,0.0,0.0,0.0,0.0,0.0,0.0,0.0,0.0
1606989744087678206,3037482,1606986142342805899,imu_link,0.01224153209477663,0.004397265147417784,0.9306080937385559,0.365786075592041,0.0,0.0,0.0,0.0,0.0,0.0,0.0,0.0,0.0,137.0746307373047,-1.1211906671524048,0.9822757840156555,0.0,0.0,0.0,0.0,0.0,0.0,0.0,0.0,0.0,0.007057413458824158,-0.003963868599385023,0.04303332045674324,0.0,0.0,0.0,0.0,0.0,0.0,0.0,0.0,0.0
1606989744087691991,3037483,1606986142342883358,imu_link,0.012240809388458729,0.004395703319460154,0.9306079745292664,0.36578643321990967,0.0,0.0,0.0,0.0,0.0,0.0,0.0,0.0,0.0,137.07460021972656,-1.1211787462234497,0.9820791482925415,0.0,0.0,0.0,0.0,0.0,0.0,0.0,0.0,0.0,0.011830605566501617,-0.0034330449998378754,0.0453835129737854,0.0,0.0,0.0,0.0,0.0,0.0,0.0,0.0,0.0
1606989744133001050,3037484,1606986142343003290,imu_link,0.012240809388458729,0.004395703319460154,0.9306079745292664,0.36578643321990967,0.0,0.0,0.0,0.0,0.0,0.0,0.0,0.0,0.0,137.07460021972656,-1.1211787462234497,0.9820791482925415,0.0,0.0,0.0,0.0,0.0,0.0,0.0,0.0,0.0,0.011830605566501617,-0.0034330449998378754,0.0453835129737854,0.0,0.0,0.0,0.0,0.0,0.0,0.0,0.0,0.0
1606989744133017025,3037485,1606986142352121057,imu_link,0.012238954193890095,0.004397302400320768,0.930607795715332,0.36578696966171265,0.0,0.0,0.0,0.0,0.0,0.0,0.0,0.0,0.0,137.0745391845703,-1.1209132671356201,0.9821724891662598,0.0,0.0,0.0,0.0,0.0,0.0,0.0,0.0,0.0,0.00040743278805166483,-0.0066163684241473675,0.026414789259433746,0.0,0.0,0.0,0.0,0.0,0.0,0.0,0.0,0.0
1606989744133023805,3037486,1606986142352235807,imu_link,0.012238954193890095,0.004397302400320768,0.930607795715332,0.36578696966171265,0.0,0.0,0.0,0.0,0.0,0.0,0.0,0.0,0.0,137.0745391845703,-1.1209132671356201,0.9821724891662598,0.0,0.0,0.0,0.0,0.0,0.0,0.0,0.0,0.0,0.00040743278805166483,-0.0066163684241473675,0.026414789259433746,0.0,0.0,0.0,0.0,0.0,0.0,0.0,0.0,0.0
1606989744133031072,3037487,1606986142352321120,imu_link,0.012238879688084126,0.0043992470018565655,0.930607259273529,0.3657882809638977,0.0,0.0,0.0,0.0,0.0,0.0,0.0,0.0,0.0,137.07437133789062,-1.1208223104476929,0.982378363609314,0.0,0.0,0.0,0.0,0.0,0.0,0.0,0.0,0.0,-0.013928733766078949,-0.004462059587240219,0.015028215944766998,0.0,0.0,0.0,0.0,0.0,0.0,0.0,0.0,0.0
1606989744167934386,3037488,1606986142352397702,imu_link,0.012238879688084126,0.0043992470018565655,0.930607259273529,0.3657882809638977,0.0,0.0,0.0,0.0,0.0,0.0,0.0,0.0,0.0,137.07437133789062,-1.1208223104476929,0.982378363609314,0.0,0.0,0.0,0.0,0.0,0.0,0.0,0.0,0.0,-0.013928733766078949,-0.004462059587240219,0.015028215944766998,0.0,0.0,0.0,0.0,0.0,0.0,0.0,0.0,0.0
1606989744167954671,3037489,1606986142352480904,imu_link,0.01224141288548708,0.004400019533932209,0.9306077361106873,0.36578691005706787,0.0,0.0,0.0,0.0,0.0,0.0,0.0,0.0,0.0,137.0745391845703,-1.1210615634918213,0.9825654625892639,0.0,0.0,0.0,0.0,0.0,0.0,0.0,0.0,0.0,-0.0012685807887464762,0.005980764981359243,0.03832254931330681,0.0,0.0,0.0,0.0,0.0,0.0,0.0,0.0,0.0
1606989744167961685,3037490,1606986142352567565,imu_link,0.01224141288548708,0.004400019533932209,0.9306077361106873,0.36578691005706787,0.0,0.0,0.0,0.0,0.0,0.0,0.0,0.0,0.0,137.0745391845703,-1.1210615634918213,0.9825654625892639,0.0,0.0,0.0,0.0,0.0,0.0,0.0,0.0,0.0,-0.0012685807887464762,0.005980764981359243,0.03832254931330681,0.0,0.0,0.0,0.0,0.0,0.0,0.0,0.0,0.0
1606989744168015946,3037491,1606986142352666765,imu_link,0.012243803590536118,0.004398116376250982,0.930607259273529,0.3657881021499634,0.0,0.0,0.0,0.0,0.0,0.0,0.0,0.0,0.0,137.07437133789062,-1.1213951110839844,0.9824642539024353,0.0,0.0,0.0,0.0,0.0,0.0,0.0,0.0,0.0,0.014653537422418594,0.003015595953911543,0.04667153209447861,0.0,0.0,0.0,0.0,0.0,0.0,0.0,0.0,0.0
1606989744168023415,3037492,1606986142352918963,imu_link,0.012243803590536118,0.004398116376250982,0.930607259273529,0.3657881021499634,0.0,0.0,0.0,0.0,0.0,0.0,0.0,0.0,0.0,137.07437133789062,-1.1213951110839844,0.9824642539024353,0.0,0.0,0.0,0.0,0.0,0.0,0.0,0.0,0.0,0.014653537422418594,0.003015595953911543,0.04667153209447861,0.0,0.0,0.0,0.0,0.0,0.0,0.0,0.0,0.0
1606989744180677820,3037493,1606986142365559808,imu_link,0.01224225852638483,0.004398423247039318,0.9306089282035828,0.3657839596271515,0.0,0.0,0.0,0.0,0.0,0.0,0.0,0.0,0.0,137.07489013671875,-1.121221899986267,0.9824271202087402,0.0,0.0,0.0,0.0,0.0,0.0,0.0,0.0,0.0,0.0058524333871901035,-0.009517340920865536,0.0499407984316349,0.0,0.0,0.0,0.0,0.0,0.0,0.0,0.0,0.0
1606989744180705605,3037494,1606986142365702684,imu_link,0.01224225852638483,0.004398423247039318,0.9306089282035828,0.3657839596271515,0.0,0.0,0.0,0.0,0.0,0.0,0.0,0.0,0.0,137.07489013671875,-1.121221899986267,0.9824271202087402,0.0,0.0,0.0,0.0,0.0,0.0,0.0,0.0,0.0,0.0058524333871901035,-0.009517340920865536,0.0499407984316349,0.0,0.0,0.0,0.0,0.0,0.0,0.0,0.0,0.0
1606989744180717011,3037495,1606986142365862594,imu_link,0.012240343727171421,0.004398421850055456,0.9306080341339111,0.36578625440597534,0.0,0.0,0.0,0.0,0.0,0.0,0.0,0.0,0.0,137.07461547851562,-1.1210153102874756,0.9823493361473083,0.0,0.0,0.0,0.0,0.0,0.0,0.0,0.0,0.0,-0.0019104336388409138,-0.004634656477719545,0.05015210062265396,0.0,0.0,0.0,0.0,0.0,0.0,0.0,0.0,0.0
1606989744180725334,3037496,1606986142365963061,imu_link,0.012240343727171421,0.004398421850055456,0.9306080341339111,0.36578625440597534,0.0,0.0,0.0,0.0,0.0,0.0,0.0,0.0,0.0,137.07461547851562,-1.1210153102874756,0.9823493361473083,0.0,0.0,0.0,0.0,0.0,0.0,0.0,0.0,0.0,-0.0019104336388409138,-0.004634656477719545,0.05015210062265396,0.0,0.0,0.0,0.0,0.0,0.0,0.0,0.0,0.0
1606989744187911301,3037497,1606986142366041152,imu_link,0.01223989948630333,0.004399977624416351,0.9306097626686096,0.3657817840576172,0.0,0.0,0.0,0.0,0.0,0.0,0.0,0.0,0.0,137.07516479492188,-1.1209073066711426,0.9824913740158081,0.0,0.0,0.0,0.0,0.0,0.0,0.0,0.0,0.0,-0.00664252694696188,0.007396401837468147,0.045330408960580826,0.0,0.0,0.0,0.0,0.0,0.0,0.0,0.0,0.0
1606989744187935042,3037498,1606986142366146285,imu_link,0.01223989948630333,0.004399977624416351,0.9306097626686096,0.3657817840576172,0.0,0.0,0.0,0.0,0.0,0.0,0.0,0.0,0.0,137.07516479492188,-1.1209073066711426,0.9824913740158081,0.0,0.0,0.0,0.0,0.0,0.0,0.0,0.0,0.0,-0.00664252694696188,0.007396401837468147,0.045330408960580826,0.0,0.0,0.0,0.0,0.0,0.0,0.0,0.0,0.0
1606989744188011415,3037499,1606986142366229307,imu_link,0.012237945571541786,0.004400461912155151,0.9306089282035828,0.3657841086387634,0.0,0.0,0.0,0.0,0.0,0.0,0.0,0.0,0.0,137.0748748779297,-1.1206763982772827,0.9824639558792114,0.0,0.0,0.0,0.0,0.0,0.0,0.0,0.0,0.0,-0.014292290434241295,0.00830160267651081,0.04491502419114113,0.0,0.0,0.0,0.0,0.0,0.0,0.0,0.0,0.0
1606989744188023363,3037500,1606986142366310781,imu_link,0.012237945571541786,0.004400461912155151,0.9306089282035828,0.3657841086387634,0.0,0.0,0.0,0.0,0.0,0.0,0.0,0.0,0.0,137.0748748779297,-1.1206763982772827,0.9824639558792114,0.0,0.0,0.0,0.0,0.0,0.0,0.0,0.0,0.0,-0.014292290434241295,0.00830160267651081,0.04491502419114113,0.0,0.0,0.0,0.0,0.0,0.0,0.0,0.0,0.0
1606989744188044200,3037501,1606986142366393327,imu_link,0.012241247110068798,0.004399423953145742,0.9306086301803589,0.3657844662666321,0.0,0.0,0.0,0.0,0.0,0.0,0.0,0.0,0.0,137.0748291015625,-1.1210713386535645,0.9824922680854797,0.0,0.0,0.0,0.0,0.0,0.0,0.0,0.0,0.0,0.0017586149042472243,-0.01788940653204918,0.05903000384569168,0.0,0.0,0.0,0.0,0.0,0.0,0.0,0.0,0.0
1606989744228587000,3037502,1606986142366474339,imu_link,0.012241247110068798,0.004399423953145742,0.9306086301803589,0.3657844662666321,0.0,0.0,0.0,0.0,0.0,0.0,0.0,0.0,0.0,137.0748291015625,-1.1210713386535645,0.9824922680854797,0.0,0.0,0.0,0.0,0.0,0.0,0.0,0.0,0.0,0.0017586149042472243,-0.01788940653204918,0.05903000384569168,0.0,0.0,0.0,0.0,0.0,0.0,0.0,0.0,0.0
1606989744228622300,3037503,1606986142366555452,imu_link,0.01224050298333168,0.004399426747113466,0.9306078553199768,0.36578652262687683,0.0,0.0,0.0,0.0,0.0,0.0,0.0,0.0,0.0,137.0745849609375,-1.1209896802902222,0.9824636578559875,0.0,0.0,0.0,0.0,0.0,0.0,0.0,0.0,0.0,0.023176591843366623,-0.024114472791552544,0.0686105489730835,0.0,0.0,0.0,0.0,0.0,0.0,0.0,0.0,0.0
1606989744228633416,3037504,1606986142378466197,imu_link,0.01224050298333168,0.004399426747113466,0.9306078553199768,0.36578652262687683,0.0,0.0,0.0,0.0,0.0,0.0,0.0,0.0,0.0,137.0745849609375,-1.1209896802902222,0.9824636578559875,0.0,0.0,0.0,0.0,0.0,0.0,0.0,0.0,0.0,0.023176591843366623,-0.024114472791552544,0.0686105489730835,0.0,0.0,0.0,0.0,0.0,0.0,0.0,0.0,0.0
1606989744228648158,3037505,1606986142378609128,imu_link,0.01223931834101677,0.004403118044137955,0.9306077361106873,0.36578699946403503,0.0,0.0,0.0,0.0,0.0,0.0,0.0,0.0,0.0,137.07452392578125,-1.1207082271575928,0.9828082323074341,0.0,0.0,0.0,0.0,0.0,0.0,0.0,0.0,0.0,0.016581490635871887,0.0023032212629914284,0.06340886652469635,0.0,0.0,0.0,0.0,0.0,0.0,0.0,0.0,0.0
1606989744236181452,3037506,1606986142378761481,imu_link,0.01223931834101677,0.004403118044137955,0.9306077361106873,0.36578699946403503,0.0,0.0,0.0,0.0,0.0,0.0,0.0,0.0,0.0,137.07452392578125,-1.1207082271575928,0.9828082323074341,0.0,0.0,0.0,0.0,0.0,0.0,0.0,0.0,0.0,0.016581490635871887,0.0023032212629914284,0.06340886652469635,0.0,0.0,0.0,0.0,0.0,0.0,0.0,0.0,0.0
1606989744236273354,3037507,1606986142378859232,imu_link,0.012236205860972404,0.0044046551920473576,0.9306076169013977,0.3657873570919037,0.0,0.0,0.0,0.0,0.0,0.0,0.0,0.0,0.0,137.07447814941406,-1.1203113794326782,0.982841968536377,0.0,0.0,0.0,0.0,0.0,0.0,0.0,0.0,0.0,0.001596380490809679,0.017379431053996086,0.06360083073377609,0.0,0.0,0.0,0.0,0.0,0.0,0.0,0.0,0.0
1606989744236295728,3037508,1606986142378966290,imu_link,0.012236205860972404,0.0044046551920473576,0.9306076169013977,0.3657873570919037,0.0,0.0,0.0,0.0,0.0,0.0,0.0,0.0,0.0,137.07447814941406,-1.1203113794326782,0.982841968536377,0.0,0.0,0.0,0.0,0.0,0.0,0.0,0.0,0.0,0.001596380490809679,0.017379431053996086,0.06360083073377609,0.0,0.0,0.0,0.0,0.0,0.0,0.0,0.0,0.0
1606989744236316395,3037509,1606986142379077186,imu_link,0.0122350649908185,0.004405067767947912,0.9306093454360962,0.3657830059528351,0.0,0.0,0.0,0.0,0.0,0.0,0.0,0.0,0.0,137.07501220703125,-1.120177149772644,0.9828329086303711,0.0,0.0,0.0,0.0,0.0,0.0,0.0,0.0,0.0,0.0034293588250875473,0.022460637614130974,0.04948935657739639,0.0,0.0,0.0,0.0,0.0,0.0,0.0,0.0,0.0
1606989744236334539,3037510,1606986142379159351,imu_link,0.0122350649908185,0.004405067767947912,0.9306093454360962,0.3657830059528351,0.0,0.0,0.0,0.0,0.0,0.0,0.0,0.0,0.0,137.07501220703125,-1.120177149772644,0.9828329086303711,0.0,0.0,0.0,0.0,0.0,0.0,0.0,0.0,0.0,0.0034293588250875473,0.022460637614130974,0.04948935657739639,0.0,0.0,0.0,0.0,0.0,0.0,0.0,0.0,0.0
1606989744243684533,3037511,1606986142379238926,imu_link,0.012233994901180267,0.004406395368278027,0.9306097626686096,0.3657819330692291,0.0,0.0,0.0,0.0,0.0,0.0,0.0,0.0,0.0,137.0751495361328,-1.1200083494186401,0.9829283356666565,0.0,0.0,0.0,0.0,0.0,0.0,0.0,0.0,0.0,0.0138880405575037,0.0024846564047038555,0.057422660291194916,0.0,0.0,0.0,0.0,0.0,0.0,0.0,0.0,0.0
1606989744243709169,3037512,1606986142379320585,imu_link,0.012233994901180267,0.004406395368278027,0.9306097626686096,0.3657819330692291,0.0,0.0,0.0,0.0,0.0,0.0,0.0,0.0,0.0,137.0751495361328,-1.1200083494186401,0.9829283356666565,0.0,0.0,0.0,0.0,0.0,0.0,0.0,0.0,0.0,0.0138880405575037,0.0024846564047038555,0.057422660291194916,0.0,0.0,0.0,0.0,0.0,0.0,0.0,0.0,0.0
1606989744243716352,3037513,1606986142379400229,imu_link,0.012232061475515366,0.004408142529428005,0.9306113123893738,0.36577799916267395,0.0,0.0,0.0,0.0,0.0,0.0,0.0,0.0,0.0,137.07565307617188,-1.1197330951690674,0.9830287098884583,0.0,0.0,0.0,0.0,0.0,0.0,0.0,0.0,0.0,0.017827358096837997,0.00238033477216959,0.08862333744764328,0.0,0.0,0.0,0.0,0.0,0.0,0.0,0.0,0.0
1606989744243723048,3037514,1606986142392270480,imu_link,0.012232061475515366,0.004408142529428005,0.9306113123893738,0.36577799916267395,0.0,0.0,0.0,0.0,0.0,0.0,0.0,0.0,0.0,137.07565307617188,-1.1197330951690674,0.9830287098884583,0.0,0.0,0.0,0.0,0.0,0.0,0.0,0.0,0.0,0.017827358096837997,0.00238033477216959,0.08862333744764328,0.0,0.0,0.0,0.0,0.0,0.0,0.0,0.0,0.0
1606989744257438988,3037515,1606986142392413090,imu_link,0.012231206521391869,0.004410179331898689,0.9306120872497559,0.3657761514186859,0.0,0.0,0.0,0.0,0.0,0.0,0.0,0.0,0.0,137.07586669921875,-1.1195586919784546,0.9832079410552979,0.0,0.0,0.0,0.0,0.0,0.0,0.0,0.0,0.0,0.019864164292812347,0.023170212283730507,0.07765936851501465,0.0,0.0,0.0,0.0,0.0,0.0,0.0,0.0,0.0
1606989744257466173,3037516,1606986142392565222,imu_link,0.012231206521391869,0.004410179331898689,0.9306120872497559,0.3657761514186859,0.0,0.0,0.0,0.0,0.0,0.0,0.0,0.0,0.0,137.07586669921875,-1.1195586919784546,0.9832079410552979,0.0,0.0,0.0,0.0,0.0,0.0,0.0,0.0,0.0,0.019864164292812347,0.023170212283730507,0.07765936851501465,0.0,0.0,0.0,0.0,0.0,0.0,0.0,0.0,0.0
1606989744257473278,3037517,1606986142392664321,imu_link,0.012227409519255161,0.004408589098602533,0.9306100010871887,0.3657814860343933,0.0,0.0,0.0,0.0,0.0,0.0,0.0,0.0,0.0,137.07522583007812,-1.1192145347595215,0.9828854203224182,0.0,0.0,0.0,0.0,0.0,0.0,0.0,0.0,0.0,0.014576276764273643,0.019055090844631195,0.05144501477479935,0.0,0.0,0.0,0.0,0.0,0.0,0.0,0.0,0.0
