%time,field.header.seq,field.header.stamp,field.header.frame_id,field.orientation.x,field.orientation.y,field.orientation.z,field.orientation.w,field.orientation_covariance0,field.orientation_covariance1,field.orientation_covariance2,field.orientation_covariance3,field.orientation_covariance4,field.orientation_covariance5,field.orientation_covariance6,field.orientation_covariance7,field.orientation_covariance8,field.angular_velocity.x,field.angular_velocity.y,field.angular_velocity.z,field.angular_velocity_covariance0,field.angular_velocity_covariance1,field.angular_velocity_covariance2,field.angular_velocity_covariance3,field.angular_velocity_covariance4,field.angular_velocity_covariance5,field.angular_velocity_covariance6,field.angular_velocity_covariance7,field.angular_velocity_covariance8,field.linear_acceleration.x,field.linear_acceleration.y,field.linear_acceleration.z,field.linear_acceleration_covariance0,field.linear_acceleration_covariance1,field.linear_acceleration_covariance2,field.linear_acceleration_covariance3,field.linear_acceleration_covariance4,field.linear_acceleration_covariance5,field.linear_acceleration_covariance6,field.linear_acceleration_covariance7,field.linear_acceleration_covariance8
1606990543658901049,3677939,1606986942933163267,imu_link,-0.002498967107385397,0.006730979308485985,-0.3633832335472107,0.9316121339797974,0.0,0.0,0.0,0.0,0.0,0.0,0.0,0.0,0.0,-42.62031555175781,0.6145180463790894,-0.5470990538597107,0.0,0.0,0.0,0.0,0.0,0.0,0.0,0.0,0.0,0.010187369771301746,0.0057630049996078014,0.09166258573532104,0.0,0.0,0.0,0.0,0.0,0.0,0.0,0.0,0.0
1606990543658922119,3677940,1606986942933312532,imu_link,-0.002498967107385397,0.006730979308485985,-0.3633832335472107,0.9316121339797974,0.0,0.0,0.0,0.0,0.0,0.0,0.0,0.0,0.0,-42.62031555175781,0.6145180463790894,-0.5470990538597107,0.0,0.0,0.0,0.0,0.0,0.0,0.0,0.0,0.0,0.010187369771301746,0.0057630049996078014,0.09166258573532104,0.0,0.0,0.0,0.0,0.0,0.0,0.0,0.0,0.0
1606990543658932631,3677941,1606986942933459837,imu_link,-0.0024990227539092302,0.006732911337167025,-0.3633834421634674,0.931611955165863,0.0,0.0,0.0,0.0,0.0,0.0,0.0,0.0,0.0,-42.6203498840332,0.6147218346595764,-0.5471856594085693,0.0,0.0,0.0,0.0,0.0,0.0,0.0,0.0,0.0,0.012510792352259159,-0.009392333216965199,0.09065961837768555,0.0,0.0,0.0,0.0,0.0,0.0,0.0,0.0,0.0
1606990543658946607,3677942,1606986942933590327,imu_link,-0.0024990227539092302,0.006732911337167025,-0.3633834421634674,0.931611955165863,0.0,0.0,0.0,0.0,0.0,0.0,0.0,0.0,0.0,-42.6203498840332,0.6147218346595764,-0.5471856594085693,0.0,0.0,0.0,0.0,0.0,0.0,0.0,0.0,0.0,0.012510792352259159,-0.009392333216965199,0.09065961837768555,0.0,0.0,0.0,0.0,0.0,0.0,0.0,0.0,0.0
1606990543678790963,3677943,1606986942933712842,imu_link,-0.0025013263802975416,0.006732144858688116,-0.36338481307029724,0.9316114187240601,0.0,0.0,0.0,0.0,0.0,0.0,0.0,0.0,0.0,-42.620513916015625,0.6145433187484741,-0.5474005937576294,0.0,0.0,0.0,0.0,0.0,0.0,0.0,0.0,0.0,-0.010968348011374474,0.0062875584699213505,0.0672387108206749,0.0,0.0,0.0,0.0,0.0,0.0,0.0,0.0,0.0
1606990543678811082,3677944,1606986942933856314,imu_link,-0.0025013263802975416,0.006732144858688116,-0.36338481307029724,0.9316114187240601,0.0,0.0,0.0,0.0,0.0,0.0,0.0,0.0,0.0,-42.620513916015625,0.6145433187484741,-0.5474005937576294,0.0,0.0,0.0,0.0,0.0,0.0,0.0,0.0,0.0,-0.010968348011374474,0.0062875584699213505,0.0672387108206749,0.0,0.0,0.0,0.0,0.0,0.0,0.0,0.0,0.0
1606990543678824529,3677945,1606986942933990962,imu_link,-0.0025039403699338436,0.006729384884238243,-0.3633835017681122,0.9316120147705078,0.0,0.0,0.0,0.0,0.0,0.0,0.0,0.0,0.0,-42.6203498840332,0.6141405701637268,-0.5475636720657349,0.0,0.0,0.0,0.0,0.0,0.0,0.0,0.0,0.0,-0.011900996789336205,0.021195122972130775,0.04016396775841713,0.0,0.0,0.0,0.0,0.0,0.0,0.0,0.0,0.0
1606990543678841312,3677946,1606986942934110743,imu_link,-0.0025039403699338436,0.006729384884238243,-0.3633835017681122,0.9316120147705078,0.0,0.0,0.0,0.0,0.0,0.0,0.0,0.0,0.0,-42.6203498840332,0.6141405701637268,-0.5475636720657349,0.0,0.0,0.0,0.0,0.0,0.0,0.0,0.0,0.0,-0.011900996789336205,0.021195122972130775,0.04016396775841713,0.0,0.0,0.0,0.0,0.0,0.0,0.0,0.0,0.0
1606990543813582171,3677947,1606986942934219640,imu_link,-0.002504149917513132,0.006730778142809868,-0.3633856773376465,0.9316111207008362,0.0,0.0,0.0,0.0,0.0,0.0,0.0,0.0,0.0,-42.62062454223633,0.6142792701721191,-0.5476455688476562,0.0,0.0,0.0,0.0,0.0,0.0,0.0,0.0,0.0,0.0005758761544711888,0.02171006239950657,0.0201322790235281,0.0,0.0,0.0,0.0,0.0,0.0,0.0,0.0,0.0
1606990543813720534,3677948,1606986942934327745,imu_link,-0.002504149917513132,0.006730778142809868,-0.3633856773376465,0.9316111207008362,0.0,0.0,0.0,0.0,0.0,0.0,0.0,0.0,0.0,-42.62062454223633,0.6142792701721191,-0.5476455688476562,0.0,0.0,0.0,0.0,0.0,0.0,0.0,0.0,0.0,0.0005758761544711888,0.02171006239950657,0.0201322790235281,0.0,0.0,0.0,0.0,0.0,0.0,0.0,0.0,0.0
1606990543813777970,3677949,1606986942934437475,imu_link,-0.002508328529074788,0.00673410901799798,-0.3633861839771271,0.9316108822822571,0.0,0.0,0.0,0.0,0.0,0.0,0.0,0.0,0.0,-42.62069320678711,0.6144605278968811,-0.548230767250061,0.0,0.0,0.0,0.0,0.0,0.0,0.0,0.0,0.0,-0.010509672574698925,0.0031998371705412865,0.028601661324501038,0.0,0.0,0.0,0.0,0.0,0.0,0.0,0.0,0.0
1606990543813829141,3677950,1606986942946119430,imu_link,-0.002508328529074788,0.00673410901799798,-0.3633861839771271,0.9316108822822571,0.0,0.0,0.0,0.0,0.0,0.0,0.0,0.0,0.0,-42.62069320678711,0.6144605278968811,-0.548230767250061,0.0,0.0,0.0,0.0,0.0,0.0,0.0,0.0,0.0,-0.010509672574698925,0.0031998371705412865,0.028601661324501038,0.0,0.0,0.0,0.0,0.0,0.0,0.0,0.0,0.0
1606990543813851944,3677951,1606986942946309104,imu_link,-0.002508991863578558,0.006734734401106834,-0.36338740587234497,0.9316104650497437,0.0,0.0,0.0,0.0,0.0,0.0,0.0,0.0,0.0,-42.62083435058594,0.614499032497406,-0.5483283996582031,0.0,0.0,0.0,0.0,0.0,0.0,0.0,0.0,0.0,-0.015526218339800835,-0.023927856236696243,0.047579243779182434,0.0,0.0,0.0,0.0,0.0,0.0,0.0,0.0,0.0
1606990543822461225,3677952,1606986942946494824,imu_link,-0.002508991863578558,0.006734734401106834,-0.36338740587234497,0.9316104650497437,0.0,0.0,0.0,0.0,0.0,0.0,0.0,0.0,0.0,-42.62083435058594,0.614499032497406,-0.5483283996582031,0.0,0.0,0.0,0.0,0.0,0.0,0.0,0.0,0.0,-0.015526218339800835,-0.023927856236696243,0.047579243779182434,0.0,0.0,0.0,0.0,0.0,0.0,0.0,0.0,0.0
1606990543822504088,3677953,1606986942946654198,imu_link,-0.0025065424852073193,0.00673051830381155,-0.36338651180267334,0.9316108226776123,0.0,0.0,0.0,0.0,0.0,0.0,0.0,0.0,0.0,-42.6207275390625,0.6141514182090759,-0.5478907227516174,0.0,0.0,0.0,0.0,0.0,0.0,0.0,0.0,0.0,0.002516246633604169,-0.025413203984498978,0.04571764916181564,0.0,0.0,0.0,0.0,0.0,0.0,0.0,0.0,0.0
1606990543822556019,3677954,1606986942946809196,imu_link,-0.0025065424852073193,0.00673051830381155,-0.36338651180267334,0.9316108226776123,0.0,0.0,0.0,0.0,0.0,0.0,0.0,0.0,0.0,-42.6207275390625,0.6141514182090759,-0.5478907227516174,0.0,0.0,0.0,0.0,0.0,0.0,0.0,0.0,0.0,0.002516246633604169,-0.025413203984498978,0.04571764916181564,0.0,0.0,0.0,0.0,0.0,0.0,0.0,0.0,0.0
1606990543822629731,3677955,1606986942947034894,imu_link,-0.002505130833014846,0.006729451008141041,-0.36338701844215393,0.931610643863678,0.0,0.0,0.0,0.0,0.0,0.0,0.0,0.0,0.0,-42.62078094482422,0.6140959858894348,-0.5476958751678467,0.0,0.0,0.0,0.0,0.0,0.0,0.0,0.0,0.0,0.02205757424235344,-0.024580786004662514,0.06208443641662598,0.0,0.0,0.0,0.0,0.0,0.0,0.0,0.0,0.0
1606990543846490907,3677956,1606986942947191631,imu_link,-0.002505130833014846,0.006729451008141041,-0.36338701844215393,0.931610643863678,0.0,0.0,0.0,0.0,0.0,0.0,0.0,0.0,0.0,-42.62078094482422,0.6140959858894348,-0.5476958751678467,0.0,0.0,0.0,0.0,0.0,0.0,0.0,0.0,0.0,0.02205757424235344,-0.024580786004662514,0.06208443641662598,0.0,0.0,0.0,0.0,0.0,0.0,0.0,0.0,0.0
1606990543846544969,3677957,1606986942947333419,imu_link,-0.002499158028513193,0.006732344627380371,-0.3633899688720703,0.9316095113754272,0.0,0.0,0.0,0.0,0.0,0.0,0.0,0.0,0.0,-42.621150970458984,0.6146519184112549,-0.547180712223053,0.0,0.0,0.0,0.0,0.0,0.0,0.0,0.0,0.0,0.010474157519638538,-0.019835148006677628,0.04246120527386665,0.0,0.0,0.0,0.0,0.0,0.0,0.0,0.0,0.0
1606990543846569176,3677958,1606986942947472516,imu_link,-0.002499158028513193,0.006732344627380371,-0.3633899688720703,0.9316095113754272,0.0,0.0,0.0,0.0,0.0,0.0,0.0,0.0,0.0,-42.621150970458984,0.6146519184112549,-0.547180712223053,0.0,0.0,0.0,0.0,0.0,0.0,0.0,0.0,0.0,0.010474157519638538,-0.019835148006677628,0.04246120527386665,0.0,0.0,0.0,0.0,0.0,0.0,0.0,0.0,0.0
1606990543846583570,3677959,1606986942947607860,imu_link,-0.0025006441865116358,0.006733468733727932,-0.363391250371933,0.9316089749336243,0.0,0.0,0.0,0.0,0.0,0.0,0.0,0.0,0.0,-42.621307373046875,0.6147092580795288,-0.5473870635032654,0.0,0.0,0.0,0.0,0.0,0.0,0.0,0.0,0.0,-0.009147443808615208,-0.01241771224886179,0.021401425823569298,0.0,0.0,0.0,0.0,0.0,0.0,0.0,0.0,0.0
1606990543846624952,3677960,1606986942959969087,imu_link,-0.0025006441865116358,0.006733468733727932,-0.363391250371933,0.9316089749336243,0.0,0.0,0.0,0.0,0.0,0.0,0.0,0.0,0.0,-42.621307373046875,0.6147092580795288,-0.5473870635032654,0.0,0.0,0.0,0.0,0.0,0.0,0.0,0.0,0.0,-0.009147443808615208,-0.01241771224886179,0.021401425823569298,0.0,0.0,0.0,0.0,0.0,0.0,0.0,0.0,0.0
1606990543864806472,3677961,1606986942960160139,imu_link,-0.002496822737157345,0.006731185130774975,-0.36339184641838074,0.9316087961196899,0.0,0.0,0.0,0.0,0.0,0.0,0.0,0.0,0.0,-42.621376037597656,0.6146243214607239,-0.5468843579292297,0.0,0.0,0.0,0.0,0.0,0.0,0.0,0.0,0.0,-0.010325470939278603,-0.017110630869865417,0.04202954098582268,0.0,0.0,0.0,0.0,0.0,0.0,0.0,0.0,0.0
1606990543864847558,3677962,1606986942960351046,imu_link,-0.002496822737157345,0.006731185130774975,-0.36339184641838074,0.9316087961196899,0.0,0.0,0.0,0.0,0.0,0.0,0.0,0.0,0.0,-42.621376037597656,0.6146243214607239,-0.5468843579292297,0.0,0.0,0.0,0.0,0.0,0.0,0.0,0.0,0.0,-0.010325470939278603,-0.017110630869865417,0.04202954098582268,0.0,0.0,0.0,0.0,0.0,0.0,0.0,0.0,0.0
1606990543864865676,3677963,1606986942960516414,imu_link,-0.0024957074783742428,0.006728757172822952,-0.3633922338485718,0.9316086173057556,0.0,0.0,0.0,0.0,0.0,0.0,0.0,0.0,0.0,-42.621421813964844,0.6144113540649414,-0.5466644167900085,0.0,0.0,0.0,0.0,0.0,0.0,0.0,0.0,0.0,-0.012150753289461136,-0.00967872329056263,0.04821468144655228,0.0,0.0,0.0,0.0,0.0,0.0,0.0,0.0,0.0
1606990543864947075,3677964,1606986942960669473,imu_link,-0.0024957074783742428,0.006728757172822952,-0.3633922338485718,0.9316086173057556,0.0,0.0,0.0,0.0,0.0,0.0,0.0,0.0,0.0,-42.621421813964844,0.6144113540649414,-0.5466644167900085,0.0,0.0,0.0,0.0,0.0,0.0,0.0,0.0,0.0,-0.012150753289461136,-0.00967872329056263,0.04821468144655228,0.0,0.0,0.0,0.0,0.0,0.0,0.0,0.0,0.0
1606990543991322569,3677965,1606986942960820162,imu_link,-0.002496052999049425,0.006725413259118795,-0.3633941113948822,0.9316079020500183,0.0,0.0,0.0,0.0,0.0,0.0,0.0,0.0,0.0,-42.621646881103516,0.6140387654304504,-0.5465632081031799,0.0,0.0,0.0,0.0,0.0,0.0,0.0,0.0,0.0,0.0004921625950373709,-0.002415228635072708,0.059872470796108246,0.0,0.0,0.0,0.0,0.0,0.0,0.0,0.0,0.0
1606990543991371193,3677966,1606986942960984728,imu_link,-0.002496052999049425,0.006725413259118795,-0.3633941113948822,0.9316079020500183,0.0,0.0,0.0,0.0,0.0,0.0,0.0,0.0,0.0,-42.621646881103516,0.6140387654304504,-0.5465632081031799,0.0,0.0,0.0,0.0,0.0,0.0,0.0,0.0,0.0,0.0004921625950373709,-0.002415228635072708,0.059872470796108246,0.0,0.0,0.0,0.0,0.0,0.0,0.0,0.0,0.0
1606990543991400308,3677967,1606986942961126792,imu_link,-0.002495722146704793,0.006725806277245283,-0.3633940815925598,0.9316079020500183,0.0,0.0,0.0,0.0,0.0,0.0,0.0,0.0,0.0,-42.62164306640625,0.6140945553779602,-0.5465443134307861,0.0,0.0,0.0,0.0,0.0,0.0,0.0,0.0,0.0,-0.00725169200450182,-0.018465982750058174,0.052278000861406326,0.0,0.0,0.0,0.0,0.0,0.0,0.0,0.0,0.0
1606990543991414609,3677968,1606986942961265878,imu_link,-0.002495722146704793,0.006725806277245283,-0.3633940815925598,0.9316079020500183,0.0,0.0,0.0,0.0,0.0,0.0,0.0,0.0,0.0,-42.62164306640625,0.6140945553779602,-0.5465443134307861,0.0,0.0,0.0,0.0,0.0,0.0,0.0,0.0,0.0,-0.00725169200450182,-0.018465982750058174,0.052278000861406326,0.0,0.0,0.0,0.0,0.0,0.0,0.0,0.0,0.0
1606990543991431552,3677969,1606986942961399117,imu_link,-0.002490917919203639,0.006724894046783447,-0.3633946478366852,0.931607723236084,0.0,0.0,0.0,0.0,0.0,0.0,0.0,0.0,0.0,-42.6217155456543,0.6141968965530396,-0.5459936857223511,0.0,0.0,0.0,0.0,0.0,0.0,0.0,0.0,0.0,-0.01579246111214161,-0.03774842619895935,0.04655585065484047,0.0,0.0,0.0,0.0,0.0,0.0,0.0,0.0,0.0
1606990544006087459,3677970,1606986942961534826,imu_link,-0.002490917919203639,0.006724894046783447,-0.3633946478366852,0.931607723236084,0.0,0.0,0.0,0.0,0.0,0.0,0.0,0.0,0.0,-42.6217155456543,0.6141968965530396,-0.5459936857223511,0.0,0.0,0.0,0.0,0.0,0.0,0.0,0.0,0.0,-0.01579246111214161,-0.03774842619895935,0.04655585065484047,0.0,0.0,0.0,0.0,0.0,0.0,0.0,0.0,0.0
1606990544006131353,3677971,1606986942973372893,imu_link,-0.002491122344508767,0.006726597435772419,-0.36339500546455383,0.9316075444221497,0.0,0.0,0.0,0.0,0.0,0.0,0.0,0.0,0.0,-42.62175750732422,0.6143700480461121,-0.5460867881774902,0.0,0.0,0.0,0.0,0.0,0.0,0.0,0.0,0.0,-0.012500524520874023,-0.024445775896310806,0.06584002077579498,0.0,0.0,0.0,0.0,0.0,0.0,0.0,0.0,0.0
1606990544006159269,3677972,1606986942973559394,imu_link,-0.002491122344508767,0.006726597435772419,-0.36339500546455383,0.9316075444221497,0.0,0.0,0.0,0.0,0.0,0.0,0.0,0.0,0.0,-42.62175750732422,0.6143700480461121,-0.5460867881774902,0.0,0.0,0.0,0.0,0.0,0.0,0.0,0.0,0.0,-0.012500524520874023,-0.024445775896310806,0.06584002077579498,0.0,0.0,0.0,0.0,0.0,0.0,0.0,0.0,0.0
1606990544006210359,3677973,1606986942973726802,imu_link,-0.0024869993794709444,0.006722086109220982,-0.36339473724365234,0.931607723236084,0.0,0.0,0.0,0.0,0.0,0.0,0.0,0.0,0.0,-42.6217155456543,0.6140603423118591,-0.5454584956169128,0.0,0.0,0.0,0.0,0.0,0.0,0.0,0.0,0.0,-0.017446985468268394,0.0028648716397583485,0.053393635898828506,0.0,0.0,0.0,0.0,0.0,0.0,0.0,0.0,0.0
1606990544017199341,3677974,1606986942973879580,imu_link,-0.0024869993794709444,0.006722086109220982,-0.36339473724365234,0.931607723236084,0.0,0.0,0.0,0.0,0.0,0.0,0.0,0.0,0.0,-42.6217155456543,0.6140603423118591,-0.5454584956169128,0.0,0.0,0.0,0.0,0.0,0.0,0.0,0.0,0.0,-0.017446985468268394,0.0028648716397583485,0.053393635898828506,0.0,0.0,0.0,0.0,0.0,0.0,0.0,0.0,0.0
1606990544017263276,3677975,1606986942974029091,imu_link,-0.002486479701474309,0.006720894481986761,-0.36339640617370605,0.9316070675849915,0.0,0.0,0.0,0.0,0.0,0.0,0.0,0.0,0.0,-42.621925354003906,0.613953709602356,-0.545354425907135,0.0,0.0,0.0,0.0,0.0,0.0,0.0,0.0,0.0,-0.007545479107648134,0.009641189128160477,0.05434541031718254,0.0,0.0,0.0,0.0,0.0,0.0,0.0,0.0,0.0
1606990544017289189,3677976,1606986942974182466,imu_link,-0.002486479701474309,0.006720894481986761,-0.36339640617370605,0.9316070675849915,0.0,0.0,0.0,0.0,0.0,0.0,0.0,0.0,0.0,-42.621925354003906,0.613953709602356,-0.545354425907135,0.0,0.0,0.0,0.0,0.0,0.0,0.0,0.0,0.0,-0.007545479107648134,0.009641189128160477,0.05434541031718254,0.0,0.0,0.0,0.0,0.0,0.0,0.0,0.0,0.0
1606990544017312883,3677977,1606986942974347473,imu_link,-0.002491318853572011,0.0067192246206104755,-0.3633991777896881,0.9316059947013855,0.0,0.0,0.0,0.0,0.0,0.0,0.0,0.0,0.0,-42.62226486206055,0.613572359085083,-0.5458033680915833,0.0,0.0,0.0,0.0,0.0,0.0,0.0,0.0,0.0,-0.0006073876284062862,-0.013018348254263401,0.06457243114709854,0.0,0.0,0.0,0.0,0.0,0.0,0.0,0.0,0.0
1606990544017330849,3677978,1606986942974491451,imu_link,-0.002491318853572011,0.0067192246206104755,-0.3633991777896881,0.9316059947013855,0.0,0.0,0.0,0.0,0.0,0.0,0.0,0.0,0.0,-42.62226486206055,0.613572359085083,-0.5458033680915833,0.0,0.0,0.0,0.0,0.0,0.0,0.0,0.0,0.0,-0.0006073876284062862,-0.013018348254263401,0.06457243114709854,0.0,0.0,0.0,0.0,0.0,0.0,0.0,0.0,0.0
1606990544026395727,3677979,1606986942974628514,imu_link,-0.0024890445638448,0.006720718462020159,-0.3633982837200165,0.9316063523292542,0.0,0.0,0.0,0.0,0.0,0.0,0.0,0.0,0.0,-42.622154235839844,0.613827109336853,-0.5456222295761108,0.0,0.0,0.0,0.0,0.0,0.0,0.0,0.0,0.0,0.0017476737266406417,-0.029254842549562454,0.05255527049303055,0.0,0.0,0.0,0.0,0.0,0.0,0.0,0.0,0.0
1606990544026438519,3677980,1606986942974763636,imu_link,-0.0024890445638448,0.006720718462020159,-0.3633982837200165,0.9316063523292542,0.0,0.0,0.0,0.0,0.0,0.0,0.0,0.0,0.0,-42.622154235839844,0.613827109336853,-0.5456222295761108,0.0,0.0,0.0,0.0,0.0,0.0,0.0,0.0,0.0,0.0017476737266406417,-0.029254842549562454,0.05255527049303055,0.0,0.0,0.0,0.0,0.0,0.0,0.0,0.0,0.0
1606990544026458743,3677981,1606986942974904362,imu_link,-0.0024835187941789627,0.0067204865626990795,-0.36339831352233887,0.9316063523292542,0.0,0.0,0.0,0.0,0.0,0.0,0.0,0.0,0.0,-42.622154235839844,0.6140324473381042,-0.5450226068496704,0.0,0.0,0.0,0.0,0.0,0.0,0.0,0.0,0.0,-0.00046578748151659966,-0.003465284826233983,0.058991968631744385,0.0,0.0,0.0,0.0,0.0,0.0,0.0,0.0,0.0
1606990544026502097,3677982,1606986942987084959,imu_link,-0.0024835187941789627,0.0067204865626990795,-0.36339831352233887,0.9316063523292542,0.0,0.0,0.0,0.0,0.0,0.0,0.0,0.0,0.0,-42.622154235839844,0.6140324473381042,-0.5450226068496704,0.0,0.0,0.0,0.0,0.0,0.0,0.0,0.0,0.0,-0.00046578748151659966,-0.003465284826233983,0.058991968631744385,0.0,0.0,0.0,0.0,0.0,0.0,0.0,0.0,0.0
1606990544101877332,3677983,1606986942987226269,imu_link,-0.002484007040038705,0.00672066630795598,-0.36340004205703735,0.9316056966781616,0.0,0.0,0.0,0.0,0.0,0.0,0.0,0.0,0.0,-42.62236404418945,0.6140303015708923,-0.5450834035873413,0.0,0.0,0.0,0.0,0.0,0.0,0.0,0.0,0.0,-0.0010460825869813561,0.01865190453827381,0.06213759630918503,0.0,0.0,0.0,0.0,0.0,0.0,0.0,0.0,0.0
1606990544101901964,3677984,1606986942987360325,imu_link,-0.002484007040038705,0.00672066630795598,-0.36340004205703735,0.9316056966781616,0.0,0.0,0.0,0.0,0.0,0.0,0.0,0.0,0.0,-42.62236404418945,0.6140303015708923,-0.5450834035873413,0.0,0.0,0.0,0.0,0.0,0.0,0.0,0.0,0.0,-0.0010460825869813561,0.01865190453827381,0.06213759630918503,0.0,0.0,0.0,0.0,0.0,0.0,0.0,0.0,0.0
1606990544101910307,3677985,1606986942987486893,imu_link,-0.0024887090548872948,0.0067224022932350636,-0.3634006381034851,0.931605339050293,0.0,0.0,0.0,0.0,0.0,0.0,0.0,0.0,0.0,-42.6224479675293,0.6140193343162537,-0.5456581711769104,0.0,0.0,0.0,0.0,0.0,0.0,0.0,0.0,0.0,0.0021449713967740536,0.010288972407579422,0.07298918068408966,0.0,0.0,0.0,0.0,0.0,0.0,0.0,0.0,0.0
1606990544101919878,3677986,1606986942987611987,imu_link,-0.0024887090548872948,0.0067224022932350636,-0.3634006381034851,0.931605339050293,0.0,0.0,0.0,0.0,0.0,0.0,0.0,0.0,0.0,-42.6224479675293,0.6140193343162537,-0.5456581711769104,0.0,0.0,0.0,0.0,0.0,0.0,0.0,0.0,0.0,0.0021449713967740536,0.010288972407579422,0.07298918068408966,0.0,0.0,0.0,0.0,0.0,0.0,0.0,0.0,0.0
1606990544101937607,3677987,1606986942987735443,imu_link,-0.0024904171004891396,0.006721172481775284,-0.3634031116962433,0.9316045045852661,0.0,0.0,0.0,0.0,0.0,0.0,0.0,0.0,0.0,-42.62274932861328,0.6138155460357666,-0.5457907915115356,0.0,0.0,0.0,0.0,0.0,0.0,0.0,0.0,0.0,0.002961752936244011,0.006539343856275082,0.058174002915620804,0.0,0.0,0.0,0.0,0.0,0.0,0.0,0.0,0.0
1606990544121705433,3677988,1606986942987869486,imu_link,-0.0024904171004891396,0.006721172481775284,-0.3634031116962433,0.9316045045852661,0.0,0.0,0.0,0.0,0.0,0.0,0.0,0.0,0.0,-42.62274932861328,0.6138155460357666,-0.5457907915115356,0.0,0.0,0.0,0.0,0.0,0.0,0.0,0.0,0.0,0.002961752936244011,0.006539343856275082,0.058174002915620804,0.0,0.0,0.0,0.0,0.0,0.0,0.0,0.0,0.0
1606990544121733909,3677989,1606986942987990534,imu_link,-0.002490147715434432,0.006723209749907255,-0.36340218782424927,0.9316047430038452,0.0,0.0,0.0,0.0,0.0,0.0,0.0,0.0,0.0,-42.62263870239258,0.614044725894928,-0.5458464026451111,0.0,0.0,0.0,0.0,0.0,0.0,0.0,0.0,0.0,-0.014719615690410137,0.013910149224102497,0.03735882043838501,0.0,0.0,0.0,0.0,0.0,0.0,0.0,0.0,0.0
1606990544121743010,3677990,1606986942988109749,imu_link,-0.002490147715434432,0.006723209749907255,-0.36340218782424927,0.9316047430038452,0.0,0.0,0.0,0.0,0.0,0.0,0.0,0.0,0.0,-42.62263870239258,0.614044725894928,-0.5458464026451111,0.0,0.0,0.0,0.0,0.0,0.0,0.0,0.0,0.0,-0.014719615690410137,0.013910149224102497,0.03735882043838501,0.0,0.0,0.0,0.0,0.0,0.0,0.0,0.0,0.0
1606990544121751139,3677991,1606986942988231359,imu_link,-0.002490065060555935,0.006723893340677023,-0.3634011149406433,0.9316052794456482,0.0,0.0,0.0,0.0,0.0,0.0,0.0,0.0,0.0,-42.622501373291016,0.6141218543052673,-0.5458651781082153,0.0,0.0,0.0,0.0,0.0,0.0,0.0,0.0,0.0,-0.015904264524579048,0.007221528794616461,0.03648408129811287,0.0,0.0,0.0,0.0,0.0,0.0,0.0,0.0,0.0
1606990544162552207,3677992,1606986942988353022,imu_link,-0.002490065060555935,0.006723893340677023,-0.3634011149406433,0.9316052794456482,0.0,0.0,0.0,0.0,0.0,0.0,0.0,0.0,0.0,-42.622501373291016,0.6141218543052673,-0.5458651781082153,0.0,0.0,0.0,0.0,0.0,0.0,0.0,0.0,0.0,-0.015904264524579048,0.007221528794616461,0.03648408129811287,0.0,0.0,0.0,0.0,0.0,0.0,0.0,0.0,0.0
1606990544162571804,3677993,1606986943000620898,imu_link,-0.002491408959031105,0.006721211597323418,-0.36340153217315674,0.9316051006317139,0.0,0.0,0.0,0.0,0.0,0.0,0.0,0.0,0.0,-42.622554779052734,0.6137793064117432,-0.5458973050117493,0.0,0.0,0.0,0.0,0.0,0.0,0.0,0.0,0.0,-0.004841547925025225,-0.005172657314687967,0.020566141232848167,0.0,0.0,0.0,0.0,0.0,0.0,0.0,0.0,0.0
1606990544162582804,3677994,1606986943000795783,imu_link,-0.002491408959031105,0.006721211597323418,-0.36340153217315674,0.9316051006317139,0.0,0.0,0.0,0.0,0.0,0.0,0.0,0.0,0.0,-42.622554779052734,0.6137793064117432,-0.5458973050117493,0.0,0.0,0.0,0.0,0.0,0.0,0.0,0.0,0.0,-0.004841547925025225,-0.005172657314687967,0.020566141232848167,0.0,0.0,0.0,0.0,0.0,0.0,0.0,0.0,0.0
1606990544162599032,3677995,1606986943001006731,imu_link,-0.0024931689258664846,0.006721042562276125,-0.3634006381034851,0.9316054582595825,0.0,0.0,0.0,0.0,0.0,0.0,0.0,0.0,0.0,-42.622440338134766,0.613688588142395,-0.54607754945755,0.0,0.0,0.0,0.0,0.0,0.0,0.0,0.0,0.0,-0.007974660955369473,0.005982814822345972,0.029199957847595215,0.0,0.0,0.0,0.0,0.0,0.0,0.0,0.0,0.0
1606990544162610466,3677996,1606986943001150268,imu_link,-0.0024931689258664846,0.006721042562276125,-0.3634006381034851,0.9316054582595825,0.0,0.0,0.0,0.0,0.0,0.0,0.0,0.0,0.0,-42.622440338134766,0.613688588142395,-0.54607754945755,0.0,0.0,0.0,0.0,0.0,0.0,0.0,0.0,0.0,-0.007974660955369473,0.005982814822345972,0.029199957847595215,0.0,0.0,0.0,0.0,0.0,0.0,0.0,0.0,0.0
1606990544182488773,3677997,1606986943001290833,imu_link,-0.0024961179587990046,0.006719742435961962,-0.36340096592903137,0.9316052794456482,0.0,0.0,0.0,0.0,0.0,0.0,0.0,0.0,0.0,-42.62248611450195,0.6134267449378967,-0.5463384985923767,0.0,0.0,0.0,0.0,0.0,0.0,0.0,0.0,0.0,0.008549366146326065,0.004202100448310375,0.04095783457159996,0.0,0.0,0.0,0.0,0.0,0.0,0.0,0.0,0.0
1606990544182505275,3677998,1606986943001453244,imu_link,-0.0024961179587990046,0.006719742435961962,-0.36340096592903137,0.9316052794456482,0.0,0.0,0.0,0.0,0.0,0.0,0.0,0.0,0.0,-42.62248611450195,0.6134267449378967,-0.5463384985923767,0.0,0.0,0.0,0.0,0.0,0.0,0.0,0.0,0.0,0.008549366146326065,0.004202100448310375,0.04095783457159996,0.0,0.0,0.0,0.0,0.0,0.0,0.0,0.0,0.0
1606990544182513915,3677999,1606986943001594471,imu_link,-0.0024947416968643665,0.006720219273120165,-0.36340147256851196,0.9316051006317139,0.0,0.0,0.0,0.0,0.0,0.0,0.0,0.0,0.0,-42.62255096435547,0.613534688949585,-0.5462117195129395,0.0,0.0,0.0,0.0,0.0,0.0,0.0,0.0,0.0,0.008966677822172642,-0.016607651486992836,0.05322973430156708,0.0,0.0,0.0,0.0,0.0,0.0,0.0,0.0,0.0
1606990544182552965,3678000,1606986943001736585,imu_link,-0.0024947416968643665,0.006720219273120165,-0.36340147256851196,0.9316051006317139,0.0,0.0,0.0,0.0,0.0,0.0,0.0,0.0,0.0,-42.62255096435547,0.613534688949585,-0.5462117195129395,0.0,0.0,0.0,0.0,0.0,0.0,0.0,0.0,0.0,0.008966677822172642,-0.016607651486992836,0.05322973430156708,0.0,0.0,0.0,0.0,0.0,0.0,0.0,0.0,0.0
1606990544344959438,3678001,1606986943001873457,imu_link,-0.0024885982275009155,0.006719857919961214,-0.3634013831615448,0.9316051602363586,0.0,0.0,0.0,0.0,0.0,0.0,0.0,0.0,0.0,-42.622535705566406,0.613752007484436,-0.5455407500267029,0.0,0.0,0.0,0.0,0.0,0.0,0.0,0.0,0.0,-0.005768868140876293,-0.016664542257785797,0.042707860469818115,0.0,0.0,0.0,0.0,0.0,0.0,0.0,0.0,0.0
1606990544344999639,3678002,1606986943002010604,imu_link,-0.0024885982275009155,0.006719857919961214,-0.3634013831615448,0.9316051602363586,0.0,0.0,0.0,0.0,0.0,0.0,0.0,0.0,0.0,-42.622535705566406,0.613752007484436,-0.5455407500267029,0.0,0.0,0.0,0.0,0.0,0.0,0.0,0.0,0.0,-0.005768868140876293,-0.016664542257785797,0.042707860469818115,0.0,0.0,0.0,0.0,0.0,0.0,0.0,0.0,0.0
1606990544345041622,3678003,1606986943002145150,imu_link,-0.0024879577104002237,0.006720557808876038,-0.3634035587310791,0.9316043257713318,0.0,0.0,0.0,0.0,0.0,0.0,0.0,0.0,0.0,-42.622802734375,0.6138521432876587,-0.5455029606819153,0.0,0.0,0.0,0.0,0.0,0.0,0.0,0.0,0.0,-0.00215087435208261,-0.004372515249997377,0.028818413615226746,0.0,0.0,0.0,0.0,0.0,0.0,0.0,0.0,0.0
1606990544345082417,3678004,1606986943013453454,imu_link,-0.0024879577104002237,0.006720557808876038,-0.3634035587310791,0.9316043257713318,0.0,0.0,0.0,0.0,0.0,0.0,0.0,0.0,0.0,-42.622802734375,0.6138521432876587,-0.5455029606819153,0.0,0.0,0.0,0.0,0.0,0.0,0.0,0.0,0.0,-0.00215087435208261,-0.004372515249997377,0.028818413615226746,0.0,0.0,0.0,0.0,0.0,0.0,0.0,0.0,0.0
1606990544345105290,3678005,1606986943013533494,imu_link,-0.002486719284206629,0.006720445584505796,-0.36340439319610596,0.9316039085388184,0.0,0.0,0.0,0.0,0.0,0.0,0.0,0.0,0.0,-42.62290954589844,0.6138911247253418,-0.545366644859314,0.0,0.0,0.0,0.0,0.0,0.0,0.0,0.0,0.0,0.008335939608514309,0.002853704383596778,0.039888788014650345,0.0,0.0,0.0,0.0,0.0,0.0,0.0,0.0,0.0
1606990544359195624,3678006,1606986943013593256,imu_link,-0.002486719284206629,0.006720445584505796,-0.36340439319610596,0.9316039085388184,0.0,0.0,0.0,0.0,0.0,0.0,0.0,0.0,0.0,-42.62290954589844,0.6138911247253418,-0.545366644859314,0.0,0.0,0.0,0.0,0.0,0.0,0.0,0.0,0.0,0.008335939608514309,0.002853704383596778,0.039888788014650345,0.0,0.0,0.0,0.0,0.0,0.0,0.0,0.0,0.0
1606990544359251950,3678007,1606986943013658504,imu_link,-0.0024866682942956686,0.006719874683767557,-0.3634044826030731,0.9316039681434631,0.0,0.0,0.0,0.0,0.0,0.0,0.0,0.0,0.0,-42.6229133605957,0.6138322949409485,-0.5453373789787292,0.0,0.0,0.0,0.0,0.0,0.0,0.0,0.0,0.0,0.015080039389431477,-0.008491220884025097,0.03851300850510597,0.0,0.0,0.0,0.0,0.0,0.0,0.0,0.0,0.0
1606990544359280949,3678008,1606986943013722455,imu_link,-0.0024866682942956686,0.006719874683767557,-0.3634044826030731,0.9316039681434631,0.0,0.0,0.0,0.0,0.0,0.0,0.0,0.0,0.0,-42.6229133605957,0.6138322949409485,-0.5453373789787292,0.0,0.0,0.0,0.0,0.0,0.0,0.0,0.0,0.0,0.015080039389431477,-0.008491220884025097,0.03851300850510597,0.0,0.0,0.0,0.0,0.0,0.0,0.0,0.0,0.0
1606990544359335311,3678009,1606986943013793469,imu_link,-0.002480578375980258,0.006723870523273945,-0.363406777381897,0.9316030740737915,0.0,0.0,0.0,0.0,0.0,0.0,0.0,0.0,0.0,-42.62319564819336,0.6145111918449402,-0.5448551774024963,0.0,0.0,0.0,0.0,0.0,0.0,0.0,0.0,0.0,0.003855754155665636,-0.020786777138710022,0.03435212001204491,0.0,0.0,0.0,0.0,0.0,0.0,0.0,0.0,0.0
1606990544389925014,3678010,1606986943013856983,imu_link,-0.002480578375980258,0.006723870523273945,-0.363406777381897,0.9316030740737915,0.0,0.0,0.0,0.0,0.0,0.0,0.0,0.0,0.0,-42.62319564819336,0.6145111918449402,-0.5448551774024963,0.0,0.0,0.0,0.0,0.0,0.0,0.0,0.0,0.0,0.003855754155665636,-0.020786777138710022,0.03435212001204491,0.0,0.0,0.0,0.0,0.0,0.0,0.0,0.0,0.0
1606990544389989190,3678011,1606986943013919413,imu_link,-0.002480609342455864,0.00672449916601181,-0.3634073734283447,0.9316027164459229,0.0,0.0,0.0,0.0,0.0,0.0,0.0,0.0,0.0,-42.62327575683594,0.6145765781402588,-0.5448852181434631,0.0,0.0,0.0,0.0,0.0,0.0,0.0,0.0,0.0,-0.013006938621401787,-0.008306925185024738,0.049620840698480606,0.0,0.0,0.0,0.0,0.0,0.0,0.0,0.0,0.0
1606990544390019264,3678012,1606986943013981268,imu_link,-0.002480609342455864,0.00672449916601181,-0.3634073734283447,0.9316027164459229,0.0,0.0,0.0,0.0,0.0,0.0,0.0,0.0,0.0,-42.62327575683594,0.6145765781402588,-0.5448852181434631,0.0,0.0,0.0,0.0,0.0,0.0,0.0,0.0,0.0,-0.013006938621401787,-0.008306925185024738,0.049620840698480606,0.0,0.0,0.0,0.0,0.0,0.0,0.0,0.0,0.0
1606990544390036945,3678013,1606986943014041415,imu_link,-0.0024795469362288713,0.00672046048566699,-0.3634091913700104,0.9316020607948303,0.0,0.0,0.0,0.0,0.0,0.0,0.0,0.0,0.0,-42.62349319458008,0.6141886711120605,-0.5446047186851501,0.0,0.0,0.0,0.0,0.0,0.0,0.0,0.0,0.0,-0.002447499893605709,0.0033750105649232864,0.045767832547426224,0.0,0.0,0.0,0.0,0.0,0.0,0.0,0.0,0.0
1606990544397324275,3678014,1606986943027239172,imu_link,-0.0024795469362288713,0.00672046048566699,-0.3634091913700104,0.9316020607948303,0.0,0.0,0.0,0.0,0.0,0.0,0.0,0.0,0.0,-42.62349319458008,0.6141886711120605,-0.5446047186851501,0.0,0.0,0.0,0.0,0.0,0.0,0.0,0.0,0.0,-0.002447499893605709,0.0033750105649232864,0.045767832547426224,0.0,0.0,0.0,0.0,0.0,0.0,0.0,0.0,0.0
1606990544397381536,3678015,1606986943027348668,imu_link,-0.00247910525649786,0.006721835117787123,-0.3634096682071686,0.931601881980896,0.0,0.0,0.0,0.0,0.0,0.0,0.0,0.0,0.0,-42.62355422973633,0.6143535375595093,-0.5446152091026306,0.0,0.0,0.0,0.0,0.0,0.0,0.0,0.0,0.0,-0.009502332657575607,0.0066251931712031364,0.04047732427716255,0.0,0.0,0.0,0.0,0.0,0.0,0.0,0.0,0.0
1606990544397403592,3678016,1606986943027450810,imu_link,-0.00247910525649786,0.006721835117787123,-0.3634096682071686,0.931601881980896,0.0,0.0,0.0,0.0,0.0,0.0,0.0,0.0,0.0,-42.62355422973633,0.6143535375595093,-0.5446152091026306,0.0,0.0,0.0,0.0,0.0,0.0,0.0,0.0,0.0,-0.009502332657575607,0.0066251931712031364,0.04047732427716255,0.0,0.0,0.0,0.0,0.0,0.0,0.0,0.0,0.0
1606990544397448427,3678017,1606986943027540383,imu_link,-0.002482178620994091,0.006723172031342983,-0.36340945959091187,0.9316019415855408,0.0,0.0,0.0,0.0,0.0,0.0,0.0,0.0,0.0,-42.623531341552734,0.6143683791160583,-0.544998824596405,0.0,0.0,0.0,0.0,0.0,0.0,0.0,0.0,0.0,-0.027565747499465942,0.007764480076730251,0.04359550401568413,0.0,0.0,0.0,0.0,0.0,0.0,0.0,0.0,0.0
1606990544397508384,3678018,1606986943027628361,imu_link,-0.002482178620994091,0.006723172031342983,-0.36340945959091187,0.9316019415855408,0.0,0.0,0.0,0.0,0.0,0.0,0.0,0.0,0.0,-42.623531341552734,0.6143683791160583,-0.544998824596405,0.0,0.0,0.0,0.0,0.0,0.0,0.0,0.0,0.0,-0.027565747499465942,0.007764480076730251,0.04359550401568413,0.0,0.0,0.0,0.0,0.0,0.0,0.0,0.0,0.0
1606990544477517983,3678019,1606986943027717161,imu_link,-0.0024815755896270275,0.006721985060721636,-0.3634124994277954,0.9316008687019348,0.0,0.0,0.0,0.0,0.0,0.0,0.0,0.0,0.0,-42.623897552490234,0.6142650842666626,-0.5448868870735168,0.0,0.0,0.0,0.0,0.0,0.0,0.0,0.0,0.0,-0.007951711304485798,-0.007054435554891825,0.038402948528528214,0.0,0.0,0.0,0.0,0.0,0.0,0.0,0.0,0.0
1606990544477555821,3678020,1606986943027816176,imu_link,-0.0024815755896270275,0.006721985060721636,-0.3634124994277954,0.9316008687019348,0.0,0.0,0.0,0.0,0.0,0.0,0.0,0.0,0.0,-42.623897552490234,0.6142650842666626,-0.5448868870735168,0.0,0.0,0.0,0.0,0.0,0.0,0.0,0.0,0.0,-0.007951711304485798,-0.007054435554891825,0.038402948528528214,0.0,0.0,0.0,0.0,0.0,0.0,0.0,0.0,0.0
1606990544477569556,3678021,1606986943027903753,imu_link,-0.002480576978996396,0.006720676086843014,-0.36341211199760437,0.9316009283065796,0.0,0.0,0.0,0.0,0.0,0.0,0.0,0.0,0.0,-42.62385559082031,0.6141670346260071,-0.5447255373001099,0.0,0.0,0.0,0.0,0.0,0.0,0.0,0.0,0.0,0.003466501832008362,-0.017764952033758163,0.04423583671450615,0.0,0.0,0.0,0.0,0.0,0.0,0.0,0.0,0.0
1606990544477587580,3678022,1606986943027987512,imu_link,-0.002480576978996396,0.006720676086843014,-0.36341211199760437,0.9316009283065796,0.0,0.0,0.0,0.0,0.0,0.0,0.0,0.0,0.0,-42.62385559082031,0.6141670346260071,-0.5447255373001099,0.0,0.0,0.0,0.0,0.0,0.0,0.0,0.0,0.0,0.003466501832008362,-0.017764952033758163,0.04423583671450615,0.0,0.0,0.0,0.0,0.0,0.0,0.0,0.0,0.0
1606990544525287129,3678023,1606986943028070146,imu_link,-0.0024806156288832426,0.006718838587403297,-0.36341583728790283,0.931599497795105,0.0,0.0,0.0,0.0,0.0,0.0,0.0,0.0,0.0,-42.62430953979492,0.6139671206474304,-0.5446556806564331,0.0,0.0,0.0,0.0,0.0,0.0,0.0,0.0,0.0,0.014626283198595047,-0.01578257791697979,0.0587676577270031,0.0,0.0,0.0,0.0,0.0,0.0,0.0,0.0,0.0
1606990544525333881,3678024,1606986943028155069,imu_link,-0.0024806156288832426,0.006718838587403297,-0.36341583728790283,0.931599497795105,0.0,0.0,0.0,0.0,0.0,0.0,0.0,0.0,0.0,-42.62430953979492,0.6139671206474304,-0.5446556806564331,0.0,0.0,0.0,0.0,0.0,0.0,0.0,0.0,0.0,0.014626283198595047,-0.01578257791697979,0.0587676577270031,0.0,0.0,0.0,0.0,0.0,0.0,0.0,0.0,0.0
1606990544525361035,3678025,1606986943040628101,imu_link,-0.0024760940577834845,0.00672027887776494,-0.363417387008667,0.9315989017486572,0.0,0.0,0.0,0.0,0.0,0.0,0.0,0.0,0.0,-42.62449645996094,0.6143083572387695,-0.5442338585853577,0.0,0.0,0.0,0.0,0.0,0.0,0.0,0.0,0.0,0.013765712268650532,-0.018095213919878006,0.06080253794789314,0.0,0.0,0.0,0.0,0.0,0.0,0.0,0.0,0.0
1606990544525382699,3678026,1606986943040744028,imu_link,-0.0024760940577834845,0.00672027887776494,-0.363417387008667,0.9315989017486572,0.0,0.0,0.0,0.0,0.0,0.0,0.0,0.0,0.0,-42.62449645996094,0.6143083572387695,-0.5442338585853577,0.0,0.0,0.0,0.0,0.0,0.0,0.0,0.0,0.0,0.013765712268650532,-0.018095213919878006,0.06080253794789314,0.0,0.0,0.0,0.0,0.0,0.0,0.0,0.0,0.0
1606990544525480487,3678027,1606986943040849137,imu_link,-0.0024764726404100657,0.006720741745084524,-0.3634166419506073,0.9315991997718811,0.0,0.0,0.0,0.0,0.0,0.0,0.0,0.0,0.0,-42.62440490722656,0.6143423914909363,-0.5442931056022644,0.0,0.0,0.0,0.0,0.0,0.0,0.0,0.0,0.0,0.0051149604842066765,-0.023535991087555885,0.04742163047194481,0.0,0.0,0.0,0.0,0.0,0.0,0.0,0.0,0.0
1606990544534173782,3678028,1606986943040952437,imu_link,-0.0024764726404100657,0.006720741745084524,-0.3634166419506073,0.9315991997718811,0.0,0.0,0.0,0.0,0.0,0.0,0.0,0.0,0.0,-42.62440490722656,0.6143423914909363,-0.5442931056022644,0.0,0.0,0.0,0.0,0.0,0.0,0.0,0.0,0.0,0.0051149604842066765,-0.023535991087555885,0.04742163047194481,0.0,0.0,0.0,0.0,0.0,0.0,0.0,0.0,0.0
1606990544534236657,3678029,1606986943041055086,imu_link,-0.0024688427802175283,0.006718957331031561,-0.3634175658226013,0.9315989017486572,0.0,0.0,0.0,0.0,0.0,0.0,0.0,0.0,0.0,-42.624515533447266,0.6144691705703735,-0.5434048175811768,0.0,0.0,0.0,0.0,0.0,0.0,0.0,0.0,0.0,0.004469261504709721,-0.02040848881006241,0.04725779965519905,0.0,0.0,0.0,0.0,0.0,0.0,0.0,0.0,0.0
1606990544534259908,3678030,1606986943041157888,imu_link,-0.0024688427802175283,0.006718957331031561,-0.3634175658226013,0.9315989017486572,0.0,0.0,0.0,0.0,0.0,0.0,0.0,0.0,0.0,-42.624515533447266,0.6144691705703735,-0.5434048175811768,0.0,0.0,0.0,0.0,0.0,0.0,0.0,0.0,0.0,0.004469261504709721,-0.02040848881006241,0.04725779965519905,0.0,0.0,0.0,0.0,0.0,0.0,0.0,0.0,0.0
1606990544534273521,3678031,1606986943041269429,imu_link,-0.0024679170455783606,0.006719967350363731,-0.36341747641563416,0.9315989017486572,0.0,0.0,0.0,0.0,0.0,0.0,0.0,0.0,0.0,-42.62450408935547,0.6146155595779419,-0.5433480143547058,0.0,0.0,0.0,0.0,0.0,0.0,0.0,0.0,0.0,-0.0020916226785629988,-0.003502174746245146,0.037948351353406906,0.0,0.0,0.0,0.0,0.0,0.0,0.0,0.0,0.0
1606990544548605065,3678032,1606986943041371039,imu_link,-0.0024679170455783606,0.006719967350363731,-0.36341747641563416,0.9315989017486572,0.0,0.0,0.0,0.0,0.0,0.0,0.0,0.0,0.0,-42.62450408935547,0.6146155595779419,-0.5433480143547058,0.0,0.0,0.0,0.0,0.0,0.0,0.0,0.0,0.0,-0.0020916226785629988,-0.003502174746245146,0.037948351353406906,0.0,0.0,0.0,0.0,0.0,0.0,0.0,0.0,0.0
1606990544548675534,3678033,1606986943041470921,imu_link,-0.0024687873665243387,0.006722071673721075,-0.36341795325279236,0.9315987229347229,0.0,0.0,0.0,0.0,0.0,0.0,0.0,0.0,0.0,-42.62456512451172,0.6148037314414978,-0.5435288548469543,0.0,0.0,0.0,0.0,0.0,0.0,0.0,0.0,0.0,0.010222285985946655,0.005376340821385384,0.025795236229896545,0.0,0.0,0.0,0.0,0.0,0.0,0.0,0.0,0.0
1606990544548702680,3678034,1606986943041568572,imu_link,-0.0024687873665243387,0.006722071673721075,-0.36341795325279236,0.9315987229347229,0.0,0.0,0.0,0.0,0.0,0.0,0.0,0.0,0.0,-42.62456512451172,0.6148037314414978,-0.5435288548469543,0.0,0.0,0.0,0.0,0.0,0.0,0.0,0.0,0.0,0.010222285985946655,0.005376340821385384,0.025795236229896545,0.0,0.0,0.0,0.0,0.0,0.0,0.0,0.0,0.0
1606990544548783433,3678035,1606986943041666322,imu_link,-0.0024712816812098026,0.006721101701259613,-0.3634190261363983,0.9315983057022095,0.0,0.0,0.0,0.0,0.0,0.0,0.0,0.0,0.0,-42.62469482421875,0.6145956516265869,-0.5437554717063904,0.0,0.0,0.0,0.0,0.0,0.0,0.0,0.0,0.0,0.02117416448891163,-0.006722149904817343,0.0427931509912014,0.0,0.0,0.0,0.0,0.0,0.0,0.0,0.0,0.0
1606990544548814561,3678036,1606986943054440916,imu_link,-0.0024712816812098026,0.006721101701259613,-0.3634190261363983,0.9315983057022095,0.0,0.0,0.0,0.0,0.0,0.0,0.0,0.0,0.0,-42.62469482421875,0.6145956516265869,-0.5437554717063904,0.0,0.0,0.0,0.0,0.0,0.0,0.0,0.0,0.0,0.02117416448891163,-0.006722149904817343,0.0427931509912014,0.0,0.0,0.0,0.0,0.0,0.0,0.0,0.0,0.0
1606990544616022802,3678037,1606986943054565813,imu_link,-0.0024679997004568577,0.006724854931235313,-0.36341944336891174,0.9315981268882751,0.0,0.0,0.0,0.0,0.0,0.0,0.0,0.0,0.0,-42.624752044677734,0.615132749080658,-0.5435616970062256,0.0,0.0,0.0,0.0,0.0,0.0,0.0,0.0,0.0,0.0035106875002384186,-0.01057913713157177,0.051060475409030914,0.0,0.0,0.0,0.0,0.0,0.0,0.0,0.0,0.0
1606990544616044891,3678038,1606986943054681332,imu_link,-0.0024679997004568577,0.006724854931235313,-0.36341944336891174,0.9315981268882751,0.0,0.0,0.0,0.0,0.0,0.0,0.0,0.0,0.0,-42.624752044677734,0.615132749080658,-0.5435616970062256,0.0,0.0,0.0,0.0,0.0,0.0,0.0,0.0,0.0,0.0035106875002384186,-0.01057913713157177,0.051060475409030914,0.0,0.0,0.0,0.0,0.0,0.0,0.0,0.0,0.0
1606990544616060038,3678039,1606986943054794466,imu_link,-0.0024688895791769028,0.006727389991283417,-0.3634204864501953,0.9315977096557617,0.0,0.0,0.0,0.0,0.0,0.0,0.0,0.0,0.0,-42.6248779296875,0.615365743637085,-0.5437630414962769,0.0,0.0,0.0,0.0,0.0,0.0,0.0,0.0,0.0,-0.016270944848656654,0.006276706233620644,0.057543203234672546,0.0,0.0,0.0,0.0,0.0,0.0,0.0,0.0,0.0
1606990544616071268,3678040,1606986943054910759,imu_link,-0.0024688895791769028,0.006727389991283417,-0.3634204864501953,0.9315977096557617,0.0,0.0,0.0,0.0,0.0,0.0,0.0,0.0,0.0,-42.6248779296875,0.615365743637085,-0.5437630414962769,0.0,0.0,0.0,0.0,0.0,0.0,0.0,0.0,0.0,-0.016270944848656654,0.006276706233620644,0.057543203234672546,0.0,0.0,0.0,0.0,0.0,0.0,0.0,0.0,0.0
1606990544627671320,3678041,1606986943055065381,imu_link,-0.002471550367772579,0.0067263818345963955,-0.3634215295314789,0.9315972924232483,0.0,0.0,0.0,0.0,0.0,0.0,0.0,0.0,0.0,-42.6250114440918,0.6151466369628906,-0.5440057516098022,0.0,0.0,0.0,0.0,0.0,0.0,0.0,0.0,0.0,-0.007966432720422745,0.011274212040007114,0.06235530227422714,0.0,0.0,0.0,0.0,0.0,0.0,0.0,0.0,0.0
1606990544627706720,3678042,1606986943055182319,imu_link,-0.002471550367772579,0.0067263818345963955,-0.3634215295314789,0.9315972924232483,0.0,0.0,0.0,0.0,0.0,0.0,0.0,0.0,0.0,-42.6250114440918,0.6151466369628906,-0.5440057516098022,0.0,0.0,0.0,0.0,0.0,0.0,0.0,0.0,0.0,-0.007966432720422745,0.011274212040007114,0.06235530227422714,0.0,0.0,0.0,0.0,0.0,0.0,0.0,0.0,0.0
1606990544627730699,3678043,1606986943055291103,imu_link,-0.0024714539758861065,0.0067281839437782764,-0.36342403292655945,0.9315963387489319,0.0,0.0,0.0,0.0,0.0,0.0,0.0,0.0,0.0,-42.62531661987305,0.6153416633605957,-0.5440722107887268,0.0,0.0,0.0,0.0,0.0,0.0,0.0,0.0,0.0,0.011768879368901253,0.012677483260631561,0.03338943049311638,0.0,0.0,0.0,0.0,0.0,0.0,0.0,0.0,0.0
1606990544627736494,3678044,1606986943055398997,imu_link,-0.0024714539758861065,0.0067281839437782764,-0.36342403292655945,0.9315963387489319,0.0,0.0,0.0,0.0,0.0,0.0,0.0,0.0,0.0,-42.62531661987305,0.6153416633605957,-0.5440722107887268,0.0,0.0,0.0,0.0,0.0,0.0,0.0,0.0,0.0,0.011768879368901253,0.012677483260631561,0.03338943049311638,0.0,0.0,0.0,0.0,0.0,0.0,0.0,0.0,0.0
1606990544627748145,3678045,1606986943055506522,imu_link,-0.002474556677043438,0.00673308502882719,-0.36342653632164,0.9315952658653259,0.0,0.0,0.0,0.0,0.0,0.0,0.0,0.0,0.0,-42.62563705444336,0.6157341003417969,-0.5446093082427979,0.0,0.0,0.0,0.0,0.0,0.0,0.0,0.0,0.0,0.002941866870969534,0.03118344582617283,0.011345058679580688,0.0,0.0,0.0,0.0,0.0,0.0,0.0,0.0,0.0
1606990544635033551,3678046,1606986943055613778,imu_link,-0.002474556677043438,0.00673308502882719,-0.36342653632164,0.9315952658653259,0.0,0.0,0.0,0.0,0.0,0.0,0.0,0.0,0.0,-42.62563705444336,0.6157341003417969,-0.5446093082427979,0.0,0.0,0.0,0.0,0.0,0.0,0.0,0.0,0.0,0.002941866870969534,0.03118344582617283,0.011345058679580688,0.0,0.0,0.0,0.0,0.0,0.0,0.0,0.0,0.0
1606990544635069113,3678047,1606986943067358150,imu_link,-0.0024751336313784122,0.006733747199177742,-0.3634277880191803,0.9315947890281677,0.0,0.0,0.0,0.0,0.0,0.0,0.0,0.0,0.0,-42.625789642333984,0.6157800555229187,-0.5446992516517639,0.0,0.0,0.0,0.0,0.0,0.0,0.0,0.0,0.0,-0.01819966733455658,0.01919807866215706,0.044768430292606354,0.0,0.0,0.0,0.0,0.0,0.0,0.0,0.0,0.0
1606990544635088223,3678048,1606986943067483240,imu_link,-0.0024751336313784122,0.006733747199177742,-0.3634277880191803,0.9315947890281677,0.0,0.0,0.0,0.0,0.0,0.0,0.0,0.0,0.0,-42.625789642333984,0.6157800555229187,-0.5446992516517639,0.0,0.0,0.0,0.0,0.0,0.0,0.0,0.0,0.0,-0.01819966733455658,0.01919807866215706,0.044768430292606354,0.0,0.0,0.0,0.0,0.0,0.0,0.0,0.0,0.0
1606990544635122577,3678049,1606986943067597821,imu_link,-0.0024802549742162228,0.006731488276273012,-0.3634292185306549,0.93159419298172,0.0,0.0,0.0,0.0,0.0,0.0,0.0,0.0,0.0,-42.6259651184082,0.6153247356414795,-0.5451528429985046,0.0,0.0,0.0,0.0,0.0,0.0,0.0,0.0,0.0,-0.011865847744047642,5.442841211333871e-05,0.06867536157369614,0.0,0.0,0.0,0.0,0.0,0.0,0.0,0.0,0.0
1606990544650845058,3678050,1606986943067710425,imu_link,-0.0024802549742162228,0.006731488276273012,-0.3634292185306549,0.93159419298172,0.0,0.0,0.0,0.0,0.0,0.0,0.0,0.0,0.0,-42.6259651184082,0.6153247356414795,-0.5451528429985046,0.0,0.0,0.0,0.0,0.0,0.0,0.0,0.0,0.0,-0.011865847744047642,5.442841211333871e-05,0.06867536157369614,0.0,0.0,0.0,0.0,0.0,0.0,0.0,0.0,0.0
1606990544650887238,3678051,1606986943067822380,imu_link,-0.002481832867488265,0.006729218177497387,-0.36342835426330566,0.9315945506095886,0.0,0.0,0.0,0.0,0.0,0.0,0.0,0.0,0.0,-42.625858306884766,0.6150171756744385,-0.5452262163162231,0.0,0.0,0.0,0.0,0.0,0.0,0.0,0.0,0.0,-0.0024306843988597393,-0.010463071055710316,0.07830590754747391,0.0,0.0,0.0,0.0,0.0,0.0,0.0,0.0,0.0
1606990544650939367,3678052,1606986943067946199,imu_link,-0.002481832867488265,0.006729218177497387,-0.36342835426330566,0.9315945506095886,0.0,0.0,0.0,0.0,0.0,0.0,0.0,0.0,0.0,-42.625858306884766,0.6150171756744385,-0.5452262163162231,0.0,0.0,0.0,0.0,0.0,0.0,0.0,0.0,0.0,-0.0024306843988597393,-0.010463071055710316,0.07830590754747391,0.0,0.0,0.0,0.0,0.0,0.0,0.0,0.0,0.0
1606990544650967480,3678053,1606986943068059902,imu_link,-0.002480721566826105,0.006729318760335445,-0.36342939734458923,0.9315941333770752,0.0,0.0,0.0,0.0,0.0,0.0,0.0,0.0,0.0,-42.62598419189453,0.615073561668396,-0.5451124906539917,0.0,0.0,0.0,0.0,0.0,0.0,0.0,0.0,0.0,-0.0064035640098154545,-0.00906399730592966,0.05852586403489113,0.0,0.0,0.0,0.0,0.0,0.0,0.0,0.0,0.0
1606990544650985342,3678054,1606986943068170153,imu_link,-0.002480721566826105,0.006729318760335445,-0.36342939734458923,0.9315941333770752,0.0,0.0,0.0,0.0,0.0,0.0,0.0,0.0,0.0,-42.62598419189453,0.615073561668396,-0.5451124906539917,0.0,0.0,0.0,0.0,0.0,0.0,0.0,0.0,0.0,-0.0064035640098154545,-0.00906399730592966,0.05852586403489113,0.0,0.0,0.0,0.0,0.0,0.0,0.0,0.0,0.0
1606990544772980446,3678055,1606986943068276712,imu_link,-0.002481729257851839,0.0067274803295731544,-0.363429993391037,0.9315939545631409,0.0,0.0,0.0,0.0,0.0,0.0,0.0,0.0,0.0,-42.62605667114258,0.6148350238800049,-0.5451438426971436,0.0,0.0,0.0,0.0,0.0,0.0,0.0,0.0,0.0,-0.016835670918226242,0.0039941417053341866,0.028420904651284218,0.0,0.0,0.0,0.0,0.0,0.0,0.0,0.0,0.0
1606990544773005455,3678056,1606986943068385868,imu_link,-0.002481729257851839,0.0067274803295731544,-0.363429993391037,0.9315939545631409,0.0,0.0,0.0,0.0,0.0,0.0,0.0,0.0,0.0,-42.62605667114258,0.6148350238800049,-0.5451438426971436,0.0,0.0,0.0,0.0,0.0,0.0,0.0,0.0,0.0,-0.016835670918226242,0.0039941417053341866,0.028420904651284218,0.0,0.0,0.0,0.0,0.0,0.0,0.0,0.0,0.0
1606990544773016306,3678057,1606986943081006353,imu_link,-0.0024837094824761152,0.006725916173309088,-0.36343061923980713,0.9315937161445618,0.0,0.0,0.0,0.0,0.0,0.0,0.0,0.0,0.0,-42.62613296508789,0.6145852208137512,-0.5452904105186462,0.0,0.0,0.0,0.0,0.0,0.0,0.0,0.0,0.0,-0.010970628820359707,-0.00402851914986968,0.03943793103098869,0.0,0.0,0.0,0.0,0.0,0.0,0.0,0.0,0.0
1606990544773055823,3678058,1606986943081171993,imu_link,-0.0024837094824761152,0.006725916173309088,-0.36343061923980713,0.9315937161445618,0.0,0.0,0.0,0.0,0.0,0.0,0.0,0.0,0.0,-42.62613296508789,0.6145852208137512,-0.5452904105186462,0.0,0.0,0.0,0.0,0.0,0.0,0.0,0.0,0.0,-0.010970628820359707,-0.00402851914986968,0.03943793103098869,0.0,0.0,0.0,0.0,0.0,0.0,0.0,0.0,0.0
1606990544784801650,3678059,1606986943081332351,imu_link,-0.0024842768907546997,0.0067258914932608604,-0.36343201994895935,0.9315931797027588,0.0,0.0,0.0,0.0,0.0,0.0,0.0,0.0,0.0,-42.62630844116211,0.6145581603050232,-0.5453509092330933,0.0,0.0,0.0,0.0,0.0,0.0,0.0,0.0,0.0,-0.0025560325011610985,0.0038344303611665964,0.04868581146001816,0.0,0.0,0.0,0.0,0.0,0.0,0.0,0.0,0.0
1606990544784826146,3678060,1606986943081472672,imu_link,-0.0024842768907546997,0.0067258914932608604,-0.36343201994895935,0.9315931797027588,0.0,0.0,0.0,0.0,0.0,0.0,0.0,0.0,0.0,-42.62630844116211,0.6145581603050232,-0.5453509092330933,0.0,0.0,0.0,0.0,0.0,0.0,0.0,0.0,0.0,-0.0025560325011610985,0.0038344303611665964,0.04868581146001816,0.0,0.0,0.0,0.0,0.0,0.0,0.0,0.0,0.0
1606990544784838427,3678061,1606986943081611901,imu_link,-0.0024842198472470045,0.006726793013513088,-0.3634312152862549,0.9315934777259827,0.0,0.0,0.0,0.0,0.0,0.0,0.0,0.0,0.0,-42.6262092590332,0.6146571636199951,-0.5453819036483765,0.0,0.0,0.0,0.0,0.0,0.0,0.0,0.0,0.0,0.0011992049403488636,0.016112076118588448,0.05464858189225197,0.0,0.0,0.0,0.0,0.0,0.0,0.0,0.0,0.0
1606990544784846789,3678062,1606986943081749245,imu_link,-0.0024842198472470045,0.006726793013513088,-0.3634312152862549,0.9315934777259827,0.0,0.0,0.0,0.0,0.0,0.0,0.0,0.0,0.0,-42.6262092590332,0.6146571636199951,-0.5453819036483765,0.0,0.0,0.0,0.0,0.0,0.0,0.0,0.0,0.0,0.0011992049403488636,0.016112076118588448,0.05464858189225197,0.0,0.0,0.0,0.0,0.0,0.0,0.0,0.0,0.0
1606990544784855543,3678063,1606986943081906172,imu_link,-0.0024827246088534594,0.0067294808104634285,-0.36343276500701904,0.9315928816795349,0.0,0.0,0.0,0.0,0.0,0.0,0.0,0.0,0.0,-42.626399993896484,0.6150054931640625,-0.5453351736068726,0.0,0.0,0.0,0.0,0.0,0.0,0.0,0.0,0.0,0.008130370639264584,0.01138480193912983,0.040399063378572464,0.0,0.0,0.0,0.0,0.0,0.0,0.0,0.0,0.0
1606990544803471952,3678064,1606986943082040301,imu_link,-0.0024827246088534594,0.0067294808104634285,-0.36343276500701904,0.9315928816795349,0.0,0.0,0.0,0.0,0.0,0.0,0.0,0.0,0.0,-42.626399993896484,0.6150054931640625,-0.5453351736068726,0.0,0.0,0.0,0.0,0.0,0.0,0.0,0.0,0.0,0.008130370639264584,0.01138480193912983,0.040399063378572464,0.0,0.0,0.0,0.0,0.0,0.0,0.0,0.0,0.0
1606990544803512571,3678065,1606986943082163198,imu_link,-0.0024834179785102606,0.00673214066773653,-0.363432914018631,0.9315928220748901,0.0,0.0,0.0,0.0,0.0,0.0,0.0,0.0,0.0,-42.62641906738281,0.6152605414390564,-0.5455201268196106,0.0,0.0,0.0,0.0,0.0,0.0,0.0,0.0,0.0,-0.008856449276208878,0.012294157408177853,0.033099737018346786,0.0,0.0,0.0,0.0,0.0,0.0,0.0,0.0,0.0
1606990544803521317,3678066,1606986943082283789,imu_link,-0.0024834179785102606,0.00673214066773653,-0.363432914018631,0.9315928220748901,0.0,0.0,0.0,0.0,0.0,0.0,0.0,0.0,0.0,-42.62641906738281,0.6152605414390564,-0.5455201268196106,0.0,0.0,0.0,0.0,0.0,0.0,0.0,0.0,0.0,-0.008856449276208878,0.012294157408177853,0.033099737018346786,0.0,0.0,0.0,0.0,0.0,0.0,0.0,0.0,0.0
1606990544803531346,3678067,1606986943082409587,imu_link,-0.002484353259205818,0.0067315492779016495,-0.3634340465068817,0.9315923452377319,0.0,0.0,0.0,0.0,0.0,0.0,0.0,0.0,0.0,-42.626564025878906,0.6151577234268188,-0.545596182346344,0.0,0.0,0.0,0.0,0.0,0.0,0.0,0.0,0.0,-0.004747055005282164,0.01662280596792698,0.040714193135499954,0.0,0.0,0.0,0.0,0.0,0.0,0.0,0.0,0.0
1606990544811697676,3678068,1606986943094785994,imu_link,-0.002484353259205818,0.0067315492779016495,-0.3634340465068817,0.9315923452377319,0.0,0.0,0.0,0.0,0.0,0.0,0.0,0.0,0.0,-42.626564025878906,0.6151577234268188,-0.545596182346344,0.0,0.0,0.0,0.0,0.0,0.0,0.0,0.0,0.0,-0.004747055005282164,0.01662280596792698,0.040714193135499954,0.0,0.0,0.0,0.0,0.0,0.0,0.0,0.0,0.0
1606990544811736948,3678069,1606986943095060339,imu_link,-0.002488346304744482,0.006732043344527483,-0.3634336590766907,0.9315924644470215,0.0,0.0,0.0,0.0,0.0,0.0,0.0,0.0,0.0,-42.62651443481445,0.615044355392456,-0.5460426807403564,0.0,0.0,0.0,0.0,0.0,0.0,0.0,0.0,0.0,-0.0015517720021307468,0.00955386832356453,0.03523045778274536,0.0,0.0,0.0,0.0,0.0,0.0,0.0,0.0,0.0
1606990544811753423,3678070,1606986943095236151,imu_link,-0.002488346304744482,0.006732043344527483,-0.3634336590766907,0.9315924644470215,0.0,0.0,0.0,0.0,0.0,0.0,0.0,0.0,0.0,-42.62651443481445,0.615044355392456,-0.5460426807403564,0.0,0.0,0.0,0.0,0.0,0.0,0.0,0.0,0.0,-0.0015517720021307468,0.00955386832356453,0.03523045778274536,0.0,0.0,0.0,0.0,0.0,0.0,0.0,0.0,0.0
1606990544811763882,3678071,1606986943095382740,imu_link,-0.0024892569053918123,0.006732890382409096,-0.3634374141693115,0.9315909743309021,0.0,0.0,0.0,0.0,0.0,0.0,0.0,0.0,0.0,-42.62697982788086,0.6150946021080017,-0.5461776852607727,0.0,0.0,0.0,0.0,0.0,0.0,0.0,0.0,0.0,-0.02155694179236889,-0.0001636091183172539,0.02092072181403637,0.0,0.0,0.0,0.0,0.0,0.0,0.0,0.0,0.0
1606990544811789943,3678072,1606986943095529129,imu_link,-0.0024892569053918123,0.006732890382409096,-0.3634374141693115,0.9315909743309021,0.0,0.0,0.0,0.0,0.0,0.0,0.0,0.0,0.0,-42.62697982788086,0.6150946021080017,-0.5461776852607727,0.0,0.0,0.0,0.0,0.0,0.0,0.0,0.0,0.0,-0.02155694179236889,-0.0001636091183172539,0.02092072181403637,0.0,0.0,0.0,0.0,0.0,0.0,0.0,0.0,0.0
1606990544901079120,3678073,1606986943095669669,imu_link,-0.002491927472874522,0.006729646120220423,-0.36343899369239807,0.9315903782844543,0.0,0.0,0.0,0.0,0.0,0.0,0.0,0.0,0.0,-42.627174377441406,0.6146361231803894,-0.5463288426399231,0.0,0.0,0.0,0.0,0.0,0.0,0.0,0.0,0.0,-0.023829428479075432,0.002022411907091737,0.03927747905254364,0.0,0.0,0.0,0.0,0.0,0.0,0.0,0.0,0.0
1606990544901123794,3678074,1606986943095830121,imu_link,-0.002491927472874522,0.006729646120220423,-0.36343899369239807,0.9315903782844543,0.0,0.0,0.0,0.0,0.0,0.0,0.0,0.0,0.0,-42.627174377441406,0.6146361231803894,-0.5463288426399231,0.0,0.0,0.0,0.0,0.0,0.0,0.0,0.0,0.0,-0.023829428479075432,0.002022411907091737,0.03927747905254364,0.0,0.0,0.0,0.0,0.0,0.0,0.0,0.0,0.0
1606990544901141162,3678075,1606986943095975211,imu_link,-0.002492520958185196,0.0067304689437150955,-0.36343914270401,0.9315903186798096,0.0,0.0,0.0,0.0,0.0,0.0,0.0,0.0,0.0,-42.627193450927734,0.6146992444992065,-0.54642653465271,0.0,0.0,0.0,0.0,0.0,0.0,0.0,0.0,0.0,0.002625852357596159,-0.0064814528450369835,0.05830672010779381,0.0,0.0,0.0,0.0,0.0,0.0,0.0,0.0,0.0
1606990544901210799,3678076,1606986943096111883,imu_link,-0.002492520958185196,0.0067304689437150955,-0.36343914270401,0.9315903186798096,0.0,0.0,0.0,0.0,0.0,0.0,0.0,0.0,0.0,-42.627193450927734,0.6146992444992065,-0.54642653465271,0.0,0.0,0.0,0.0,0.0,0.0,0.0,0.0,0.0,0.002625852357596159,-0.0064814528450369835,0.05830672010779381,0.0,0.0,0.0,0.0,0.0,0.0,0.0,0.0,0.0
1606990544941113361,3678077,1606986943096245848,imu_link,-0.002490405458956957,0.006731079425662756,-0.36343955993652344,0.9315901398658752,0.0,0.0,0.0,0.0,0.0,0.0,0.0,0.0,0.0,-42.62724304199219,0.6148521900177002,-0.5462263226509094,0.0,0.0,0.0,0.0,0.0,0.0,0.0,0.0,0.0,0.02628551982343197,-0.014240700751543045,0.04878968745470047,0.0,0.0,0.0,0.0,0.0,0.0,0.0,0.0,0.0
1606990544941164391,3678078,1606986943096379482,imu_link,-0.002490405458956957,0.006731079425662756,-0.36343955993652344,0.9315901398658752,0.0,0.0,0.0,0.0,0.0,0.0,0.0,0.0,0.0,-42.62724304199219,0.6148521900177002,-0.5462263226509094,0.0,0.0,0.0,0.0,0.0,0.0,0.0,0.0,0.0,0.02628551982343197,-0.014240700751543045,0.04878968745470047,0.0,0.0,0.0,0.0,0.0,0.0,0.0,0.0,0.0
1606990544941212832,3678079,1606986943108237415,imu_link,-0.0024914394598454237,0.006732108071446419,-0.36344024538993835,0.9315899014472961,0.0,0.0,0.0,0.0,0.0,0.0,0.0,0.0,0.0,-42.62732696533203,0.61491858959198,-0.5463800430297852,0.0,0.0,0.0,0.0,0.0,0.0,0.0,0.0,0.0,0.013629840686917305,-0.013609892688691616,0.04852156713604927,0.0,0.0,0.0,0.0,0.0,0.0,0.0,0.0,0.0
1606990544941238487,3678080,1606986943108434942,imu_link,-0.0024914394598454237,0.006732108071446419,-0.36344024538993835,0.9315899014472961,0.0,0.0,0.0,0.0,0.0,0.0,0.0,0.0,0.0,-42.62732696533203,0.61491858959198,-0.5463800430297852,0.0,0.0,0.0,0.0,0.0,0.0,0.0,0.0,0.0,0.013629840686917305,-0.013609892688691616,0.04852156713604927,0.0,0.0,0.0,0.0,0.0,0.0,0.0,0.0,0.0
1606990544941256626,3678081,1606986943108600681,imu_link,-0.0024868492037057877,0.006735886447131634,-0.36344096064567566,0.9315896034240723,0.0,0.0,0.0,0.0,0.0,0.0,0.0,0.0,0.0,-42.62741470336914,0.6155127882957458,-0.5460478663444519,0.0,0.0,0.0,0.0,0.0,0.0,0.0,0.0,0.0,0.008708909153938293,-0.015712108463048935,0.025702359154820442,0.0,0.0,0.0,0.0,0.0,0.0,0.0,0.0,0.0
1606990544948771477,3678082,1606986943108758636,imu_link,-0.0024868492037057877,0.006735886447131634,-0.36344096064567566,0.9315896034240723,0.0,0.0,0.0,0.0,0.0,0.0,0.0,0.0,0.0,-42.62741470336914,0.6155127882957458,-0.5460478663444519,0.0,0.0,0.0,0.0,0.0,0.0,0.0,0.0,0.0,0.008708909153938293,-0.015712108463048935,0.025702359154820442,0.0,0.0,0.0,0.0,0.0,0.0,0.0,0.0,0.0
1606990544948811133,3678083,1606986943108909716,imu_link,-0.002489268546923995,0.006735465954989195,-0.36344149708747864,0.9315893650054932,0.0,0.0,0.0,0.0,0.0,0.0,0.0,0.0,0.0,-42.62748718261719,0.6153667569160461,-0.5462890267372131,0.0,0.0,0.0,0.0,0.0,0.0,0.0,0.0,0.0,-6.622624641750008e-05,-0.007978232577443123,0.01666383631527424,0.0,0.0,0.0,0.0,0.0,0.0,0.0,0.0,0.0
1606990544948843283,3678084,1606986943109055999,imu_link,-0.002489268546923995,0.006735465954989195,-0.36344149708747864,0.9315893650054932,0.0,0.0,0.0,0.0,0.0,0.0,0.0,0.0,0.0,-42.62748718261719,0.6153667569160461,-0.5462890267372131,0.0,0.0,0.0,0.0,0.0,0.0,0.0,0.0,0.0,-6.622624641750008e-05,-0.007978232577443123,0.01666383631527424,0.0,0.0,0.0,0.0,0.0,0.0,0.0,0.0,0.0
1606990544948869316,3678085,1606986943109212015,imu_link,-0.002487004268914461,0.006735499016940594,-0.3634428083896637,0.9315888285636902,0.0,0.0,0.0,0.0,0.0,0.0,0.0,0.0,0.0,-42.62764358520508,0.6154637932777405,-0.5460494756698608,0.0,0.0,0.0,0.0,0.0,0.0,0.0,0.0,0.0,-0.03264513984322548,-0.011617201380431652,0.0323769710958004,0.0,0.0,0.0,0.0,0.0,0.0,0.0,0.0,0.0
1606990544968230215,3678086,1606986943109349413,imu_link,-0.002487004268914461,0.006735499016940594,-0.3634428083896637,0.9315888285636902,0.0,0.0,0.0,0.0,0.0,0.0,0.0,0.0,0.0,-42.62764358520508,0.6154637932777405,-0.5460494756698608,0.0,0.0,0.0,0.0,0.0,0.0,0.0,0.0,0.0,-0.03264513984322548,-0.011617201380431652,0.0323769710958004,0.0,0.0,0.0,0.0,0.0,0.0,0.0,0.0,0.0
1606990544968290791,3678087,1606986943109483539,imu_link,-0.002488246653228998,0.006736000534147024,-0.363443523645401,0.9315885305404663,0.0,0.0,0.0,0.0,0.0,0.0,0.0,0.0,0.0,-42.62773513793945,0.6154651641845703,-0.5462035536766052,0.0,0.0,0.0,0.0,0.0,0.0,0.0,0.0,0.0,-0.03826548904180527,-0.01050090603530407,0.017150774598121643,0.0,0.0,0.0,0.0,0.0,0.0,0.0,0.0,0.0
1606990544968402585,3678088,1606986943109619102,imu_link,-0.002488246653228998,0.006736000534147024,-0.363443523645401,0.9315885305404663,0.0,0.0,0.0,0.0,0.0,0.0,0.0,0.0,0.0,-42.62773513793945,0.6154651641845703,-0.5462035536766052,0.0,0.0,0.0,0.0,0.0,0.0,0.0,0.0,0.0,-0.03826548904180527,-0.01050090603530407,0.017150774598121643,0.0,0.0,0.0,0.0,0.0,0.0,0.0,0.0,0.0
1606990544968435163,3678089,1606986943109754160,imu_link,-0.0024888438638299704,0.006727634929120541,-0.3634445369243622,0.9315882921218872,0.0,0.0,0.0,0.0,0.0,0.0,0.0,0.0,0.0,-42.62784957885742,0.6145467162132263,-0.5459192991256714,0.0,0.0,0.0,0.0,0.0,0.0,0.0,0.0,0.0,-0.00405575567856431,-0.003071494633331895,0.028106441721320152,0.0,0.0,0.0,0.0,0.0,0.0,0.0,0.0,0.0
1606990545050123903,3678090,1606986943122230384,imu_link,-0.0024888438638299704,0.006727634929120541,-0.3634445369243622,0.9315882921218872,0.0,0.0,0.0,0.0,0.0,0.0,0.0,0.0,0.0,-42.62784957885742,0.6145467162132263,-0.5459192991256714,0.0,0.0,0.0,0.0,0.0,0.0,0.0,0.0,0.0,-0.00405575567856431,-0.003071494633331895,0.028106441721320152,0.0,0.0,0.0,0.0,0.0,0.0,0.0,0.0,0.0
1606990545050160484,3678091,1606986943122416079,imu_link,-0.002488647820428014,0.006727344356477261,-0.36344751715660095,0.9315871000289917,0.0,0.0,0.0,0.0,0.0,0.0,0.0,0.0,0.0,-42.62821578979492,0.6145220398902893,-0.5458883047103882,0.0,0.0,0.0,0.0,0.0,0.0,0.0,0.0,0.0,0.021590815857052803,0.0100150341168046,0.0518927238881588,0.0,0.0,0.0,0.0,0.0,0.0,0.0,0.0,0.0
1606990545050182678,3678092,1606986943122590517,imu_link,-0.002488647820428014,0.006727344356477261,-0.36344751715660095,0.9315871000289917,0.0,0.0,0.0,0.0,0.0,0.0,0.0,0.0,0.0,-42.62821578979492,0.6145220398902893,-0.5458883047103882,0.0,0.0,0.0,0.0,0.0,0.0,0.0,0.0,0.0,0.021590815857052803,0.0100150341168046,0.0518927238881588,0.0,0.0,0.0,0.0,0.0,0.0,0.0,0.0,0.0
1606990545050196969,3678093,1606986943122750628,imu_link,-0.0024889300111681223,0.006731234025210142,-0.36344730854034424,0.9315871596336365,0.0,0.0,0.0,0.0,0.0,0.0,0.0,0.0,0.0,-42.62819290161133,0.6149256825447083,-0.5460802912712097,0.0,0.0,0.0,0.0,0.0,0.0,0.0,0.0,0.0,-0.0007500833016820252,0.0070913503877818584,0.06308579444885254,0.0,0.0,0.0,0.0,0.0,0.0,0.0,0.0,0.0
1606990545050209350,3678094,1606986943122905381,imu_link,-0.0024889300111681223,0.006731234025210142,-0.36344730854034424,0.9315871596336365,0.0,0.0,0.0,0.0,0.0,0.0,0.0,0.0,0.0,-42.62819290161133,0.6149256825447083,-0.5460802912712097,0.0,0.0,0.0,0.0,0.0,0.0,0.0,0.0,0.0,-0.0007500833016820252,0.0070913503877818584,0.06308579444885254,0.0,0.0,0.0,0.0,0.0,0.0,0.0,0.0,0.0
1606990545063039416,3678095,1606986943123132567,imu_link,-0.002488278318196535,0.0067334771156311035,-0.36344626545906067,0.9315875172615051,0.0,0.0,0.0,0.0,0.0,0.0,0.0,0.0,0.0,-42.62806701660156,0.6151928901672363,-0.5461035370826721,0.0,0.0,0.0,0.0,0.0,0.0,0.0,0.0,0.0,-0.002776617417111993,-0.002612719312310219,0.05730707570910454,0.0,0.0,0.0,0.0,0.0,0.0,0.0,0.0,0.0
1606990545063079822,3678096,1606986943123288713,imu_link,-0.002488278318196535,0.0067334771156311035,-0.36344626545906067,0.9315875172615051,0.0,0.0,0.0,0.0,0.0,0.0,0.0,0.0,0.0,-42.62806701660156,0.6151928901672363,-0.5461035370826721,0.0,0.0,0.0,0.0,0.0,0.0,0.0,0.0,0.0,-0.002776617417111993,-0.002612719312310219,0.05730707570910454,0.0,0.0,0.0,0.0,0.0,0.0,0.0,0.0,0.0
1606990545063096205,3678097,1606986943123431228,imu_link,-0.002488050376996398,0.006735367700457573,-0.36344751715660095,0.9315870404243469,0.0,0.0,0.0,0.0,0.0,0.0,0.0,0.0,0.0,-42.62822341918945,0.6154035329818726,-0.5461587905883789,0.0,0.0,0.0,0.0,0.0,0.0,0.0,0.0,0.0,0.005606889724731445,0.011207681149244308,0.0462600402534008,0.0,0.0,0.0,0.0,0.0,0.0,0.0,0.0,0.0
1606990545063121409,3678098,1606986943123570625,imu_link,-0.002488050376996398,0.006735367700457573,-0.36344751715660095,0.9315870404243469,0.0,0.0,0.0,0.0,0.0,0.0,0.0,0.0,0.0,-42.62822341918945,0.6154035329818726,-0.5461587905883789,0.0,0.0,0.0,0.0,0.0,0.0,0.0,0.0,0.0,0.005606889724731445,0.011207681149244308,0.0462600402534008,0.0,0.0,0.0,0.0,0.0,0.0,0.0,0.0,0.0
1606990545076589076,3678099,1606986943123709241,imu_link,-0.002487946767359972,0.006734898313879967,-0.3634491264820099,0.9315864443778992,0.0,0.0,0.0,0.0,0.0,0.0,0.0,0.0,0.0,-42.628421783447266,0.6153568029403687,-0.5461291670799255,0.0,0.0,0.0,0.0,0.0,0.0,0.0,0.0,0.0,0.00015867120237089694,0.0065035130828619,0.04403357207775116,0.0,0.0,0.0,0.0,0.0,0.0,0.0,0.0,0.0
1606990545076635474,3678100,1606986943123846043,imu_link,-0.002487946767359972,0.006734898313879967,-0.3634491264820099,0.9315864443778992,0.0,0.0,0.0,0.0,0.0,0.0,0.0,0.0,0.0,-42.628421783447266,0.6153568029403687,-0.5461291670799255,0.0,0.0,0.0,0.0,0.0,0.0,0.0,0.0,0.0,0.00015867120237089694,0.0065035130828619,0.04403357207775116,0.0,0.0,0.0,0.0,0.0,0.0,0.0,0.0,0.0
1606990545076673482,3678101,1606986943134828339,imu_link,-0.0024876194074749947,0.006737337447702885,-0.36344853043556213,0.9315866231918335,0.0,0.0,0.0,0.0,0.0,0.0,0.0,0.0,0.0,-42.62835693359375,0.615631103515625,-0.5461955666542053,0.0,0.0,0.0,0.0,0.0,0.0,0.0,0.0,0.0,0.0008010459132492542,0.00981166958808899,0.0463477224111557,0.0,0.0,0.0,0.0,0.0,0.0,0.0,0.0,0.0
1606990545076713575,3678102,1606986943135013573,imu_link,-0.0024876194074749947,0.006737337447702885,-0.36344853043556213,0.9315866231918335,0.0,0.0,0.0,0.0,0.0,0.0,0.0,0.0,0.0,-42.62835693359375,0.615631103515625,-0.5461955666542053,0.0,0.0,0.0,0.0,0.0,0.0,0.0,0.0,0.0,0.0008010459132492542,0.00981166958808899,0.0463477224111557,0.0,0.0,0.0,0.0,0.0,0.0,0.0,0.0,0.0
1606990545076772497,3678103,1606986943135164046,imu_link,-0.002487730234861374,0.006737898103892803,-0.363446444272995,0.9315874576568604,0.0,0.0,0.0,0.0,0.0,0.0,0.0,0.0,0.0,-42.62809753417969,0.6156875491142273,-0.546229362487793,0.0,0.0,0.0,0.0,0.0,0.0,0.0,0.0,0.0,-0.014334253035485744,0.013433866202831268,0.0485248826444149,0.0,0.0,0.0,0.0,0.0,0.0,0.0,0.0,0.0
1606990545086582381,3678104,1606986943135308390,imu_link,-0.002487730234861374,0.006737898103892803,-0.363446444272995,0.9315874576568604,0.0,0.0,0.0,0.0,0.0,0.0,0.0,0.0,0.0,-42.62809753417969,0.6156875491142273,-0.546229362487793,0.0,0.0,0.0,0.0,0.0,0.0,0.0,0.0,0.0,-0.014334253035485744,0.013433866202831268,0.0485248826444149,0.0,0.0,0.0,0.0,0.0,0.0,0.0,0.0,0.0
1606990545086637381,3678105,1606986943135449081,imu_link,-0.0024915118701756,0.00673834839835763,-0.36344724893569946,0.9315871000289917,0.0,0.0,0.0,0.0,0.0,0.0,0.0,0.0,0.0,-42.628196716308594,0.6155776381492615,-0.5466523170471191,0.0,0.0,0.0,0.0,0.0,0.0,0.0,0.0,0.0,-0.013669982552528381,0.0007918322226032615,0.039244815707206726,0.0,0.0,0.0,0.0,0.0,0.0,0.0,0.0,0.0
1606990545086727901,3678106,1606986943135601925,imu_link,-0.0024915118701756,0.00673834839835763,-0.36344724893569946,0.9315871000289917,0.0,0.0,0.0,0.0,0.0,0.0,0.0,0.0,0.0,-42.628196716308594,0.6155776381492615,-0.5466523170471191,0.0,0.0,0.0,0.0,0.0,0.0,0.0,0.0,0.0,-0.013669982552528381,0.0007918322226032615,0.039244815707206726,0.0,0.0,0.0,0.0,0.0,0.0,0.0,0.0,0.0
1606990545086749447,3678107,1606986943135741593,imu_link,-0.0024894927628338337,0.006739872507750988,-0.3634485900402069,0.9315865635871887,0.0,0.0,0.0,0.0,0.0,0.0,0.0,0.0,0.0,-42.628360748291016,0.6158236265182495,-0.5465011596679688,0.0,0.0,0.0,0.0,0.0,0.0,0.0,0.0,0.0,0.0006221989169716835,-0.007919630035758018,0.043976377695798874,0.0,0.0,0.0,0.0,0.0,0.0,0.0,0.0,0.0
1606990545213165352,3678108,1606986943135876455,imu_link,-0.0024894927628338337,0.006739872507750988,-0.3634485900402069,0.9315865635871887,0.0,0.0,0.0,0.0,0.0,0.0,0.0,0.0,0.0,-42.628360748291016,0.6158236265182495,-0.5465011596679688,0.0,0.0,0.0,0.0,0.0,0.0,0.0,0.0,0.0,0.0006221989169716835,-0.007919630035758018,0.043976377695798874,0.0,0.0,0.0,0.0,0.0,0.0,0.0,0.0,0.0
1606990545213205714,3678109,1606986943135993486,imu_link,-0.002488120924681425,0.006740953773260117,-0.3634471893310547,0.9315871000289917,0.0,0.0,0.0,0.0,0.0,0.0,0.0,0.0,0.0,-42.62819290161133,0.6159970164299011,-0.5463988780975342,0.0,0.0,0.0,0.0,0.0,0.0,0.0,0.0,0.0,-0.004009474068880081,0.0025560767389833927,0.05794394761323929,0.0,0.0,0.0,0.0,0.0,0.0,0.0,0.0,0.0
1606990545213222892,3678110,1606986943136099170,imu_link,-0.002488120924681425,0.006740953773260117,-0.3634471893310547,0.9315871000289917,0.0,0.0,0.0,0.0,0.0,0.0,0.0,0.0,0.0,-42.62819290161133,0.6159970164299011,-0.5463988780975342,0.0,0.0,0.0,0.0,0.0,0.0,0.0,0.0,0.0,-0.004009474068880081,0.0025560767389833927,0.05794394761323929,0.0,0.0,0.0,0.0,0.0,0.0,0.0,0.0,0.0
1606990545213244283,3678111,1606986943148522076,imu_link,-0.0024872617796063423,0.006743339356034994,-0.363450288772583,0.9315859079360962,0.0,0.0,0.0,0.0,0.0,0.0,0.0,0.0,0.0,-42.62857437133789,0.6162856817245483,-0.5464085340499878,0.0,0.0,0.0,0.0,0.0,0.0,0.0,0.0,0.0,0.0023225892800837755,0.0037205438129603863,0.05362435430288315,0.0,0.0,0.0,0.0,0.0,0.0,0.0,0.0,0.0
1606990545213265580,3678112,1606986943148693182,imu_link,-0.0024872617796063423,0.006743339356034994,-0.363450288772583,0.9315859079360962,0.0,0.0,0.0,0.0,0.0,0.0,0.0,0.0,0.0,-42.62857437133789,0.6162856817245483,-0.5464085340499878,0.0,0.0,0.0,0.0,0.0,0.0,0.0,0.0,0.0,0.0023225892800837755,0.0037205438129603863,0.05362435430288315,0.0,0.0,0.0,0.0,0.0,0.0,0.0,0.0,0.0
1606990545227788555,3678113,1606986943148816297,imu_link,-0.002488186815753579,0.00674486393108964,-0.3634518086910248,0.9315852522850037,0.0,0.0,0.0,0.0,0.0,0.0,0.0,0.0,0.0,-42.628761291503906,0.6164090037345886,-0.5465718507766724,0.0,0.0,0.0,0.0,0.0,0.0,0.0,0.0,0.0,0.010335191152989864,-0.014026251621544361,0.04676090553402901,0.0,0.0,0.0,0.0,0.0,0.0,0.0,0.0,0.0
1606990545227867723,3678114,1606986943148934445,imu_link,-0.002488186815753579,0.00674486393108964,-0.3634518086910248,0.9315852522850037,0.0,0.0,0.0,0.0,0.0,0.0,0.0,0.0,0.0,-42.628761291503906,0.6164090037345886,-0.5465718507766724,0.0,0.0,0.0,0.0,0.0,0.0,0.0,0.0,0.0,0.010335191152989864,-0.014026251621544361,0.04676090553402901,0.0,0.0,0.0,0.0,0.0,0.0,0.0,0.0,0.0
1606990545227898129,3678115,1606986943149062892,imu_link,-0.0024899241980165243,0.006745443679392338,-0.3634531795978546,0.9315847158432007,0.0,0.0,0.0,0.0,0.0,0.0,0.0,0.0,0.0,-42.628936767578125,0.6163977384567261,-0.546782374382019,0.0,0.0,0.0,0.0,0.0,0.0,0.0,0.0,0.0,-0.0006149831460788846,-0.011594194918870926,0.05199498310685158,0.0,0.0,0.0,0.0,0.0,0.0,0.0,0.0,0.0
1606990545227930002,3678116,1606986943149182098,imu_link,-0.0024899241980165243,0.006745443679392338,-0.3634531795978546,0.9315847158432007,0.0,0.0,0.0,0.0,0.0,0.0,0.0,0.0,0.0,-42.628936767578125,0.6163977384567261,-0.546782374382019,0.0,0.0,0.0,0.0,0.0,0.0,0.0,0.0,0.0,-0.0006149831460788846,-0.011594194918870926,0.05199498310685158,0.0,0.0,0.0,0.0,0.0,0.0,0.0,0.0,0.0
1606990545239680227,3678117,1606986943149320554,imu_link,-0.0024877404794096947,0.006746638100594282,-0.3634544909000397,0.9315841794013977,0.0,0.0,0.0,0.0,0.0,0.0,0.0,0.0,0.0,-42.629093170166016,0.616615355014801,-0.5465998649597168,0.0,0.0,0.0,0.0,0.0,0.0,0.0,0.0,0.0,-0.002389303408563137,-0.0010186022846028209,0.04209557920694351,0.0,0.0,0.0,0.0,0.0,0.0,0.0,0.0,0.0
1606990545239742768,3678118,1606986943149431776,imu_link,-0.0024877404794096947,0.006746638100594282,-0.3634544909000397,0.9315841794013977,0.0,0.0,0.0,0.0,0.0,0.0,0.0,0.0,0.0,-42.629093170166016,0.616615355014801,-0.5465998649597168,0.0,0.0,0.0,0.0,0.0,0.0,0.0,0.0,0.0,-0.002389303408563137,-0.0010186022846028209,0.04209557920694351,0.0,0.0,0.0,0.0,0.0,0.0,0.0,0.0,0.0
1606990545239755215,3678119,1606986943149536839,imu_link,-0.002488766796886921,0.0067453705705702305,-0.36345577239990234,0.9315837025642395,0.0,0.0,0.0,0.0,0.0,0.0,0.0,0.0,0.0,-42.629249572753906,0.6164366006851196,-0.5466574430465698,0.0,0.0,0.0,0.0,0.0,0.0,0.0,0.0,0.0,-0.002284006914123893,0.007680380251258612,0.061326708644628525,0.0,0.0,0.0,0.0,0.0,0.0,0.0,0.0,0.0
1606990545239768213,3678120,1606986943149641416,imu_link,-0.002488766796886921,0.0067453705705702305,-0.36345577239990234,0.9315837025642395,0.0,0.0,0.0,0.0,0.0,0.0,0.0,0.0,0.0,-42.629249572753906,0.6164366006851196,-0.5466574430465698,0.0,0.0,0.0,0.0,0.0,0.0,0.0,0.0,0.0,-0.002284006914123893,0.007680380251258612,0.061326708644628525,0.0,0.0,0.0,0.0,0.0,0.0,0.0,0.0,0.0
1606990545239795785,3678121,1606986943149743748,imu_link,-0.002489883918315172,0.006749158725142479,-0.3634550869464874,0.9315839409828186,0.0,0.0,0.0,0.0,0.0,0.0,0.0,0.0,0.0,-42.62917709350586,0.6167948842048645,-0.546934187412262,0.0,0.0,0.0,0.0,0.0,0.0,0.0,0.0,0.0,-0.005072963889688253,0.0068422239273786545,0.07519567012786865,0.0,0.0,0.0,0.0,0.0,0.0,0.0,0.0,0.0
1606990545248687156,3678122,1606986943162260536,imu_link,-0.002489883918315172,0.006749158725142479,-0.3634550869464874,0.9315839409828186,0.0,0.0,0.0,0.0,0.0,0.0,0.0,0.0,0.0,-42.62917709350586,0.6167948842048645,-0.546934187412262,0.0,0.0,0.0,0.0,0.0,0.0,0.0,0.0,0.0,-0.005072963889688253,0.0068422239273786545,0.07519567012786865,0.0,0.0,0.0,0.0,0.0,0.0,0.0,0.0,0.0
1606990545248752738,3678123,1606986943162430990,imu_link,-0.0024924930185079575,0.006748668849468231,-0.36345797777175903,0.9315828084945679,0.0,0.0,0.0,0.0,0.0,0.0,0.0,0.0,0.0,-42.62953186035156,0.6166321635246277,-0.5471941232681274,0.0,0.0,0.0,0.0,0.0,0.0,0.0,0.0,0.0,0.002193846506997943,0.008879750967025757,0.041402023285627365,0.0,0.0,0.0,0.0,0.0,0.0,0.0,0.0,0.0
1606990545248786380,3678124,1606986943162559031,imu_link,-0.0024924930185079575,0.006748668849468231,-0.36345797777175903,0.9315828084945679,0.0,0.0,0.0,0.0,0.0,0.0,0.0,0.0,0.0,-42.62953186035156,0.6166321635246277,-0.5471941232681274,0.0,0.0,0.0,0.0,0.0,0.0,0.0,0.0,0.0,0.002193846506997943,0.008879750967025757,0.041402023285627365,0.0,0.0,0.0,0.0,0.0,0.0,0.0,0.0,0.0
1606990545248807073,3678125,1606986943162679039,imu_link,-0.002493001287803054,0.00674802903085947,-0.3634573519229889,0.9315831065177917,0.0,0.0,0.0,0.0,0.0,0.0,0.0,0.0,0.0,-42.62944793701172,0.616543173789978,-0.547221302986145,0.0,0.0,0.0,0.0,0.0,0.0,0.0,0.0,0.0,0.000390770350350067,0.01819300651550293,0.02497320994734764,0.0,0.0,0.0,0.0,0.0,0.0,0.0,0.0,0.0
1606990545314546568,3678126,1606986943162795960,imu_link,-0.002493001287803054,0.00674802903085947,-0.3634573519229889,0.9315831065177917,0.0,0.0,0.0,0.0,0.0,0.0,0.0,0.0,0.0,-42.62944793701172,0.616543173789978,-0.547221302986145,0.0,0.0,0.0,0.0,0.0,0.0,0.0,0.0,0.0,0.000390770350350067,0.01819300651550293,0.02497320994734764,0.0,0.0,0.0,0.0,0.0,0.0,0.0,0.0,0.0
1606990545314576959,3678127,1606986943162914494,imu_link,-0.0024946739431470633,0.0067456564866006374,-0.36345869302749634,0.9315825700759888,0.0,0.0,0.0,0.0,0.0,0.0,0.0,0.0,0.0,-42.629615783691406,0.6162193417549133,-0.5473020076751709,0.0,0.0,0.0,0.0,0.0,0.0,0.0,0.0,0.0,-0.006592518649995327,0.016960809007287025,0.02829417772591114,0.0,0.0,0.0,0.0,0.0,0.0,0.0,0.0,0.0
1606990545314626881,3678128,1606986943163097011,imu_link,-0.0024946739431470633,0.0067456564866006374,-0.36345869302749634,0.9315825700759888,0.0,0.0,0.0,0.0,0.0,0.0,0.0,0.0,0.0,-42.629615783691406,0.6162193417549133,-0.5473020076751709,0.0,0.0,0.0,0.0,0.0,0.0,0.0,0.0,0.0,-0.006592518649995327,0.016960809007287025,0.02829417772591114,0.0,0.0,0.0,0.0,0.0,0.0,0.0,0.0,0.0
1606990545314637032,3678129,1606986943163214348,imu_link,-0.0024991652462631464,0.006748804356902838,-0.3634600043296814,0.9315820336341858,0.0,0.0,0.0,0.0,0.0,0.0,0.0,0.0,0.0,-42.62977981567383,0.6163675785064697,-0.5479135513305664,0.0,0.0,0.0,0.0,0.0,0.0,0.0,0.0,0.0,-0.00974173191934824,-0.0024117720313370228,0.05902990698814392,0.0,0.0,0.0,0.0,0.0,0.0,0.0,0.0,0.0
1606990545314682523,3678130,1606986943163319090,imu_link,-0.0024991652462631464,0.006748804356902838,-0.3634600043296814,0.9315820336341858,0.0,0.0,0.0,0.0,0.0,0.0,0.0,0.0,0.0,-42.62977981567383,0.6163675785064697,-0.5479135513305664,0.0,0.0,0.0,0.0,0.0,0.0,0.0,0.0,0.0,-0.00974173191934824,-0.0024117720313370228,0.05902990698814392,0.0,0.0,0.0,0.0,0.0,0.0,0.0,0.0,0.0
1606990545358044348,3678131,1606986943163429190,imu_link,-0.0024986197240650654,0.006750521250069141,-0.36346110701560974,0.9315815567970276,0.0,0.0,0.0,0.0,0.0,0.0,0.0,0.0,0.0,-42.629920959472656,0.6165728569030762,-0.5479274988174438,0.0,0.0,0.0,0.0,0.0,0.0,0.0,0.0,0.0,-0.006694760639220476,-0.009402952156960964,0.07267481833696365,0.0,0.0,0.0,0.0,0.0,0.0,0.0,0.0,0.0
1606990545358085149,3678132,1606986943163537325,imu_link,-0.0024986197240650654,0.006750521250069141,-0.36346110701560974,0.9315815567970276,0.0,0.0,0.0,0.0,0.0,0.0,0.0,0.0,0.0,-42.629920959472656,0.6165728569030762,-0.5479274988174438,0.0,0.0,0.0,0.0,0.0,0.0,0.0,0.0,0.0,-0.006694760639220476,-0.009402952156960964,0.07267481833696365,0.0,0.0,0.0,0.0,0.0,0.0,0.0,0.0,0.0
1606990545358101453,3678133,1606986943175660713,imu_link,-0.002497344510629773,0.006750253960490227,-0.36346134543418884,0.9315814971923828,0.0,0.0,0.0,0.0,0.0,0.0,0.0,0.0,0.0,-42.629947662353516,0.6165973544120789,-0.5477803349494934,0.0,0.0,0.0,0.0,0.0,0.0,0.0,0.0,0.0,0.016741586849093437,0.004634281154721975,0.06306097656488419,0.0,0.0,0.0,0.0,0.0,0.0,0.0,0.0,0.0
1606990545358115412,3678134,1606986943175827749,imu_link,-0.002497344510629773,0.006750253960490227,-0.36346134543418884,0.9315814971923828,0.0,0.0,0.0,0.0,0.0,0.0,0.0,0.0,0.0,-42.629947662353516,0.6165973544120789,-0.5477803349494934,0.0,0.0,0.0,0.0,0.0,0.0,0.0,0.0,0.0,0.016741586849093437,0.004634281154721975,0.06306097656488419,0.0,0.0,0.0,0.0,0.0,0.0,0.0,0.0,0.0
1606990545410004398,3678135,1606986943175961363,imu_link,-0.00249565951526165,0.006749543361365795,-0.3634607195854187,0.9315817356109619,0.0,0.0,0.0,0.0,0.0,0.0,0.0,0.0,0.0,-42.62986373901367,0.6165920495986938,-0.547570526599884,0.0,0.0,0.0,0.0,0.0,0.0,0.0,0.0,0.0,0.01458940003067255,0.002599625615403056,0.06650914996862411,0.0,0.0,0.0,0.0,0.0,0.0,0.0,0.0,0.0
1606990545410064440,3678136,1606986943176094477,imu_link,-0.00249565951526165,0.006749543361365795,-0.3634607195854187,0.9315817356109619,0.0,0.0,0.0,0.0,0.0,0.0,0.0,0.0,0.0,-42.62986373901367,0.6165920495986938,-0.547570526599884,0.0,0.0,0.0,0.0,0.0,0.0,0.0,0.0,0.0,0.01458940003067255,0.002599625615403056,0.06650914996862411,0.0,0.0,0.0,0.0,0.0,0.0,0.0,0.0,0.0
1606990545410115710,3678137,1606986943176215737,imu_link,-0.0024955414701253176,0.006754036992788315,-0.3634602725505829,0.9315818548202515,0.0,0.0,0.0,0.0,0.0,0.0,0.0,0.0,0.0,-42.62982177734375,0.6170769333839417,-0.5477448105812073,0.0,0.0,0.0,0.0,0.0,0.0,0.0,0.0,0.0,-0.002405361272394657,-8.234375854954123e-05,0.05131777748465538,0.0,0.0,0.0,0.0,0.0,0.0,0.0,0.0,0.0
1606990545410143250,3678138,1606986943176360773,imu_link,-0.0024955414701253176,0.006754036992788315,-0.3634602725505829,0.9315818548202515,0.0,0.0,0.0,0.0,0.0,0.0,0.0,0.0,0.0,-42.62982177734375,0.6170769333839417,-0.5477448105812073,0.0,0.0,0.0,0.0,0.0,0.0,0.0,0.0,0.0,-0.002405361272394657,-8.234375854954123e-05,0.05131777748465538,0.0,0.0,0.0,0.0,0.0,0.0,0.0,0.0,0.0
1606990545410220328,3678139,1606986943176482124,imu_link,-0.002494208747521043,0.006755085662007332,-0.36346110701560974,0.9315815567970276,0.0,0.0,0.0,0.0,0.0,0.0,0.0,0.0,0.0,-42.629920959472656,0.6172438859939575,-0.547646701335907,0.0,0.0,0.0,0.0,0.0,0.0,0.0,0.0,0.0,0.017295531928539276,0.012312851846218109,0.03807154670357704,0.0,0.0,0.0,0.0,0.0,0.0,0.0,0.0,0.0
1606990545419887978,3678140,1606986943176589552,imu_link,-0.002494208747521043,0.006755085662007332,-0.36346110701560974,0.9315815567970276,0.0,0.0,0.0,0.0,0.0,0.0,0.0,0.0,0.0,-42.629920959472656,0.6172438859939575,-0.547646701335907,0.0,0.0,0.0,0.0,0.0,0.0,0.0,0.0,0.0,0.017295531928539276,0.012312851846218109,0.03807154670357704,0.0,0.0,0.0,0.0,0.0,0.0,0.0,0.0,0.0
1606990545419946082,3678141,1606986943176692631,imu_link,-0.002496026922017336,0.006759492214769125,-0.3634626269340515,0.9315809607505798,0.0,0.0,0.0,0.0,0.0,0.0,0.0,0.0,0.0,-42.63011169433594,0.6176376938819885,-0.5480254292488098,0.0,0.0,0.0,0.0,0.0,0.0,0.0,0.0,0.0,-0.0008871316094882786,0.008243800140917301,0.053311787545681,0.0,0.0,0.0,0.0,0.0,0.0,0.0,0.0,0.0
1606990545419998152,3678142,1606986943176795203,imu_link,-0.002496026922017336,0.006759492214769125,-0.3634626269340515,0.9315809607505798,0.0,0.0,0.0,0.0,0.0,0.0,0.0,0.0,0.0,-42.63011169433594,0.6176376938819885,-0.5480254292488098,0.0,0.0,0.0,0.0,0.0,0.0,0.0,0.0,0.0,-0.0008871316094882786,0.008243800140917301,0.053311787545681,0.0,0.0,0.0,0.0,0.0,0.0,0.0,0.0,0.0
1606990545420017954,3678143,1606986943176897751,imu_link,-0.0024952345993369818,0.006760106422007084,-0.3634612560272217,0.9315814971923828,0.0,0.0,0.0,0.0,0.0,0.0,0.0,0.0,0.0,-42.629940032958984,0.6177371144294739,-0.5479655265808105,0.0,0.0,0.0,0.0,0.0,0.0,0.0,0.0,0.0,-0.023122627288103104,0.0062759616412222385,0.07882034778594971,0.0,0.0,0.0,0.0,0.0,0.0,0.0,0.0,0.0
1606990545489493196,3678144,1606986943188644972,imu_link,-0.0024952345993369818,0.006760106422007084,-0.3634612560272217,0.9315814971923828,0.0,0.0,0.0,0.0,0.0,0.0,0.0,0.0,0.0,-42.629940032958984,0.6177371144294739,-0.5479655265808105,0.0,0.0,0.0,0.0,0.0,0.0,0.0,0.0,0.0,-0.023122627288103104,0.0062759616412222385,0.07882034778594971,0.0,0.0,0.0,0.0,0.0,0.0,0.0,0.0,0.0
1606990545489515601,3678145,1606986943188817582,imu_link,-0.002498070476576686,0.006756594870239496,-0.3634611666202545,0.9315815567970276,0.0,0.0,0.0,0.0,0.0,0.0,0.0,0.0,0.0,-42.62992858886719,0.6172441840171814,-0.5481219291687012,0.0,0.0,0.0,0.0,0.0,0.0,0.0,0.0,0.0,-0.00330691272392869,0.007582321297377348,0.08066700398921967,0.0,0.0,0.0,0.0,0.0,0.0,0.0,0.0,0.0
1606990545489542500,3678146,1606986943188943418,imu_link,-0.002498070476576686,0.006756594870239496,-0.3634611666202545,0.9315815567970276,0.0,0.0,0.0,0.0,0.0,0.0,0.0,0.0,0.0,-42.62992858886719,0.6172441840171814,-0.5481219291687012,0.0,0.0,0.0,0.0,0.0,0.0,0.0,0.0,0.0,-0.00330691272392869,0.007582321297377348,0.08066700398921967,0.0,0.0,0.0,0.0,0.0,0.0,0.0,0.0,0.0
1606990545489552263,3678147,1606986943189064102,imu_link,-0.00249766674824059,0.006755035370588303,-0.363461971282959,0.9315812587738037,0.0,0.0,0.0,0.0,0.0,0.0,0.0,0.0,0.0,-42.630027770996094,0.6170940399169922,-0.5480144619941711,0.0,0.0,0.0,0.0,0.0,0.0,0.0,0.0,0.0,-0.012768297456204891,-0.002766150049865246,0.077208012342453,0.0,0.0,0.0,0.0,0.0,0.0,0.0,0.0,0.0
1606990545489568620,3678148,1606986943189183844,imu_link,-0.00249766674824059,0.006755035370588303,-0.363461971282959,0.9315812587738037,0.0,0.0,0.0,0.0,0.0,0.0,0.0,0.0,0.0,-42.630027770996094,0.6170940399169922,-0.5480144619941711,0.0,0.0,0.0,0.0,0.0,0.0,0.0,0.0,0.0,-0.012768297456204891,-0.002766150049865246,0.077208012342453,0.0,0.0,0.0,0.0,0.0,0.0,0.0,0.0,0.0
1606990545497257679,3678149,1606986943189322074,imu_link,-0.002496509812772274,0.006753393914550543,-0.36346226930618286,0.9315810799598694,0.0,0.0,0.0,0.0,0.0,0.0,0.0,0.0,0.0,-42.63006591796875,0.616966724395752,-0.5478227138519287,0.0,0.0,0.0,0.0,0.0,0.0,0.0,0.0,0.0,-0.013016480952501297,0.01801890879869461,0.05518881976604462,0.0,0.0,0.0,0.0,0.0,0.0,0.0,0.0,0.0
1606990545497276340,3678150,1606986943189441044,imu_link,-0.002496509812772274,0.006753393914550543,-0.36346226930618286,0.9315810799598694,0.0,0.0,0.0,0.0,0.0,0.0,0.0,0.0,0.0,-42.63006591796875,0.616966724395752,-0.5478227138519287,0.0,0.0,0.0,0.0,0.0,0.0,0.0,0.0,0.0,-0.013016480952501297,0.01801890879869461,0.05518881976604462,0.0,0.0,0.0,0.0,0.0,0.0,0.0,0.0,0.0
1606990545497297651,3678151,1606986943189551555,imu_link,-0.002495942870154977,0.006754595320671797,-0.363462895154953,0.9315808415412903,0.0,0.0,0.0,0.0,0.0,0.0,0.0,0.0,0.0,-42.63014602661133,0.6171182990074158,-0.5478126406669617,0.0,0.0,0.0,0.0,0.0,0.0,0.0,0.0,0.0,0.009353379718959332,0.026994748041033745,0.04670746996998787,0.0,0.0,0.0,0.0,0.0,0.0,0.0,0.0,0.0
1606990545497307594,3678152,1606986943189662422,imu_link,-0.002495942870154977,0.006754595320671797,-0.363462895154953,0.9315808415412903,0.0,0.0,0.0,0.0,0.0,0.0,0.0,0.0,0.0,-42.63014602661133,0.6171182990074158,-0.5478126406669617,0.0,0.0,0.0,0.0,0.0,0.0,0.0,0.0,0.0,0.009353379718959332,0.026994748041033745,0.04670746996998787,0.0,0.0,0.0,0.0,0.0,0.0,0.0,0.0,0.0
1606990545519444334,3678153,1606986943189774857,imu_link,-0.0024996467400342226,0.006759044714272022,-0.36346200108528137,0.9315811395645142,0.0,0.0,0.0,0.0,0.0,0.0,0.0,0.0,0.0,-42.63003921508789,0.6174394488334656,-0.5483928322792053,0.0,0.0,0.0,0.0,0.0,0.0,0.0,0.0,0.0,-0.006763827987015247,0.0038036881014704704,0.04926501214504242,0.0,0.0,0.0,0.0,0.0,0.0,0.0,0.0,0.0
1606990545519478056,3678154,1606986943202438384,imu_link,-0.0024996467400342226,0.006759044714272022,-0.36346200108528137,0.9315811395645142,0.0,0.0,0.0,0.0,0.0,0.0,0.0,0.0,0.0,-42.63003921508789,0.6174394488334656,-0.5483928322792053,0.0,0.0,0.0,0.0,0.0,0.0,0.0,0.0,0.0,-0.006763827987015247,0.0038036881014704704,0.04926501214504242,0.0,0.0,0.0,0.0,0.0,0.0,0.0,0.0,0.0
1606990545519498470,3678155,1606986943202606964,imu_link,-0.002501568989828229,0.006758775562047958,-0.3634655475616455,0.9315797686576843,0.0,0.0,0.0,0.0,0.0,0.0,0.0,0.0,0.0,-42.63047409057617,0.6173285841941833,-0.5485891699790955,0.0,0.0,0.0,0.0,0.0,0.0,0.0,0.0,0.0,-0.039392273873090744,-0.011991051957011223,0.040452949702739716,0.0,0.0,0.0,0.0,0.0,0.0,0.0,0.0,0.0
1606990545519517702,3678156,1606986943202727694,imu_link,-0.002501568989828229,0.006758775562047958,-0.3634655475616455,0.9315797686576843,0.0,0.0,0.0,0.0,0.0,0.0,0.0,0.0,0.0,-42.63047409057617,0.6173285841941833,-0.5485891699790955,0.0,0.0,0.0,0.0,0.0,0.0,0.0,0.0,0.0,-0.039392273873090744,-0.011991051957011223,0.040452949702739716,0.0,0.0,0.0,0.0,0.0,0.0,0.0,0.0,0.0
1606990545545309907,3678157,1606986943202844720,imu_link,-0.002503426047042012,0.006752659101039171,-0.36346596479415894,0.9315796494483948,0.0,0.0,0.0,0.0,0.0,0.0,0.0,0.0,0.0,-42.63051986694336,0.6165980696678162,-0.5485329031944275,0.0,0.0,0.0,0.0,0.0,0.0,0.0,0.0,0.0,-0.02149355784058571,-0.010625100694596767,0.04196488857269287,0.0,0.0,0.0,0.0,0.0,0.0,0.0,0.0,0.0
1606990545545340858,3678158,1606986943203009225,imu_link,-0.002503426047042012,0.006752659101039171,-0.36346596479415894,0.9315796494483948,0.0,0.0,0.0,0.0,0.0,0.0,0.0,0.0,0.0,-42.63051986694336,0.6165980696678162,-0.5485329031944275,0.0,0.0,0.0,0.0,0.0,0.0,0.0,0.0,0.0,-0.02149355784058571,-0.010625100694596767,0.04196488857269287,0.0,0.0,0.0,0.0,0.0,0.0,0.0,0.0,0.0
1606990545545374275,3678159,1606986943203147901,imu_link,-0.0025021403562277555,0.006752512417733669,-0.3634669780731201,0.9315792918205261,0.0,0.0,0.0,0.0,0.0,0.0,0.0,0.0,0.0,-42.630645751953125,0.6166353821754456,-0.5483901500701904,0.0,0.0,0.0,0.0,0.0,0.0,0.0,0.0,0.0,0.00762277003377676,0.007799376267939806,0.050465378910303116,0.0,0.0,0.0,0.0,0.0,0.0,0.0,0.0,0.0
1606990545545384924,3678160,1606986943203294260,imu_link,-0.0025021403562277555,0.006752512417733669,-0.3634669780731201,0.9315792918205261,0.0,0.0,0.0,0.0,0.0,0.0,0.0,0.0,0.0,-42.630645751953125,0.6166353821754456,-0.5483901500701904,0.0,0.0,0.0,0.0,0.0,0.0,0.0,0.0,0.0,0.00762277003377676,0.007799376267939806,0.050465378910303116,0.0,0.0,0.0,0.0,0.0,0.0,0.0,0.0,0.0
1606990545545409346,3678161,1606986943203408499,imu_link,-0.0025039520114660263,0.006756872870028019,-0.3634694814682007,0.9315782785415649,0.0,0.0,0.0,0.0,0.0,0.0,0.0,0.0,0.0,-42.630958557128906,0.6170239448547363,-0.5487669110298157,0.0,0.0,0.0,0.0,0.0,0.0,0.0,0.0,0.0,0.0037281110417097807,0.015494014136493206,0.0465705581009388,0.0,0.0,0.0,0.0,0.0,0.0,0.0,0.0,0.0
1606990545630437772,3678162,1606986943203512405,imu_link,-0.0025039520114660263,0.006756872870028019,-0.3634694814682007,0.9315782785415649,0.0,0.0,0.0,0.0,0.0,0.0,0.0,0.0,0.0,-42.630958557128906,0.6170239448547363,-0.5487669110298157,0.0,0.0,0.0,0.0,0.0,0.0,0.0,0.0,0.0,0.0037281110417097807,0.015494014136493206,0.0465705581009388,0.0,0.0,0.0,0.0,0.0,0.0,0.0,0.0,0.0
1606990545630467449,3678163,1606986943203615007,imu_link,-0.0025030726101249456,0.0067560700699687,-0.36347249150276184,0.9315770864486694,0.0,0.0,0.0,0.0,0.0,0.0,0.0,0.0,0.0,-42.63132858276367,0.6169731020927429,-0.548641562461853,0.0,0.0,0.0,0.0,0.0,0.0,0.0,0.0,0.0,-0.01584143564105034,0.008694014512002468,0.04885648936033249,0.0,0.0,0.0,0.0,0.0,0.0,0.0,0.0,0.0
1606990545630478441,3678164,1606986943203717439,imu_link,-0.0025030726101249456,0.0067560700699687,-0.36347249150276184,0.9315770864486694,0.0,0.0,0.0,0.0,0.0,0.0,0.0,0.0,0.0,-42.63132858276367,0.6169731020927429,-0.548641562461853,0.0,0.0,0.0,0.0,0.0,0.0,0.0,0.0,0.0,-0.01584143564105034,0.008694014512002468,0.04885648936033249,0.0,0.0,0.0,0.0,0.0,0.0,0.0,0.0,0.0
1606990545630487118,3678165,1606986943215906549,imu_link,-0.002505834447219968,0.006753817200660706,-0.36347347497940063,0.9315767288208008,0.0,0.0,0.0,0.0,0.0,0.0,0.0,0.0,0.0,-42.631446838378906,0.6166170239448547,-0.5488432049751282,0.0,0.0,0.0,0.0,0.0,0.0,0.0,0.0,0.0,-0.008356948383152485,-0.0029048449359834194,0.05694839358329773,0.0,0.0,0.0,0.0,0.0,0.0,0.0,0.0,0.0
1606990545647293034,3678166,1606986943216080491,imu_link,-0.002505834447219968,0.006753817200660706,-0.36347347497940063,0.9315767288208008,0.0,0.0,0.0,0.0,0.0,0.0,0.0,0.0,0.0,-42.631446838378906,0.6166170239448547,-0.5488432049751282,0.0,0.0,0.0,0.0,0.0,0.0,0.0,0.0,0.0,-0.008356948383152485,-0.0029048449359834194,0.05694839358329773,0.0,0.0,0.0,0.0,0.0,0.0,0.0,0.0,0.0
1606990545647323636,3678167,1606986943216207946,imu_link,-0.0025057171005755663,0.006753416731953621,-0.36347299814224243,0.9315769076347351,0.0,0.0,0.0,0.0,0.0,0.0,0.0,0.0,0.0,-42.63138961791992,0.6165794134140015,-0.5488137006759644,0.0,0.0,0.0,0.0,0.0,0.0,0.0,0.0,0.0,-0.0007414676365442574,-0.00844709575176239,0.0458553209900856,0.0,0.0,0.0,0.0,0.0,0.0,0.0,0.0,0.0
1606990545647390594,3678168,1606986943216331567,imu_link,-0.0025057171005755663,0.006753416731953621,-0.36347299814224243,0.9315769076347351,0.0,0.0,0.0,0.0,0.0,0.0,0.0,0.0,0.0,-42.63138961791992,0.6165794134140015,-0.5488137006759644,0.0,0.0,0.0,0.0,0.0,0.0,0.0,0.0,0.0,-0.0007414676365442574,-0.00844709575176239,0.0458553209900856,0.0,0.0,0.0,0.0,0.0,0.0,0.0,0.0,0.0
1606990545647407289,3678169,1606986943216452257,imu_link,-0.002503755735233426,0.006752075627446175,-0.36347323656082153,0.9315768480300903,0.0,0.0,0.0,0.0,0.0,0.0,0.0,0.0,0.0,-42.63141632080078,0.6165177822113037,-0.5485485792160034,0.0,0.0,0.0,0.0,0.0,0.0,0.0,0.0,0.0,-0.008598385378718376,-0.003817446995526552,0.07762633264064789,0.0,0.0,0.0,0.0,0.0,0.0,0.0,0.0,0.0
1606990545647431678,3678170,1606986943216573362,imu_link,-0.002503755735233426,0.006752075627446175,-0.36347323656082153,0.9315768480300903,0.0,0.0,0.0,0.0,0.0,0.0,0.0,0.0,0.0,-42.63141632080078,0.6165177822113037,-0.5485485792160034,0.0,0.0,0.0,0.0,0.0,0.0,0.0,0.0,0.0,-0.008598385378718376,-0.003817446995526552,0.07762633264064789,0.0,0.0,0.0,0.0,0.0,0.0,0.0,0.0,0.0
1606990545656905091,3678171,1606986943216707758,imu_link,-0.00250303465873003,0.006752731278538704,-0.3634743392467499,0.9315764307975769,0.0,0.0,0.0,0.0,0.0,0.0,0.0,0.0,0.0,-42.63154983520508,0.6166171431541443,-0.5484996438026428,0.0,0.0,0.0,0.0,0.0,0.0,0.0,0.0,0.0,0.0034270300529897213,-0.003958459012210369,0.07432368397712708,0.0,0.0,0.0,0.0,0.0,0.0,0.0,0.0,0.0
1606990545656941704,3678172,1606986943216821125,imu_link,-0.00250303465873003,0.006752731278538704,-0.3634743392467499,0.9315764307975769,0.0,0.0,0.0,0.0,0.0,0.0,0.0,0.0,0.0,-42.63154983520508,0.6166171431541443,-0.5484996438026428,0.0,0.0,0.0,0.0,0.0,0.0,0.0,0.0,0.0,0.0034270300529897213,-0.003958459012210369,0.07432368397712708,0.0,0.0,0.0,0.0,0.0,0.0,0.0,0.0,0.0
1606990545656964076,3678173,1606986943216930413,imu_link,-0.0025036390870809555,0.006753805559128523,-0.36347562074661255,0.9315758347511292,0.0,0.0,0.0,0.0,0.0,0.0,0.0,0.0,0.0,-42.631710052490234,0.6167058348655701,-0.5486098527908325,0.0,0.0,0.0,0.0,0.0,0.0,0.0,0.0,0.0,0.009093966335058212,0.0032138845417648554,0.04259351268410683,0.0,0.0,0.0,0.0,0.0,0.0,0.0,0.0,0.0
1606990545656990440,3678174,1606986943217034444,imu_link,-0.0025036390870809555,0.006753805559128523,-0.36347562074661255,0.9315758347511292,0.0,0.0,0.0,0.0,0.0,0.0,0.0,0.0,0.0,-42.631710052490234,0.6167058348655701,-0.5486098527908325,0.0,0.0,0.0,0.0,0.0,0.0,0.0,0.0,0.0,0.009093966335058212,0.0032138845417648554,0.04259351268410683,0.0,0.0,0.0,0.0,0.0,0.0,0.0,0.0,0.0
1606990545669403928,3678175,1606986943217137638,imu_link,-0.0025037769228219986,0.006754067726433277,-0.3634747862815857,0.9315761923789978,0.0,0.0,0.0,0.0,0.0,0.0,0.0,0.0,0.0,-42.63160705566406,0.616728663444519,-0.5486348867416382,0.0,0.0,0.0,0.0,0.0,0.0,0.0,0.0,0.0,-0.007148489821702242,0.012931069359183311,0.03200972452759743,0.0,0.0,0.0,0.0,0.0,0.0,0.0,0.0,0.0
1606990545669470285,3678176,1606986943229596256,imu_link,-0.0025037769228219986,0.006754067726433277,-0.3634747862815857,0.9315761923789978,0.0,0.0,0.0,0.0,0.0,0.0,0.0,0.0,0.0,-42.63160705566406,0.616728663444519,-0.5486348867416382,0.0,0.0,0.0,0.0,0.0,0.0,0.0,0.0,0.0,-0.007148489821702242,0.012931069359183311,0.03200972452759743,0.0,0.0,0.0,0.0,0.0,0.0,0.0,0.0,0.0
1606990545669490265,3678177,1606986943229724312,imu_link,-0.002507645171135664,0.006752882618457079,-0.36347484588623047,0.9315761923789978,0.0,0.0,0.0,0.0,0.0,0.0,0.0,0.0,0.0,-42.631614685058594,0.6164409518241882,-0.5489984750747681,0.0,0.0,0.0,0.0,0.0,0.0,0.0,0.0,0.0,-0.008184297941625118,-0.00617112684994936,0.03421630337834358,0.0,0.0,0.0,0.0,0.0,0.0,0.0,0.0,0.0
1606990545669516413,3678178,1606986943229836953,imu_link,-0.002507645171135664,0.006752882618457079,-0.36347484588623047,0.9315761923789978,0.0,0.0,0.0,0.0,0.0,0.0,0.0,0.0,0.0,-42.631614685058594,0.6164409518241882,-0.5489984750747681,0.0,0.0,0.0,0.0,0.0,0.0,0.0,0.0,0.0,-0.008184297941625118,-0.00617112684994936,0.03421630337834358,0.0,0.0,0.0,0.0,0.0,0.0,0.0,0.0,0.0
1606990545669535650,3678179,1606986943229947709,imu_link,-0.00250949221663177,0.006753550376743078,-0.3634754419326782,0.9315759539604187,0.0,0.0,0.0,0.0,0.0,0.0,0.0,0.0,0.0,-42.631690979003906,0.6164349913597107,-0.5492238998413086,0.0,0.0,0.0,0.0,0.0,0.0,0.0,0.0,0.0,-0.006408694665879011,-0.020421963185071945,0.0364479199051857,0.0,0.0,0.0,0.0,0.0,0.0,0.0,0.0,0.0
1606990545791482302,3678180,1606986943230059152,imu_link,-0.00250949221663177,0.006753550376743078,-0.3634754419326782,0.9315759539604187,0.0,0.0,0.0,0.0,0.0,0.0,0.0,0.0,0.0,-42.631690979003906,0.6164349913597107,-0.5492238998413086,0.0,0.0,0.0,0.0,0.0,0.0,0.0,0.0,0.0,-0.006408694665879011,-0.020421963185071945,0.0364479199051857,0.0,0.0,0.0,0.0,0.0,0.0,0.0,0.0,0.0
1606990545791521520,3678181,1606986943230169117,imu_link,-0.002506423043087125,0.006752165965735912,-0.363476037979126,0.9315757155418396,0.0,0.0,0.0,0.0,0.0,0.0,0.0,0.0,0.0,-42.63176345825195,0.6164146661758423,-0.5488389730453491,0.0,0.0,0.0,0.0,0.0,0.0,0.0,0.0,0.0,0.003932275343686342,0.0018512270180508494,0.0378924161195755,0.0,0.0,0.0,0.0,0.0,0.0,0.0,0.0,0.0
1606990545791539091,3678182,1606986943230289660,imu_link,-0.002506423043087125,0.006752165965735912,-0.363476037979126,0.9315757155418396,0.0,0.0,0.0,0.0,0.0,0.0,0.0,0.0,0.0,-42.63176345825195,0.6164146661758423,-0.5488389730453491,0.0,0.0,0.0,0.0,0.0,0.0,0.0,0.0,0.0,0.003932275343686342,0.0018512270180508494,0.0378924161195755,0.0,0.0,0.0,0.0,0.0,0.0,0.0,0.0,0.0
1606990545791596952,3678183,1606986943230397305,imu_link,-0.002505687763914466,0.0067503731697797775,-0.36347678303718567,0.9315754771232605,0.0,0.0,0.0,0.0,0.0,0.0,0.0,0.0,0.0,-42.6318473815918,0.6162534356117249,-0.5486862659454346,0.0,0.0,0.0,0.0,0.0,0.0,0.0,0.0,0.0,0.011844710446894169,0.0008133547380566597,0.0549609512090683,0.0,0.0,0.0,0.0,0.0,0.0,0.0,0.0,0.0
1606990545798541334,3678184,1606986943230502593,imu_link,-0.002505687763914466,0.0067503731697797775,-0.36347678303718567,0.9315754771232605,0.0,0.0,0.0,0.0,0.0,0.0,0.0,0.0,0.0,-42.6318473815918,0.6162534356117249,-0.5486862659454346,0.0,0.0,0.0,0.0,0.0,0.0,0.0,0.0,0.0,0.011844710446894169,0.0008133547380566597,0.0549609512090683,0.0,0.0,0.0,0.0,0.0,0.0,0.0,0.0,0.0
1606990545798584197,3678185,1606986943230606298,imu_link,-0.0025060444604605436,0.006751022767275572,-0.3634788691997528,0.9315746426582336,0.0,0.0,0.0,0.0,0.0,0.0,0.0,0.0,0.0,-42.63210678100586,0.6163067817687988,-0.5487528443336487,0.0,0.0,0.0,0.0,0.0,0.0,0.0,0.0,0.0,-0.008778381161391735,-0.015512174926698208,0.059825632721185684,0.0,0.0,0.0,0.0,0.0,0.0,0.0,0.0,0.0
1606990545798616158,3678186,1606986943230708154,imu_link,-0.0025060444604605436,0.006751022767275572,-0.3634788691997528,0.9315746426582336,0.0,0.0,0.0,0.0,0.0,0.0,0.0,0.0,0.0,-42.63210678100586,0.6163067817687988,-0.5487528443336487,0.0,0.0,0.0,0.0,0.0,0.0,0.0,0.0,0.0,-0.008778381161391735,-0.015512174926698208,0.059825632721185684,0.0,0.0,0.0,0.0,0.0,0.0,0.0,0.0,0.0
1606990545798638577,3678187,1606986943243242031,imu_link,-0.0025074018631130457,0.006751646287739277,-0.36348074674606323,0.9315739274024963,0.0,0.0,0.0,0.0,0.0,0.0,0.0,0.0,0.0,-42.63233947753906,0.6163156628608704,-0.5489248037338257,0.0,0.0,0.0,0.0,0.0,0.0,0.0,0.0,0.0,-0.008586340583860874,-0.007932079955935478,0.05985640734434128,0.0,0.0,0.0,0.0,0.0,0.0,0.0,0.0,0.0
1606990545798687402,3678188,1606986943243429470,imu_link,-0.0025074018631130457,0.006751646287739277,-0.36348074674606323,0.9315739274024963,0.0,0.0,0.0,0.0,0.0,0.0,0.0,0.0,0.0,-42.63233947753906,0.6163156628608704,-0.5489248037338257,0.0,0.0,0.0,0.0,0.0,0.0,0.0,0.0,0.0,-0.008586340583860874,-0.007932079955935478,0.05985640734434128,0.0,0.0,0.0,0.0,0.0,0.0,0.0,0.0,0.0
1606990545825487271,3678189,1606986943243556850,imu_link,-0.0025071685668081045,0.006748984567821026,-0.3634839653968811,0.931572675704956,0.0,0.0,0.0,0.0,0.0,0.0,0.0,0.0,0.0,-42.63273239135742,0.6160393357276917,-0.5487911701202393,0.0,0.0,0.0,0.0,0.0,0.0,0.0,0.0,0.0,0.015062753111124039,0.0004842942289542407,0.03232116252183914,0.0,0.0,0.0,0.0,0.0,0.0,0.0,0.0,0.0
1606990545825518485,3678190,1606986943243677689,imu_link,-0.0025071685668081045,0.006748984567821026,-0.3634839653968811,0.931572675704956,0.0,0.0,0.0,0.0,0.0,0.0,0.0,0.0,0.0,-42.63273239135742,0.6160393357276917,-0.5487911701202393,0.0,0.0,0.0,0.0,0.0,0.0,0.0,0.0,0.0,0.015062753111124039,0.0004842942289542407,0.03232116252183914,0.0,0.0,0.0,0.0,0.0,0.0,0.0,0.0,0.0
1606990545825535116,3678191,1606986943243795452,imu_link,-0.0025069918483495712,0.006750752683728933,-0.3634839653968811,0.931572675704956,0.0,0.0,0.0,0.0,0.0,0.0,0.0,0.0,0.0,-42.63273239135742,0.6162354946136475,-0.5488459467887878,0.0,0.0,0.0,0.0,0.0,0.0,0.0,0.0,0.0,0.017587857320904732,-0.013277346268296242,0.0423036552965641,0.0,0.0,0.0,0.0,0.0,0.0,0.0,0.0,0.0
1606990545825559424,3678192,1606986943243943284,imu_link,-0.0025069918483495712,0.006750752683728933,-0.3634839653968811,0.931572675704956,0.0,0.0,0.0,0.0,0.0,0.0,0.0,0.0,0.0,-42.63273239135742,0.6162354946136475,-0.5488459467887878,0.0,0.0,0.0,0.0,0.0,0.0,0.0,0.0,0.0,0.017587857320904732,-0.013277346268296242,0.0423036552965641,0.0,0.0,0.0,0.0,0.0,0.0,0.0,0.0,0.0
1606990545829967628,3678193,1606986943244064745,imu_link,-0.002502634422853589,0.0067544011399149895,-0.3634842038154602,0.9315725564956665,0.0,0.0,0.0,0.0,0.0,0.0,0.0,0.0,0.0,-42.63276290893555,0.6168062686920166,-0.548533022403717,0.0,0.0,0.0,0.0,0.0,0.0,0.0,0.0,0.0,0.005630976054817438,-0.019969986751675606,0.0607745386660099,0.0,0.0,0.0,0.0,0.0,0.0,0.0,0.0,0.0
1606990545830015762,3678194,1606986943244180603,imu_link,-0.002502634422853589,0.0067544011399149895,-0.3634842038154602,0.9315725564956665,0.0,0.0,0.0,0.0,0.0,0.0,0.0,0.0,0.0,-42.63276290893555,0.6168062686920166,-0.548533022403717,0.0,0.0,0.0,0.0,0.0,0.0,0.0,0.0,0.0,0.005630976054817438,-0.019969986751675606,0.0607745386660099,0.0,0.0,0.0,0.0,0.0,0.0,0.0,0.0,0.0
1606990545830044717,3678195,1606986943244285220,imu_link,-0.0025003866758197546,0.006754928268492222,-0.3634837567806244,0.931572675704956,0.0,0.0,0.0,0.0,0.0,0.0,0.0,0.0,0.0,-42.632713317871094,0.6169564127922058,-0.5483147501945496,0.0,0.0,0.0,0.0,0.0,0.0,0.0,0.0,0.0,-0.0015300021041184664,-0.005616413429379463,0.05050932243466377,0.0,0.0,0.0,0.0,0.0,0.0,0.0,0.0,0.0
1606990545830062501,3678196,1606986943244387647,imu_link,-0.0025003866758197546,0.006754928268492222,-0.3634837567806244,0.931572675704956,0.0,0.0,0.0,0.0,0.0,0.0,0.0,0.0,0.0,-42.632713317871094,0.6169564127922058,-0.5483147501945496,0.0,0.0,0.0,0.0,0.0,0.0,0.0,0.0,0.0,-0.0015300021041184664,-0.005616413429379463,0.05050932243466377,0.0,0.0,0.0,0.0,0.0,0.0,0.0,0.0,0.0
1606990545830102058,3678197,1606986943244494961,imu_link,-0.002498466521501541,0.006754276342689991,-0.36348459124565125,0.9315723776817322,0.0,0.0,0.0,0.0,0.0,0.0,0.0,0.0,0.0,-42.632808685302734,0.6169663071632385,-0.5480831861495972,0.0,0.0,0.0,0.0,0.0,0.0,0.0,0.0,0.0,-0.0005739732296206057,-0.012458390556275845,0.059841226786375046,0.0,0.0,0.0,0.0,0.0,0.0,0.0,0.0,0.0
1606990545890730748,3678198,1606986943255951364,imu_link,-0.002498466521501541,0.006754276342689991,-0.36348459124565125,0.9315723776817322,0.0,0.0,0.0,0.0,0.0,0.0,0.0,0.0,0.0,-42.632808685302734,0.6169663071632385,-0.5480831861495972,0.0,0.0,0.0,0.0,0.0,0.0,0.0,0.0,0.0,-0.0005739732296206057,-0.012458390556275845,0.059841226786375046,0.0,0.0,0.0,0.0,0.0,0.0,0.0,0.0,0.0
1606990545890760790,3678199,1606986943256077035,imu_link,-0.002499757567420602,0.006755418609827757,-0.3634837865829468,0.931572675704956,0.0,0.0,0.0,0.0,0.0,0.0,0.0,0.0,0.0,-42.63271713256836,0.6170349717140198,-0.5482680201530457,0.0,0.0,0.0,0.0,0.0,0.0,0.0,0.0,0.0,-0.01095061469823122,-0.015454878099262714,0.04225528985261917,0.0,0.0,0.0,0.0,0.0,0.0,0.0,0.0,0.0
1606990545890775246,3678200,1606986943256191059,imu_link,-0.002499757567420602,0.006755418609827757,-0.3634837865829468,0.931572675704956,0.0,0.0,0.0,0.0,0.0,0.0,0.0,0.0,0.0,-42.63271713256836,0.6170349717140198,-0.5482680201530457,0.0,0.0,0.0,0.0,0.0,0.0,0.0,0.0,0.0,-0.01095061469823122,-0.015454878099262714,0.04225528985261917,0.0,0.0,0.0,0.0,0.0,0.0,0.0,0.0,0.0
1606990545890822804,3678201,1606986943256304166,imu_link,-0.002498246729373932,0.006748687010258436,-0.3634832799434662,0.9315729737281799,0.0,0.0,0.0,0.0,0.0,0.0,0.0,0.0,0.0,-42.63263702392578,0.6163796782493591,-0.5478259325027466,0.0,0.0,0.0,0.0,0.0,0.0,0.0,0.0,0.0,-0.008300228044390678,-0.0005134062375873327,0.025031037628650665,0.0,0.0,0.0,0.0,0.0,0.0,0.0,0.0,0.0
1606990545902528293,3678202,1606986943256414301,imu_link,-0.002498246729373932,0.006748687010258436,-0.3634832799434662,0.9315729737281799,0.0,0.0,0.0,0.0,0.0,0.0,0.0,0.0,0.0,-42.63263702392578,0.6163796782493591,-0.5478259325027466,0.0,0.0,0.0,0.0,0.0,0.0,0.0,0.0,0.0,-0.008300228044390678,-0.0005134062375873327,0.025031037628650665,0.0,0.0,0.0,0.0,0.0,0.0,0.0,0.0,0.0
1606990545902552231,3678203,1606986943256541746,imu_link,-0.0024984958581626415,0.0067491112276911736,-0.3634845018386841,0.9315724968910217,0.0,0.0,0.0,0.0,0.0,0.0,0.0,0.0,0.0,-42.63279342651367,0.6164138317108154,-0.5478709936141968,0.0,0.0,0.0,0.0,0.0,0.0,0.0,0.0,0.0,0.0017465013079345226,-0.011128919199109077,0.04298572242259979,0.0,0.0,0.0,0.0,0.0,0.0,0.0,0.0,0.0
1606990545902565725,3678204,1606986943256650918,imu_link,-0.0024984958581626415,0.0067491112276911736,-0.3634845018386841,0.9315724968910217,0.0,0.0,0.0,0.0,0.0,0.0,0.0,0.0,0.0,-42.63279342651367,0.6164138317108154,-0.5478709936141968,0.0,0.0,0.0,0.0,0.0,0.0,0.0,0.0,0.0,0.0017465013079345226,-0.011128919199109077,0.04298572242259979,0.0,0.0,0.0,0.0,0.0,0.0,0.0,0.0,0.0
1606990545902581949,3678205,1606986943256754523,imu_link,-0.002496622037142515,0.006750009022653103,-0.3634859323501587,0.9315718412399292,0.0,0.0,0.0,0.0,0.0,0.0,0.0,0.0,0.0,-42.632972717285156,0.6165868043899536,-0.5477093458175659,0.0,0.0,0.0,0.0,0.0,0.0,0.0,0.0,0.0,0.0019182742107659578,-0.03367088735103607,0.060918595641851425,0.0,0.0,0.0,0.0,0.0,0.0,0.0,0.0,0.0
1606990545902611810,3678206,1606986943256856269,imu_link,-0.002496622037142515,0.006750009022653103,-0.3634859323501587,0.9315718412399292,0.0,0.0,0.0,0.0,0.0,0.0,0.0,0.0,0.0,-42.632972717285156,0.6165868043899536,-0.5477093458175659,0.0,0.0,0.0,0.0,0.0,0.0,0.0,0.0,0.0,0.0019182742107659578,-0.03367088735103607,0.060918595641851425,0.0,0.0,0.0,0.0,0.0,0.0,0.0,0.0,0.0
1606990545908042052,3678207,1606986943256957503,imu_link,-0.00249552633613348,0.006749813910573721,-0.3634881377220154,0.9315710663795471,0.0,0.0,0.0,0.0,0.0,0.0,0.0,0.0,0.0,-42.63323974609375,0.6166104078292847,-0.547585666179657,0.0,0.0,0.0,0.0,0.0,0.0,0.0,0.0,0.0,0.011118208989501,-0.02229006588459015,0.07121261954307556,0.0,0.0,0.0,0.0,0.0,0.0,0.0,0.0,0.0
1606990545908103687,3678208,1606986943269949646,imu_link,-0.00249552633613348,0.006749813910573721,-0.3634881377220154,0.9315710663795471,0.0,0.0,0.0,0.0,0.0,0.0,0.0,0.0,0.0,-42.63323974609375,0.6166104078292847,-0.547585666179657,0.0,0.0,0.0,0.0,0.0,0.0,0.0,0.0,0.0,0.011118208989501,-0.02229006588459015,0.07121261954307556,0.0,0.0,0.0,0.0,0.0,0.0,0.0,0.0,0.0
1606990545908120377,3678209,1606986943270121654,imu_link,-0.002490854589268565,0.006752843502908945,-0.36348849534988403,0.9315709471702576,0.0,0.0,0.0,0.0,0.0,0.0,0.0,0.0,0.0,-42.63328552246094,0.6171282529830933,-0.5472133159637451,0.0,0.0,0.0,0.0,0.0,0.0,0.0,0.0,0.0,0.00667795492336154,0.0019208575831726193,0.06701082736253738,0.0,0.0,0.0,0.0,0.0,0.0,0.0,0.0,0.0
1606990545908155517,3678210,1606986943270250532,imu_link,-0.002490854589268565,0.006752843502908945,-0.36348849534988403,0.9315709471702576,0.0,0.0,0.0,0.0,0.0,0.0,0.0,0.0,0.0,-42.63328552246094,0.6171282529830933,-0.5472133159637451,0.0,0.0,0.0,0.0,0.0,0.0,0.0,0.0,0.0,0.00667795492336154,0.0019208575831726193,0.06701082736253738,0.0,0.0,0.0,0.0,0.0,0.0,0.0,0.0,0.0
1606990545928165937,3678211,1606986943270371276,imu_link,-0.0024921500589698553,0.006754497066140175,-0.3634874224662781,0.9315713047981262,0.0,0.0,0.0,0.0,0.0,0.0,0.0,0.0,0.0,-42.633155822753906,0.6172513365745544,-0.5474199056625366,0.0,0.0,0.0,0.0,0.0,0.0,0.0,0.0,0.0,0.0118033979088068,-0.003735932754352689,0.05697832256555557,0.0,0.0,0.0,0.0,0.0,0.0,0.0,0.0,0.0
1606990545928192719,3678212,1606986943270491084,imu_link,-0.0024921500589698553,0.006754497066140175,-0.3634874224662781,0.9315713047981262,0.0,0.0,0.0,0.0,0.0,0.0,0.0,0.0,0.0,-42.633155822753906,0.6172513365745544,-0.5474199056625366,0.0,0.0,0.0,0.0,0.0,0.0,0.0,0.0,0.0,0.0118033979088068,-0.003735932754352689,0.05697832256555557,0.0,0.0,0.0,0.0,0.0,0.0,0.0,0.0,0.0
1606990545928254361,3678213,1606986943270609513,imu_link,-0.0024888357147574425,0.0067560807801783085,-0.3634900450706482,0.9315703511238098,0.0,0.0,0.0,0.0,0.0,0.0,0.0,0.0,0.0,-42.633480072021484,0.6175569891929626,-0.54713374376297,0.0,0.0,0.0,0.0,0.0,0.0,0.0,0.0,0.0,-0.001177552156150341,-0.017177876085042953,0.033166225999593735,0.0,0.0,0.0,0.0,0.0,0.0,0.0,0.0,0.0
1606990545928263686,3678214,1606986943270745979,imu_link,-0.0024888357147574425,0.0067560807801783085,-0.3634900450706482,0.9315703511238098,0.0,0.0,0.0,0.0,0.0,0.0,0.0,0.0,0.0,-42.633480072021484,0.6175569891929626,-0.54713374376297,0.0,0.0,0.0,0.0,0.0,0.0,0.0,0.0,0.0,-0.001177552156150341,-0.017177876085042953,0.033166225999593735,0.0,0.0,0.0,0.0,0.0,0.0,0.0,0.0,0.0
1606990545928273090,3678215,1606986943270863661,imu_link,-0.0024897425901144743,0.006756600923836231,-0.363492488861084,0.9315693378448486,0.0,0.0,0.0,0.0,0.0,0.0,0.0,0.0,0.0,-42.6337776184082,0.6175732612609863,-0.5472538471221924,0.0,0.0,0.0,0.0,0.0,0.0,0.0,0.0,0.0,-0.01231473684310913,-0.01275203563272953,0.0316043384373188,0.0,0.0,0.0,0.0,0.0,0.0,0.0,0.0,0.0
1606990546035954083,3678216,1606986943271015162,imu_link,-0.0024897425901144743,0.006756600923836231,-0.363492488861084,0.9315693378448486,0.0,0.0,0.0,0.0,0.0,0.0,0.0,0.0,0.0,-42.6337776184082,0.6175732612609863,-0.5472538471221924,0.0,0.0,0.0,0.0,0.0,0.0,0.0,0.0,0.0,-0.01231473684310913,-0.01275203563272953,0.0316043384373188,0.0,0.0,0.0,0.0,0.0,0.0,0.0,0.0,0.0
1606990546035988993,3678217,1606986943271128108,imu_link,-0.0024880042765289545,0.00675184465944767,-0.36349454522132874,0.9315685629844666,0.0,0.0,0.0,0.0,0.0,0.0,0.0,0.0,0.0,-42.634033203125,0.6171367168426514,-0.546871542930603,0.0,0.0,0.0,0.0,0.0,0.0,0.0,0.0,0.0,-0.0028975417371839285,-0.013883690349757671,0.06052294373512268,0.0,0.0,0.0,0.0,0.0,0.0,0.0,0.0,0.0
1606990546036002156,3678218,1606986943271232139,imu_link,-0.0024880042765289545,0.00675184465944767,-0.36349454522132874,0.9315685629844666,0.0,0.0,0.0,0.0,0.0,0.0,0.0,0.0,0.0,-42.634033203125,0.6171367168426514,-0.546871542930603,0.0,0.0,0.0,0.0,0.0,0.0,0.0,0.0,0.0,-0.0028975417371839285,-0.013883690349757671,0.06052294373512268,0.0,0.0,0.0,0.0,0.0,0.0,0.0,0.0,0.0
1606990546036033917,3678219,1606986943283306628,imu_link,-0.002489070873707533,0.0067527033388614655,-0.3634953200817108,0.9315682649612427,0.0,0.0,0.0,0.0,0.0,0.0,0.0,0.0,0.0,-42.63412094116211,0.6171836256980896,-0.5470216274261475,0.0,0.0,0.0,0.0,0.0,0.0,0.0,0.0,0.0,-0.00036990997614338994,-0.007936188019812107,0.05994023382663727,0.0,0.0,0.0,0.0,0.0,0.0,0.0,0.0,0.0
1606990546046811571,3678220,1606986943283477729,imu_link,-0.002489070873707533,0.0067527033388614655,-0.3634953200817108,0.9315682649612427,0.0,0.0,0.0,0.0,0.0,0.0,0.0,0.0,0.0,-42.63412094116211,0.6171836256980896,-0.5470216274261475,0.0,0.0,0.0,0.0,0.0,0.0,0.0,0.0,0.0,-0.00036990997614338994,-0.007936188019812107,0.05994023382663727,0.0,0.0,0.0,0.0,0.0,0.0,0.0,0.0,0.0
1606990546046888614,3678221,1606986943283602347,imu_link,-0.002489846432581544,0.006752161309123039,-0.3634963631629944,0.9315678477287292,0.0,0.0,0.0,0.0,0.0,0.0,0.0,0.0,0.0,-42.63425064086914,0.6170927882194519,-0.5470825433731079,0.0,0.0,0.0,0.0,0.0,0.0,0.0,0.0,0.0,0.005936380475759506,0.006574474740773439,0.06759091466665268,0.0,0.0,0.0,0.0,0.0,0.0,0.0,0.0,0.0
1606990546046921532,3678222,1606986943283724204,imu_link,-0.002489846432581544,0.006752161309123039,-0.3634963631629944,0.9315678477287292,0.0,0.0,0.0,0.0,0.0,0.0,0.0,0.0,0.0,-42.63425064086914,0.6170927882194519,-0.5470825433731079,0.0,0.0,0.0,0.0,0.0,0.0,0.0,0.0,0.0,0.005936380475759506,0.006574474740773439,0.06759091466665268,0.0,0.0,0.0,0.0,0.0,0.0,0.0,0.0,0.0
1606990546046933310,3678223,1606986943283840188,imu_link,-0.00248983153142035,0.00675295852124691,-0.36349862813949585,0.9315669536590576,0.0,0.0,0.0,0.0,0.0,0.0,0.0,0.0,0.0,-42.63452911376953,0.6171771287918091,-0.5471156239509583,0.0,0.0,0.0,0.0,0.0,0.0,0.0,0.0,0.0,-0.005171874538064003,0.014886947348713875,0.07754713296890259,0.0,0.0,0.0,0.0,0.0,0.0,0.0,0.0,0.0
1606990546046960442,3678224,1606986943283958662,imu_link,-0.00248983153142035,0.00675295852124691,-0.36349862813949585,0.9315669536590576,0.0,0.0,0.0,0.0,0.0,0.0,0.0,0.0,0.0,-42.63452911376953,0.6171771287918091,-0.5471156239509583,0.0,0.0,0.0,0.0,0.0,0.0,0.0,0.0,0.0,-0.005171874538064003,0.014886947348713875,0.07754713296890259,0.0,0.0,0.0,0.0,0.0,0.0,0.0,0.0,0.0
1606990546066940114,3678225,1606986943284093920,imu_link,-0.002493910724297166,0.006753305438905954,-0.36349982023239136,0.9315664768218994,0.0,0.0,0.0,0.0,0.0,0.0,0.0,0.0,0.0,-42.634681701660156,0.6170434951782227,-0.5475663542747498,0.0,0.0,0.0,0.0,0.0,0.0,0.0,0.0,0.0,-0.022161396220326424,0.023063812404870987,0.07889502495527267,0.0,0.0,0.0,0.0,0.0,0.0,0.0,0.0,0.0
1606990546066981673,3678226,1606986943284203574,imu_link,-0.002493910724297166,0.006753305438905954,-0.36349982023239136,0.9315664768218994,0.0,0.0,0.0,0.0,0.0,0.0,0.0,0.0,0.0,-42.634681701660156,0.6170434951782227,-0.5475663542747498,0.0,0.0,0.0,0.0,0.0,0.0,0.0,0.0,0.0,-0.022161396220326424,0.023063812404870987,0.07889502495527267,0.0,0.0,0.0,0.0,0.0,0.0,0.0,0.0,0.0
1606990546067023329,3678227,1606986943284307263,imu_link,-0.0024958986323326826,0.006753172725439072,-0.36350053548812866,0.9315662384033203,0.0,0.0,0.0,0.0,0.0,0.0,0.0,0.0,0.0,-42.634769439697266,0.6169461607933044,-0.547773540019989,0.0,0.0,0.0,0.0,0.0,0.0,0.0,0.0,0.0,-0.014940774068236351,0.010920004919171333,0.07448375225067139,0.0,0.0,0.0,0.0,0.0,0.0,0.0,0.0,0.0
1606990546067053556,3678228,1606986943284411410,imu_link,-0.0024958986323326826,0.006753172725439072,-0.36350053548812866,0.9315662384033203,0.0,0.0,0.0,0.0,0.0,0.0,0.0,0.0,0.0,-42.634769439697266,0.6169461607933044,-0.547773540019989,0.0,0.0,0.0,0.0,0.0,0.0,0.0,0.0,0.0,-0.014940774068236351,0.010920004919171333,0.07448375225067139,0.0,0.0,0.0,0.0,0.0,0.0,0.0,0.0,0.0
1606990546070447416,3678229,1606986943284516397,imu_link,-0.0024978036526590586,0.006749145686626434,-0.36349934339523315,0.9315667152404785,0.0,0.0,0.0,0.0,0.0,0.0,0.0,0.0,0.0,-42.634620666503906,0.6164376139640808,-0.5478082895278931,0.0,0.0,0.0,0.0,0.0,0.0,0.0,0.0,0.0,-0.0035190246999263763,-0.014832627028226852,0.04718374088406563,0.0,0.0,0.0,0.0,0.0,0.0,0.0,0.0,0.0
1606990546070474014,3678230,1606986943297171109,imu_link,-0.0024978036526590586,0.006749145686626434,-0.36349934339523315,0.9315667152404785,0.0,0.0,0.0,0.0,0.0,0.0,0.0,0.0,0.0,-42.634620666503906,0.6164376139640808,-0.5478082895278931,0.0,0.0,0.0,0.0,0.0,0.0,0.0,0.0,0.0,-0.0035190246999263763,-0.014832627028226852,0.04718374088406563,0.0,0.0,0.0,0.0,0.0,0.0,0.0,0.0,0.0
1606990546070490900,3678231,1606986943297342772,imu_link,-0.0024975526612251997,0.006752636283636093,-0.36349913477897644,0.9315667748451233,0.0,0.0,0.0,0.0,0.0,0.0,0.0,0.0,0.0,-42.63459777832031,0.6168208122253418,-0.5479268431663513,0.0,0.0,0.0,0.0,0.0,0.0,0.0,0.0,0.0,0.007722205948084593,-0.017787987366318703,0.03967583179473877,0.0,0.0,0.0,0.0,0.0,0.0,0.0,0.0,0.0
1606990546070507822,3678232,1606986943297469806,imu_link,-0.0024975526612251997,0.006752636283636093,-0.36349913477897644,0.9315667748451233,0.0,0.0,0.0,0.0,0.0,0.0,0.0,0.0,0.0,-42.63459777832031,0.6168208122253418,-0.5479268431663513,0.0,0.0,0.0,0.0,0.0,0.0,0.0,0.0,0.0,0.007722205948084593,-0.017787987366318703,0.03967583179473877,0.0,0.0,0.0,0.0,0.0,0.0,0.0,0.0,0.0
1606990546162391647,3678233,1606986943297587533,imu_link,-0.002496723784133792,0.006753148511052132,-0.3635014593601227,0.9315657615661621,0.0,0.0,0.0,0.0,0.0,0.0,0.0,0.0,0.0,-42.634883880615234,0.6169085502624512,-0.5478612780570984,0.0,0.0,0.0,0.0,0.0,0.0,0.0,0.0,0.0,0.0029729551170021296,0.011460509151220322,0.039854805916547775,0.0,0.0,0.0,0.0,0.0,0.0,0.0,0.0,0.0
1606990546162409659,3678234,1606986943297703281,imu_link,-0.002496723784133792,0.006753148511052132,-0.3635014593601227,0.9315657615661621,0.0,0.0,0.0,0.0,0.0,0.0,0.0,0.0,0.0,-42.634883880615234,0.6169085502624512,-0.5478612780570984,0.0,0.0,0.0,0.0,0.0,0.0,0.0,0.0,0.0,0.0029729551170021296,0.011460509151220322,0.039854805916547775,0.0,0.0,0.0,0.0,0.0,0.0,0.0,0.0,0.0
1606990546162415911,3678235,1606986943297817726,imu_link,-0.0024949617218226194,0.006753509398549795,-0.3635013699531555,0.9315659403800964,0.0,0.0,0.0,0.0,0.0,0.0,0.0,0.0,0.0,-42.63486862182617,0.6170206665992737,-0.5476880669593811,0.0,0.0,0.0,0.0,0.0,0.0,0.0,0.0,0.0,-0.014533430337905884,0.02165910229086876,0.03640073165297508,0.0,0.0,0.0,0.0,0.0,0.0,0.0,0.0,0.0
1606990546162424605,3678236,1606986943297954507,imu_link,-0.0024949617218226194,0.006753509398549795,-0.3635013699531555,0.9315659403800964,0.0,0.0,0.0,0.0,0.0,0.0,0.0,0.0,0.0,-42.63486862182617,0.6170206665992737,-0.5476880669593811,0.0,0.0,0.0,0.0,0.0,0.0,0.0,0.0,0.0,-0.014533430337905884,0.02165910229086876,0.03640073165297508,0.0,0.0,0.0,0.0,0.0,0.0,0.0,0.0,0.0
1606990546162443878,3678237,1606986943298071884,imu_link,-0.002500861417502165,0.006753828842192888,-0.363500714302063,0.931566059589386,0.0,0.0,0.0,0.0,0.0,0.0,0.0,0.0,0.0,-42.634796142578125,0.6168092489242554,-0.5483308434486389,0.0,0.0,0.0,0.0,0.0,0.0,0.0,0.0,0.0,-0.007801572792232037,0.016093792393803596,0.025021692737936974,0.0,0.0,0.0,0.0,0.0,0.0,0.0,0.0,0.0
1606990546201391818,3678238,1606986943298177488,imu_link,-0.002500861417502165,0.006753828842192888,-0.363500714302063,0.931566059589386,0.0,0.0,0.0,0.0,0.0,0.0,0.0,0.0,0.0,-42.634796142578125,0.6168092489242554,-0.5483308434486389,0.0,0.0,0.0,0.0,0.0,0.0,0.0,0.0,0.0,-0.007801572792232037,0.016093792393803596,0.025021692737936974,0.0,0.0,0.0,0.0,0.0,0.0,0.0,0.0,0.0
1606990546201406177,3678239,1606986943298279444,imu_link,-0.0025011966936290264,0.006754757836461067,-0.36350148916244507,0.9315658211708069,0.0,0.0,0.0,0.0,0.0,0.0,0.0,0.0,0.0,-42.634891510009766,0.6168940663337708,-0.5484057664871216,0.0,0.0,0.0,0.0,0.0,0.0,0.0,0.0,0.0,0.0036618500016629696,0.011300446465611458,0.0182101558893919,0.0,0.0,0.0,0.0,0.0,0.0,0.0,0.0,0.0
1606990546201421757,3678240,1606986943298384142,imu_link,-0.0025011966936290264,0.006754757836461067,-0.36350148916244507,0.9315658211708069,0.0,0.0,0.0,0.0,0.0,0.0,0.0,0.0,0.0,-42.634891510009766,0.6168940663337708,-0.5484057664871216,0.0,0.0,0.0,0.0,0.0,0.0,0.0,0.0,0.0,0.0036618500016629696,0.011300446465611458,0.0182101558893919,0.0,0.0,0.0,0.0,0.0,0.0,0.0,0.0,0.0
1606990546201428978,3678241,1606986943310635330,imu_link,-0.0025006921496242285,0.006756127346307039,-0.36350178718566895,0.9315656423568726,0.0,0.0,0.0,0.0,0.0,0.0,0.0,0.0,0.0,-42.63492965698242,0.6170610785484314,-0.5484092235565186,0.0,0.0,0.0,0.0,0.0,0.0,0.0,0.0,0.0,-0.00198701536282897,0.01405084878206253,0.04024215042591095,0.0,0.0,0.0,0.0,0.0,0.0,0.0,0.0,0.0
1606990546211610684,3678242,1606986943310814645,imu_link,-0.0025006921496242285,0.006756127346307039,-0.36350178718566895,0.9315656423568726,0.0,0.0,0.0,0.0,0.0,0.0,0.0,0.0,0.0,-42.63492965698242,0.6170610785484314,-0.5484092235565186,0.0,0.0,0.0,0.0,0.0,0.0,0.0,0.0,0.0,-0.00198701536282897,0.01405084878206253,0.04024215042591095,0.0,0.0,0.0,0.0,0.0,0.0,0.0,0.0,0.0
1606990546211629029,3678243,1606986943310988868,imu_link,-0.0025006290525197983,0.006756489630788565,-0.36350107192993164,0.9315659403800964,0.0,0.0,0.0,0.0,0.0,0.0,0.0,0.0,0.0,-42.63484573364258,0.6171028017997742,-0.5484171509742737,0.0,0.0,0.0,0.0,0.0,0.0,0.0,0.0,0.0,0.003026337828487158,0.018319906666874886,0.06966840475797653,0.0,0.0,0.0,0.0,0.0,0.0,0.0,0.0,0.0
1606990546211649176,3678244,1606986943311142062,imu_link,-0.0025006290525197983,0.006756489630788565,-0.36350107192993164,0.9315659403800964,0.0,0.0,0.0,0.0,0.0,0.0,0.0,0.0,0.0,-42.63484573364258,0.6171028017997742,-0.5484171509742737,0.0,0.0,0.0,0.0,0.0,0.0,0.0,0.0,0.0,0.003026337828487158,0.018319906666874886,0.06966840475797653,0.0,0.0,0.0,0.0,0.0,0.0,0.0,0.0,0.0
1606990546211658738,3678245,1606986943311267402,imu_link,-0.002505389740690589,0.006758901756256819,-0.36350196599960327,0.9315655827522278,0.0,0.0,0.0,0.0,0.0,0.0,0.0,0.0,0.0,-42.634952545166016,0.6171615123748779,-0.5490264296531677,0.0,0.0,0.0,0.0,0.0,0.0,0.0,0.0,0.0,0.007656838744878769,0.0026955485809594393,0.08011369407176971,0.0,0.0,0.0,0.0,0.0,0.0,0.0,0.0,0.0
1606990546211663416,3678246,1606986943311413596,imu_link,-0.002505389740690589,0.006758901756256819,-0.36350196599960327,0.9315655827522278,0.0,0.0,0.0,0.0,0.0,0.0,0.0,0.0,0.0,-42.634952545166016,0.6171615123748779,-0.5490264296531677,0.0,0.0,0.0,0.0,0.0,0.0,0.0,0.0,0.0,0.007656838744878769,0.0026955485809594393,0.08011369407176971,0.0,0.0,0.0,0.0,0.0,0.0,0.0,0.0,0.0
1606990546264384285,3678247,1606986943311536099,imu_link,-0.002505912911146879,0.006759960204362869,-0.36350345611572266,0.93156498670578,0.0,0.0,0.0,0.0,0.0,0.0,0.0,0.0,0.0,-42.63513946533203,0.6172518134117126,-0.549127459526062,0.0,0.0,0.0,0.0,0.0,0.0,0.0,0.0,0.0,-0.004079774953424931,0.009926244616508484,0.07469254732131958,0.0,0.0,0.0,0.0,0.0,0.0,0.0,0.0,0.0
1606990546264403392,3678248,1606986943311647612,imu_link,-0.002505912911146879,0.006759960204362869,-0.36350345611572266,0.93156498670578,0.0,0.0,0.0,0.0,0.0,0.0,0.0,0.0,0.0,-42.63513946533203,0.6172518134117126,-0.549127459526062,0.0,0.0,0.0,0.0,0.0,0.0,0.0,0.0,0.0,-0.004079774953424931,0.009926244616508484,0.07469254732131958,0.0,0.0,0.0,0.0,0.0,0.0,0.0,0.0,0.0
1606990546264414041,3678249,1606986943311753066,imu_link,-0.0025098223704844713,0.006758403033018112,-0.36350497603416443,0.9315643906593323,0.0,0.0,0.0,0.0,0.0,0.0,0.0,0.0,0.0,-42.63533020019531,0.6169217824935913,-0.5494809150695801,0.0,0.0,0.0,0.0,0.0,0.0,0.0,0.0,0.0,0.002735113026574254,0.01998632773756981,0.04808339476585388,0.0,0.0,0.0,0.0,0.0,0.0,0.0,0.0,0.0
1606990546264422260,3678250,1606986943311858310,imu_link,-0.0025098223704844713,0.006758403033018112,-0.36350497603416443,0.9315643906593323,0.0,0.0,0.0,0.0,0.0,0.0,0.0,0.0,0.0,-42.63533020019531,0.6169217824935913,-0.5494809150695801,0.0,0.0,0.0,0.0,0.0,0.0,0.0,0.0,0.0,0.002735113026574254,0.01998632773756981,0.04808339476585388,0.0,0.0,0.0,0.0,0.0,0.0,0.0,0.0,0.0
1606990546333730366,3678251,1606986943311967863,imu_link,-0.0025083408690989017,0.0067591131664812565,-0.36350560188293457,0.9315641522407532,0.0,0.0,0.0,0.0,0.0,0.0,0.0,0.0,0.0,-42.63540267944336,0.6170589923858643,-0.5493527054786682,0.0,0.0,0.0,0.0,0.0,0.0,0.0,0.0,0.0,0.014238723553717136,0.003027338068932295,0.03936436027288437,0.0,0.0,0.0,0.0,0.0,0.0,0.0,0.0,0.0
1606990546333755953,3678252,1606986943323578479,imu_link,-0.0025083408690989017,0.0067591131664812565,-0.36350560188293457,0.9315641522407532,0.0,0.0,0.0,0.0,0.0,0.0,0.0,0.0,0.0,-42.63540267944336,0.6170589923858643,-0.5493527054786682,0.0,0.0,0.0,0.0,0.0,0.0,0.0,0.0,0.0,0.014238723553717136,0.003027338068932295,0.03936436027288437,0.0,0.0,0.0,0.0,0.0,0.0,0.0,0.0,0.0
1606990546333770041,3678253,1606986943323745180,imu_link,-0.002507350407540798,0.006761644501239061,-0.3635063171386719,0.9315638542175293,0.0,0.0,0.0,0.0,0.0,0.0,0.0,0.0,0.0,-42.635494232177734,0.617370069026947,-0.5493529438972473,0.0,0.0,0.0,0.0,0.0,0.0,0.0,0.0,0.0,0.002863411558791995,-0.006756167858839035,0.04092874377965927,0.0,0.0,0.0,0.0,0.0,0.0,0.0,0.0,0.0
1606990546333792814,3678254,1606986943323872299,imu_link,-0.002507350407540798,0.006761644501239061,-0.3635063171386719,0.9315638542175293,0.0,0.0,0.0,0.0,0.0,0.0,0.0,0.0,0.0,-42.635494232177734,0.617370069026947,-0.5493529438972473,0.0,0.0,0.0,0.0,0.0,0.0,0.0,0.0,0.0,0.002863411558791995,-0.006756167858839035,0.04092874377965927,0.0,0.0,0.0,0.0,0.0,0.0,0.0,0.0,0.0
1606990546333820223,3678255,1606986943323995028,imu_link,-0.002508720150217414,0.006763172801584005,-0.36350613832473755,0.9315639138221741,0.0,0.0,0.0,0.0,0.0,0.0,0.0,0.0,0.0,-42.63547134399414,0.617476224899292,-0.5495626926422119,0.0,0.0,0.0,0.0,0.0,0.0,0.0,0.0,0.0,-0.011991970241069794,-0.0039908671751618385,0.04152954742312431,0.0,0.0,0.0,0.0,0.0,0.0,0.0,0.0,0.0
1606990546341949388,3678256,1606986943324128261,imu_link,-0.002508720150217414,0.006763172801584005,-0.36350613832473755,0.9315639138221741,0.0,0.0,0.0,0.0,0.0,0.0,0.0,0.0,0.0,-42.63547134399414,0.617476224899292,-0.5495626926422119,0.0,0.0,0.0,0.0,0.0,0.0,0.0,0.0,0.0,-0.011991970241069794,-0.0039908671751618385,0.04152954742312431,0.0,0.0,0.0,0.0,0.0,0.0,0.0,0.0,0.0
1606990546341972317,3678257,1606986943324297819,imu_link,-0.0025090144481509924,0.006758686155080795,-0.36350780725479126,0.9315632581710815,0.0,0.0,0.0,0.0,0.0,0.0,0.0,0.0,0.0,-42.635677337646484,0.616983950138092,-0.5494082570075989,0.0,0.0,0.0,0.0,0.0,0.0,0.0,0.0,0.0,-0.0028167483396828175,-0.014192651025950909,0.05701228976249695,0.0,0.0,0.0,0.0,0.0,0.0,0.0,0.0,0.0
1606990546341998179,3678258,1606986943324415215,imu_link,-0.0025090144481509924,0.006758686155080795,-0.36350780725479126,0.9315632581710815,0.0,0.0,0.0,0.0,0.0,0.0,0.0,0.0,0.0,-42.635677337646484,0.616983950138092,-0.5494082570075989,0.0,0.0,0.0,0.0,0.0,0.0,0.0,0.0,0.0,-0.0028167483396828175,-0.014192651025950909,0.05701228976249695,0.0,0.0,0.0,0.0,0.0,0.0,0.0,0.0,0.0
1606990546342013278,3678259,1606986943324528182,imu_link,-0.00250864471308887,0.006759445648640394,-0.3635081648826599,0.931563138961792,0.0,0.0,0.0,0.0,0.0,0.0,0.0,0.0,0.0,-42.635719299316406,0.6170802712440491,-0.5494006872177124,0.0,0.0,0.0,0.0,0.0,0.0,0.0,0.0,0.0,0.012381350621581078,-0.017940031364560127,0.07401993870735168,0.0,0.0,0.0,0.0,0.0,0.0,0.0,0.0,0.0
