%time,field.header.seq,field.header.stamp,field.header.frame_id,field.orientation.x,field.orientation.y,field.orientation.z,field.orientation.w,field.orientation_covariance0,field.orientation_covariance1,field.orientation_covariance2,field.orientation_covariance3,field.orientation_covariance4,field.orientation_covariance5,field.orientation_covariance6,field.orientation_covariance7,field.orientation_covariance8,field.angular_velocity.x,field.angular_velocity.y,field.angular_velocity.z,field.angular_velocity_covariance0,field.angular_velocity_covariance1,field.angular_velocity_covariance2,field.angular_velocity_covariance3,field.angular_velocity_covariance4,field.angular_velocity_covariance5,field.angular_velocity_covariance6,field.angular_velocity_covariance7,field.angular_velocity_covariance8,field.linear_acceleration.x,field.linear_acceleration.y,field.linear_acceleration.z,field.linear_acceleration_covariance0,field.linear_acceleration_covariance1,field.linear_acceleration_covariance2,field.linear_acceleration_covariance3,field.linear_acceleration_covariance4,field.linear_acceleration_covariance5,field.linear_acceleration_covariance6,field.linear_acceleration_covariance7,field.linear_acceleration_covariance8
1606991354114619059,4326258,1606987753342668435,imu_link,0.003413153113797307,0.004702653735876083,0.44495275616645813,0.8955352306365967,0.0,0.0,0.0,0.0,0.0,0.0,0.0,0.0,0.0,52.84318161010742,0.3085622191429138,0.5900574326515198,0.0,0.0,0.0,0.0,0.0,0.0,0.0,0.0,0.0,4.6658358769491315e-05,-0.006326679605990648,0.06449523568153381,0.0,0.0,0.0,0.0,0.0,0.0,0.0,0.0,0.0
1606991354114646255,4326259,1606987753342773540,imu_link,0.0034159396309405565,0.0047027552500367165,0.44495004415512085,0.8955365419387817,0.0,0.0,0.0,0.0,0.0,0.0,0.0,0.0,0.0,52.842830657958984,0.30843228101730347,0.5903477072715759,0.0,0.0,0.0,0.0,0.0,0.0,0.0,0.0,0.0,0.0010907243704423308,-0.010666969232261181,0.04403163492679596,0.0,0.0,0.0,0.0,0.0,0.0,0.0,0.0,0.0
1606991354114665441,4326260,1606987753342898305,imu_link,0.0034159396309405565,0.0047027552500367165,0.44495004415512085,0.8955365419387817,0.0,0.0,0.0,0.0,0.0,0.0,0.0,0.0,0.0,52.842830657958984,0.30843228101730347,0.5903477072715759,0.0,0.0,0.0,0.0,0.0,0.0,0.0,0.0,0.0,0.0010907243704423308,-0.010666969232261181,0.04403163492679596,0.0,0.0,0.0,0.0,0.0,0.0,0.0,0.0,0.0
1606991354114688615,4326261,1606987753342988980,imu_link,0.00341787189245224,0.004704045597463846,0.4449470639228821,0.8955380320549011,0.0,0.0,0.0,0.0,0.0,0.0,0.0,0.0,0.0,52.84244918823242,0.30846819281578064,0.5906107425689697,0.0,0.0,0.0,0.0,0.0,0.0,0.0,0.0,0.0,-0.008592162281274796,-0.001514796749688685,0.0469171479344368,0.0,0.0,0.0,0.0,0.0,0.0,0.0,0.0,0.0
1606991354127108433,4326262,1606987753343051813,imu_link,0.00341787189245224,0.004704045597463846,0.4449470639228821,0.8955380320549011,0.0,0.0,0.0,0.0,0.0,0.0,0.0,0.0,0.0,52.84244918823242,0.30846819281578064,0.5906107425689697,0.0,0.0,0.0,0.0,0.0,0.0,0.0,0.0,0.0,-0.008592162281274796,-0.001514796749688685,0.0469171479344368,0.0,0.0,0.0,0.0,0.0,0.0,0.0,0.0,0.0
1606991354127132010,4326263,1606987753343112028,imu_link,0.00341787189245224,0.004704045597463846,0.4449470639228821,0.8955380320549011,0.0,0.0,0.0,0.0,0.0,0.0,0.0,0.0,0.0,52.84244918823242,0.30846819281578064,0.5906107425689697,0.0,0.0,0.0,0.0,0.0,0.0,0.0,0.0,0.0,-0.005883071571588516,0.015076061710715294,0.04262911155819893,0.0,0.0,0.0,0.0,0.0,0.0,0.0,0.0,0.0
1606991354127166742,4326264,1606987753343186043,imu_link,0.00341787189245224,0.004704045597463846,0.4449470639228821,0.8955380320549011,0.0,0.0,0.0,0.0,0.0,0.0,0.0,0.0,0.0,52.84244918823242,0.30846819281578064,0.5906107425689697,0.0,0.0,0.0,0.0,0.0,0.0,0.0,0.0,0.0,-0.005883071571588516,0.015076061710715294,0.04262911155819893,0.0,0.0,0.0,0.0,0.0,0.0,0.0,0.0,0.0
1606991354127177744,4326265,1606987753343245436,imu_link,0.0034171571023762226,0.004702973645180464,0.44494083523750305,0.8955411314964294,0.0,0.0,0.0,0.0,0.0,0.0,0.0,0.0,0.0,52.841651916503906,0.30839869379997253,0.5904805660247803,0.0,0.0,0.0,0.0,0.0,0.0,0.0,0.0,0.0,0.006256991997361183,0.023590780794620514,0.059844620525836945,0.0,0.0,0.0,0.0,0.0,0.0,0.0,0.0,0.0
1606991354136995417,4326266,1606987753343363863,imu_link,0.0034171571023762226,0.004702973645180464,0.44494083523750305,0.8955411314964294,0.0,0.0,0.0,0.0,0.0,0.0,0.0,0.0,0.0,52.841651916503906,0.30839869379997253,0.5904805660247803,0.0,0.0,0.0,0.0,0.0,0.0,0.0,0.0,0.0,0.006256991997361183,0.023590780794620514,0.059844620525836945,0.0,0.0,0.0,0.0,0.0,0.0,0.0,0.0,0.0
1606991354137040034,4326267,1606987753343425547,imu_link,0.0034154457971453667,0.004704830702394247,0.4449404180049896,0.8955413103103638,0.0,0.0,0.0,0.0,0.0,0.0,0.0,0.0,0.0,52.84160614013672,0.3086768388748169,0.5903995037078857,0.0,0.0,0.0,0.0,0.0,0.0,0.0,0.0,0.0,0.007422963622957468,0.012615799903869629,0.0767088532447815,0.0,0.0,0.0,0.0,0.0,0.0,0.0,0.0,0.0
1606991354137062291,4326268,1606987753343487924,imu_link,0.0034154457971453667,0.004704830702394247,0.4449404180049896,0.8955413103103638,0.0,0.0,0.0,0.0,0.0,0.0,0.0,0.0,0.0,52.84160614013672,0.3086768388748169,0.5903995037078857,0.0,0.0,0.0,0.0,0.0,0.0,0.0,0.0,0.0,0.007422963622957468,0.012615799903869629,0.0767088532447815,0.0,0.0,0.0,0.0,0.0,0.0,0.0,0.0,0.0
1606991354137132456,4326269,1606987753356077648,imu_link,0.0034120765049010515,0.004706020001322031,0.44494616985321045,0.8955384492874146,0.0,0.0,0.0,0.0,0.0,0.0,0.0,0.0,0.0,52.84233856201172,0.30896684527397156,0.5901164412498474,0.0,0.0,0.0,0.0,0.0,0.0,0.0,0.0,0.0,0.011651388369500637,-0.0015857897233217955,0.06960481405258179,0.0,0.0,0.0,0.0,0.0,0.0,0.0,0.0,0.0
1606991354137154335,4326270,1606987753356204305,imu_link,0.0034120765049010515,0.004706020001322031,0.44494616985321045,0.8955384492874146,0.0,0.0,0.0,0.0,0.0,0.0,0.0,0.0,0.0,52.84233856201172,0.30896684527397156,0.5901164412498474,0.0,0.0,0.0,0.0,0.0,0.0,0.0,0.0,0.0,0.011651388369500637,-0.0015857897233217955,0.06960481405258179,0.0,0.0,0.0,0.0,0.0,0.0,0.0,0.0,0.0
1606991354144604192,4326271,1606987753356377578,imu_link,0.0034141249489039183,0.004707160871475935,0.4449446201324463,0.8955392241477966,0.0,0.0,0.0,0.0,0.0,0.0,0.0,0.0,0.0,52.842140197753906,0.3089804947376251,0.5903842449188232,0.0,0.0,0.0,0.0,0.0,0.0,0.0,0.0,0.0,0.00034874514676630497,-0.004515274427831173,0.06707526743412018,0.0,0.0,0.0,0.0,0.0,0.0,0.0,0.0,0.0
1606991354144632397,4326272,1606987753356468214,imu_link,0.0034141249489039183,0.004707160871475935,0.4449446201324463,0.8955392241477966,0.0,0.0,0.0,0.0,0.0,0.0,0.0,0.0,0.0,52.842140197753906,0.3089804947376251,0.5903842449188232,0.0,0.0,0.0,0.0,0.0,0.0,0.0,0.0,0.0,0.00034874514676630497,-0.004515274427831173,0.06707526743412018,0.0,0.0,0.0,0.0,0.0,0.0,0.0,0.0,0.0
1606991354144643660,4326273,1606987753356550115,imu_link,0.00341740227304399,0.0047064791433513165,0.4449502229690552,0.8955364227294922,0.0,0.0,0.0,0.0,0.0,0.0,0.0,0.0,0.0,52.842857360839844,0.3087397813796997,0.5906876921653748,0.0,0.0,0.0,0.0,0.0,0.0,0.0,0.0,0.0,0.005340134259313345,0.005355380941182375,0.08063507825136185,0.0,0.0,0.0,0.0,0.0,0.0,0.0,0.0,0.0
1606991354144656375,4326274,1606987753356643086,imu_link,0.00341740227304399,0.0047064791433513165,0.4449502229690552,0.8955364227294922,0.0,0.0,0.0,0.0,0.0,0.0,0.0,0.0,0.0,52.842857360839844,0.3087397813796997,0.5906876921653748,0.0,0.0,0.0,0.0,0.0,0.0,0.0,0.0,0.0,0.005340134259313345,0.005355380941182375,0.08063507825136185,0.0,0.0,0.0,0.0,0.0,0.0,0.0,0.0,0.0
1606991354184824710,4326275,1606987753356723076,imu_link,0.0034180579241365194,0.004706235136836767,0.44494783878326416,0.8955376148223877,0.0,0.0,0.0,0.0,0.0,0.0,0.0,0.0,0.0,52.842559814453125,0.3086828291416168,0.590741753578186,0.0,0.0,0.0,0.0,0.0,0.0,0.0,0.0,0.0,0.006673874799162149,0.005780392792075872,0.08378521353006363,0.0,0.0,0.0,0.0,0.0,0.0,0.0,0.0,0.0
1606991354184847377,4326276,1606987753356794378,imu_link,0.0034180579241365194,0.004706235136836767,0.44494783878326416,0.8955376148223877,0.0,0.0,0.0,0.0,0.0,0.0,0.0,0.0,0.0,52.842559814453125,0.3086828291416168,0.590741753578186,0.0,0.0,0.0,0.0,0.0,0.0,0.0,0.0,0.0,0.006673874799162149,0.005780392792075872,0.08378521353006363,0.0,0.0,0.0,0.0,0.0,0.0,0.0,0.0,0.0
1606991354184881710,4326277,1606987753356865315,imu_link,0.0034158476628363132,0.004708996508270502,0.4449484646320343,0.8955373167991638,0.0,0.0,0.0,0.0,0.0,0.0,0.0,0.0,0.0,52.84263229370117,0.30907851457595825,0.5906559228897095,0.0,0.0,0.0,0.0,0.0,0.0,0.0,0.0,0.0,-0.0021551032550632954,0.012151806615293026,0.06363580375909805,0.0,0.0,0.0,0.0,0.0,0.0,0.0,0.0,0.0
1606991354184896277,4326278,1606987753356938030,imu_link,0.0034158476628363132,0.004708996508270502,0.4449484646320343,0.8955373167991638,0.0,0.0,0.0,0.0,0.0,0.0,0.0,0.0,0.0,52.84263229370117,0.30907851457595825,0.5906559228897095,0.0,0.0,0.0,0.0,0.0,0.0,0.0,0.0,0.0,-0.0021551032550632954,0.012151806615293026,0.06363580375909805,0.0,0.0,0.0,0.0,0.0,0.0,0.0,0.0,0.0
1606991354184909416,4326279,1606987753357014960,imu_link,0.003415941959246993,0.004708257038146257,0.4449464678764343,0.8955382704734802,0.0,0.0,0.0,0.0,0.0,0.0,0.0,0.0,0.0,52.842384338378906,0.30899906158447266,0.5906272530555725,0.0,0.0,0.0,0.0,0.0,0.0,0.0,0.0,0.0,-0.006888046395033598,0.0140363909304142,0.07426795363426208,0.0,0.0,0.0,0.0,0.0,0.0,0.0,0.0,0.0
1606991354203128195,4326280,1606987753368956679,imu_link,0.003415941959246993,0.004708257038146257,0.4449464678764343,0.8955382704734802,0.0,0.0,0.0,0.0,0.0,0.0,0.0,0.0,0.0,52.842384338378906,0.30899906158447266,0.5906272530555725,0.0,0.0,0.0,0.0,0.0,0.0,0.0,0.0,0.0,-0.006888046395033598,0.0140363909304142,0.07426795363426208,0.0,0.0,0.0,0.0,0.0,0.0,0.0,0.0,0.0
1606991354203150203,4326281,1606987753369084535,imu_link,0.0034139163326472044,0.00470452755689621,0.44494688510894775,0.8955380916595459,0.0,0.0,0.0,0.0,0.0,0.0,0.0,0.0,0.0,52.842430114746094,0.3087193965911865,0.5902293920516968,0.0,0.0,0.0,0.0,0.0,0.0,0.0,0.0,0.0,-0.010448537766933441,-0.0023678303696215153,0.07446175813674927,0.0,0.0,0.0,0.0,0.0,0.0,0.0,0.0,0.0
1606991354203161851,4326282,1606987753369176436,imu_link,0.0034139163326472044,0.00470452755689621,0.44494688510894775,0.8955380916595459,0.0,0.0,0.0,0.0,0.0,0.0,0.0,0.0,0.0,52.842430114746094,0.3087193965911865,0.5902293920516968,0.0,0.0,0.0,0.0,0.0,0.0,0.0,0.0,0.0,-0.010448537766933441,-0.0023678303696215153,0.07446175813674927,0.0,0.0,0.0,0.0,0.0,0.0,0.0,0.0,0.0
1606991354203176410,4326283,1606987753369255474,imu_link,0.0034121184144169092,0.004704861436039209,0.44494619965553284,0.8955384492874146,0.0,0.0,0.0,0.0,0.0,0.0,0.0,0.0,0.0,52.842342376708984,0.3088458180427551,0.590061604976654,0.0,0.0,0.0,0.0,0.0,0.0,0.0,0.0,0.0,-0.002486803336068988,-0.0009724135743454099,0.061846569180488586,0.0,0.0,0.0,0.0,0.0,0.0,0.0,0.0,0.0
1606991354212235191,4326284,1606987753369335379,imu_link,0.0034121184144169092,0.004704861436039209,0.44494619965553284,0.8955384492874146,0.0,0.0,0.0,0.0,0.0,0.0,0.0,0.0,0.0,52.842342376708984,0.3088458180427551,0.590061604976654,0.0,0.0,0.0,0.0,0.0,0.0,0.0,0.0,0.0,-0.002486803336068988,-0.0009724135743454099,0.061846569180488586,0.0,0.0,0.0,0.0,0.0,0.0,0.0,0.0,0.0
1606991354212263804,4326285,1606987753369433317,imu_link,0.0034122192300856113,0.004703793209046125,0.4449493885040283,0.8955368995666504,0.0,0.0,0.0,0.0,0.0,0.0,0.0,0.0,0.0,52.84274673461914,0.308728963136673,0.5900185704231262,0.0,0.0,0.0,0.0,0.0,0.0,0.0,0.0,0.0,-0.0004567662253975868,0.003231144044548273,0.07629293203353882,0.0,0.0,0.0,0.0,0.0,0.0,0.0,0.0,0.0
1606991354212306911,4326286,1606987753369507269,imu_link,0.0034122192300856113,0.004703793209046125,0.4449493885040283,0.8955368995666504,0.0,0.0,0.0,0.0,0.0,0.0,0.0,0.0,0.0,52.84274673461914,0.308728963136673,0.5900185704231262,0.0,0.0,0.0,0.0,0.0,0.0,0.0,0.0,0.0,-0.0004567662253975868,0.003231144044548273,0.07629293203353882,0.0,0.0,0.0,0.0,0.0,0.0,0.0,0.0,0.0
1606991354212325944,4326287,1606987753369580439,imu_link,0.0034122515935450792,0.004702768754214048,0.44494885206222534,0.8955371379852295,0.0,0.0,0.0,0.0,0.0,0.0,0.0,0.0,0.0,52.842681884765625,0.3086225092411041,0.5899695158004761,0.0,0.0,0.0,0.0,0.0,0.0,0.0,0.0,0.0,-0.002799075562506914,0.003542426275089383,0.09073292464017868,0.0,0.0,0.0,0.0,0.0,0.0,0.0,0.0,0.0
1606991354212351720,4326288,1606987753369652281,imu_link,0.0034122515935450792,0.004702768754214048,0.44494885206222534,0.8955371379852295,0.0,0.0,0.0,0.0,0.0,0.0,0.0,0.0,0.0,52.842681884765625,0.3086225092411041,0.5899695158004761,0.0,0.0,0.0,0.0,0.0,0.0,0.0,0.0,0.0,-0.002799075562506914,0.003542426275089383,0.09073292464017868,0.0,0.0,0.0,0.0,0.0,0.0,0.0,0.0,0.0
1606991354216985651,4326289,1606987753369746486,imu_link,0.0034104553051292896,0.00470235338434577,0.444953590631485,0.8955348134040833,0.0,0.0,0.0,0.0,0.0,0.0,0.0,0.0,0.0,52.843284606933594,0.3086684048175812,0.5897656083106995,0.0,0.0,0.0,0.0,0.0,0.0,0.0,0.0,0.0,0.0007597226649522781,0.004237281158566475,0.07933537662029266,0.0,0.0,0.0,0.0,0.0,0.0,0.0,0.0,0.0
1606991354217016846,4326290,1606987753378670722,imu_link,0.0034104553051292896,0.00470235338434577,0.444953590631485,0.8955348134040833,0.0,0.0,0.0,0.0,0.0,0.0,0.0,0.0,0.0,52.843284606933594,0.3086684048175812,0.5897656083106995,0.0,0.0,0.0,0.0,0.0,0.0,0.0,0.0,0.0,0.0007597226649522781,0.004237281158566475,0.07933537662029266,0.0,0.0,0.0,0.0,0.0,0.0,0.0,0.0,0.0
1606991354217101707,4326291,1606987753378793148,imu_link,0.003409188473597169,0.004701899364590645,0.44494953751564026,0.8955368399620056,0.0,0.0,0.0,0.0,0.0,0.0,0.0,0.0,0.0,52.84276580810547,0.30868905782699585,0.5896110534667969,0.0,0.0,0.0,0.0,0.0,0.0,0.0,0.0,0.0,0.0006624571979045868,0.013810118660330772,0.0599040724337101,0.0,0.0,0.0,0.0,0.0,0.0,0.0,0.0,0.0
1606991354217123535,4326292,1606987753379046227,imu_link,0.003409188473597169,0.004701899364590645,0.44494953751564026,0.8955368399620056,0.0,0.0,0.0,0.0,0.0,0.0,0.0,0.0,0.0,52.84276580810547,0.30868905782699585,0.5896110534667969,0.0,0.0,0.0,0.0,0.0,0.0,0.0,0.0,0.0,0.0006624571979045868,0.013810118660330772,0.0599040724337101,0.0,0.0,0.0,0.0,0.0,0.0,0.0,0.0,0.0
1606991354245549256,4326293,1606987753379139326,imu_link,0.0034073409624397755,0.004699430428445339,0.44494742155075073,0.8955379128456116,0.0,0.0,0.0,0.0,0.0,0.0,0.0,0.0,0.0,52.842491149902344,0.3085313141345978,0.5892947912216187,0.0,0.0,0.0,0.0,0.0,0.0,0.0,0.0,0.0,-0.0031251537147909403,0.0194629468023777,0.040759410709142685,0.0,0.0,0.0,0.0,0.0,0.0,0.0,0.0,0.0
1606991354245577261,4326294,1606987753379208812,imu_link,0.0034073409624397755,0.004699430428445339,0.44494742155075073,0.8955379128456116,0.0,0.0,0.0,0.0,0.0,0.0,0.0,0.0,0.0,52.842491149902344,0.3085313141345978,0.5892947912216187,0.0,0.0,0.0,0.0,0.0,0.0,0.0,0.0,0.0,-0.0031251537147909403,0.0194629468023777,0.040759410709142685,0.0,0.0,0.0,0.0,0.0,0.0,0.0,0.0,0.0
1606991354245593957,4326295,1606987753379286975,imu_link,0.0034063966013491154,0.0046981400810182095,0.4449445605278015,0.8955393433570862,0.0,0.0,0.0,0.0,0.0,0.0,0.0,0.0,0.0,52.84212875366211,0.3084489107131958,0.5891311764717102,0.0,0.0,0.0,0.0,0.0,0.0,0.0,0.0,0.0,-0.00013951913570053875,0.015543077141046524,0.0500747412443161,0.0,0.0,0.0,0.0,0.0,0.0,0.0,0.0,0.0
1606991354245601647,4326296,1606987753379359066,imu_link,0.0034063966013491154,0.0046981400810182095,0.4449445605278015,0.8955393433570862,0.0,0.0,0.0,0.0,0.0,0.0,0.0,0.0,0.0,52.84212875366211,0.3084489107131958,0.5891311764717102,0.0,0.0,0.0,0.0,0.0,0.0,0.0,0.0,0.0,-0.00013951913570053875,0.015543077141046524,0.0500747412443161,0.0,0.0,0.0,0.0,0.0,0.0,0.0,0.0,0.0
1606991354245612114,4326297,1606987753379436405,imu_link,0.0034056876320391893,0.00469398545101285,0.4449421763420105,0.8955405354499817,0.0,0.0,0.0,0.0,0.0,0.0,0.0,0.0,0.0,52.84181594848633,0.30806028842926025,0.5888456106185913,0.0,0.0,0.0,0.0,0.0,0.0,0.0,0.0,0.0,0.0054416353814303875,0.011281120590865612,0.06844038516283035,0.0,0.0,0.0,0.0,0.0,0.0,0.0,0.0,0.0
1606991354254974311,4326298,1606987753392687192,imu_link,0.0034056876320391893,0.00469398545101285,0.4449421763420105,0.8955405354499817,0.0,0.0,0.0,0.0,0.0,0.0,0.0,0.0,0.0,52.84181594848633,0.30806028842926025,0.5888456106185913,0.0,0.0,0.0,0.0,0.0,0.0,0.0,0.0,0.0,0.0054416353814303875,0.011281120590865612,0.06844038516283035,0.0,0.0,0.0,0.0,0.0,0.0,0.0,0.0,0.0
1606991354255009895,4326299,1606987753392815867,imu_link,0.0034030580427497625,0.004695181269198656,0.44493940472602844,0.8955419063568115,0.0,0.0,0.0,0.0,0.0,0.0,0.0,0.0,0.0,52.84146499633789,0.3083188831806183,0.5886358022689819,0.0,0.0,0.0,0.0,0.0,0.0,0.0,0.0,0.0,0.011547854170203209,0.0041653732769191265,0.06641671061515808,0.0,0.0,0.0,0.0,0.0,0.0,0.0,0.0,0.0
1606991354255028312,4326300,1606987753392989834,imu_link,0.0034030580427497625,0.004695181269198656,0.44493940472602844,0.8955419063568115,0.0,0.0,0.0,0.0,0.0,0.0,0.0,0.0,0.0,52.84146499633789,0.3083188831806183,0.5886358022689819,0.0,0.0,0.0,0.0,0.0,0.0,0.0,0.0,0.0,0.011547854170203209,0.0041653732769191265,0.06641671061515808,0.0,0.0,0.0,0.0,0.0,0.0,0.0,0.0,0.0
1606991354255104071,4326301,1606987753393067818,imu_link,0.0034019567538052797,0.004699288867413998,0.44493675231933594,0.8955432176589966,0.0,0.0,0.0,0.0,0.0,0.0,0.0,0.0,0.0,52.84112548828125,0.30879828333854675,0.5887313485145569,0.0,0.0,0.0,0.0,0.0,0.0,0.0,0.0,0.0,0.006956845056265593,0.015453144907951355,0.07061844319105148,0.0,0.0,0.0,0.0,0.0,0.0,0.0,0.0,0.0
1606991354301637877,4326302,1606987753393198637,imu_link,0.0034019567538052797,0.004699288867413998,0.44493675231933594,0.8955432176589966,0.0,0.0,0.0,0.0,0.0,0.0,0.0,0.0,0.0,52.84112548828125,0.30879828333854675,0.5887313485145569,0.0,0.0,0.0,0.0,0.0,0.0,0.0,0.0,0.0,0.006956845056265593,0.015453144907951355,0.07061844319105148,0.0,0.0,0.0,0.0,0.0,0.0,0.0,0.0,0.0
1606991354301686039,4326303,1606987753393278792,imu_link,0.0034017283469438553,0.0046980599872767925,0.44493597745895386,0.8955435752868652,0.0,0.0,0.0,0.0,0.0,0.0,0.0,0.0,0.0,52.841026306152344,0.3086842894554138,0.5886449813842773,0.0,0.0,0.0,0.0,0.0,0.0,0.0,0.0,0.0,-0.004494437016546726,0.007650218904018402,0.07797403633594513,0.0,0.0,0.0,0.0,0.0,0.0,0.0,0.0,0.0
1606991354301739099,4326304,1606987753393429892,imu_link,0.0034017283469438553,0.0046980599872767925,0.44493597745895386,0.8955435752868652,0.0,0.0,0.0,0.0,0.0,0.0,0.0,0.0,0.0,52.841026306152344,0.3086842894554138,0.5886449813842773,0.0,0.0,0.0,0.0,0.0,0.0,0.0,0.0,0.0,-0.004494437016546726,0.007650218904018402,0.07797403633594513,0.0,0.0,0.0,0.0,0.0,0.0,0.0,0.0,0.0
1606991354301766210,4326305,1606987753393507214,imu_link,0.003400429617613554,0.004696800373494625,0.44493645429611206,0.8955433964729309,0.0,0.0,0.0,0.0,0.0,0.0,0.0,0.0,0.0,52.841087341308594,0.30862101912498474,0.588447630405426,0.0,0.0,0.0,0.0,0.0,0.0,0.0,0.0,0.0,-0.004224888514727354,-0.014687255024909973,0.07847579568624496,0.0,0.0,0.0,0.0,0.0,0.0,0.0,0.0,0.0
1606991354301815062,4326306,1606987753393648193,imu_link,0.003400429617613554,0.004696800373494625,0.44493645429611206,0.8955433964729309,0.0,0.0,0.0,0.0,0.0,0.0,0.0,0.0,0.0,52.841087341308594,0.30862101912498474,0.588447630405426,0.0,0.0,0.0,0.0,0.0,0.0,0.0,0.0,0.0,-0.004224888514727354,-0.014687255024909973,0.07847579568624496,0.0,0.0,0.0,0.0,0.0,0.0,0.0,0.0,0.0
1606991354308635743,4326307,1606987753393722052,imu_link,0.003401652444154024,0.0046956599690020084,0.4449343681335449,0.8955444097518921,0.0,0.0,0.0,0.0,0.0,0.0,0.0,0.0,0.0,52.840816497802734,0.30844298005104065,0.5885142683982849,0.0,0.0,0.0,0.0,0.0,0.0,0.0,0.0,0.0,0.009342702105641365,-0.007281503174453974,0.07944560796022415,0.0,0.0,0.0,0.0,0.0,0.0,0.0,0.0,0.0
1606991354308698439,4326308,1606987753393789828,imu_link,0.003401652444154024,0.0046956599690020084,0.4449343681335449,0.8955444097518921,0.0,0.0,0.0,0.0,0.0,0.0,0.0,0.0,0.0,52.840816497802734,0.30844298005104065,0.5885142683982849,0.0,0.0,0.0,0.0,0.0,0.0,0.0,0.0,0.0,0.009342702105641365,-0.007281503174453974,0.07944560796022415,0.0,0.0,0.0,0.0,0.0,0.0,0.0,0.0,0.0
1606991354308786480,4326309,1606987753406096180,imu_link,0.00340192299336195,0.004694836679846048,0.4449348747730255,0.895544171333313,0.0,0.0,0.0,0.0,0.0,0.0,0.0,0.0,0.0,52.84088134765625,0.3083443343639374,0.5885001420974731,0.0,0.0,0.0,0.0,0.0,0.0,0.0,0.0,0.0,0.009510107338428497,0.001011859392747283,0.06198324263095856,0.0,0.0,0.0,0.0,0.0,0.0,0.0,0.0,0.0
1606991354308801384,4326310,1606987753406221977,imu_link,0.00340192299336195,0.004694836679846048,0.4449348747730255,0.895544171333313,0.0,0.0,0.0,0.0,0.0,0.0,0.0,0.0,0.0,52.84088134765625,0.3083443343639374,0.5885001420974731,0.0,0.0,0.0,0.0,0.0,0.0,0.0,0.0,0.0,0.009510107338428497,0.001011859392747283,0.06198324263095856,0.0,0.0,0.0,0.0,0.0,0.0,0.0,0.0,0.0
1606991354361237927,4326311,1606987753406381288,imu_link,0.0034015171695500612,0.004697184544056654,0.4449334144592285,0.8955448865890503,0.0,0.0,0.0,0.0,0.0,0.0,0.0,0.0,0.0,52.8406982421875,0.30860698223114014,0.5885778069496155,0.0,0.0,0.0,0.0,0.0,0.0,0.0,0.0,0.0,-0.010060370899736881,-0.0014955386286601424,0.028237611055374146,0.0,0.0,0.0,0.0,0.0,0.0,0.0,0.0,0.0
1606991354361256857,4326312,1606987753406468775,imu_link,0.0034015171695500612,0.004697184544056654,0.4449334144592285,0.8955448865890503,0.0,0.0,0.0,0.0,0.0,0.0,0.0,0.0,0.0,52.8406982421875,0.30860698223114014,0.5885778069496155,0.0,0.0,0.0,0.0,0.0,0.0,0.0,0.0,0.0,-0.010060370899736881,-0.0014955386286601424,0.028237611055374146,0.0,0.0,0.0,0.0,0.0,0.0,0.0,0.0,0.0
1606991354361266256,4326313,1606987753406618819,imu_link,0.0034024142660200596,0.004694565664976835,0.44493451714515686,0.8955443501472473,0.0,0.0,0.0,0.0,0.0,0.0,0.0,0.0,0.0,52.8408317565918,0.3082917630672455,0.5885367393493652,0.0,0.0,0.0,0.0,0.0,0.0,0.0,0.0,0.0,-0.006329432595521212,0.006245681084692478,0.03267986327409744,0.0,0.0,0.0,0.0,0.0,0.0,0.0,0.0,0.0
1606991354361275864,4326314,1606987753406712788,imu_link,0.0034024142660200596,0.004694565664976835,0.44493451714515686,0.8955443501472473,0.0,0.0,0.0,0.0,0.0,0.0,0.0,0.0,0.0,52.8408317565918,0.3082917630672455,0.5885367393493652,0.0,0.0,0.0,0.0,0.0,0.0,0.0,0.0,0.0,-0.006329432595521212,0.006245681084692478,0.03267986327409744,0.0,0.0,0.0,0.0,0.0,0.0,0.0,0.0,0.0
1606991354361298355,4326315,1606987753406786791,imu_link,0.0034030915703624487,0.004694812931120396,0.4449314773082733,0.8955458402633667,0.0,0.0,0.0,0.0,0.0,0.0,0.0,0.0,0.0,52.8404426574707,0.30828461050987244,0.5886178016662598,0.0,0.0,0.0,0.0,0.0,0.0,0.0,0.0,0.0,-0.0008621816523373127,0.006876337807625532,0.05514998733997345,0.0,0.0,0.0,0.0,0.0,0.0,0.0,0.0,0.0
1606991354387356758,4326316,1606987753406864027,imu_link,0.0034030915703624487,0.004694812931120396,0.4449314773082733,0.8955458402633667,0.0,0.0,0.0,0.0,0.0,0.0,0.0,0.0,0.0,52.8404426574707,0.30828461050987244,0.5886178016662598,0.0,0.0,0.0,0.0,0.0,0.0,0.0,0.0,0.0,-0.0008621816523373127,0.006876337807625532,0.05514998733997345,0.0,0.0,0.0,0.0,0.0,0.0,0.0,0.0,0.0
1606991354387379307,4326317,1606987753406936618,imu_link,0.003402457572519779,0.004695397801697254,0.44493138790130615,0.8955458998680115,0.0,0.0,0.0,0.0,0.0,0.0,0.0,0.0,0.0,52.84043884277344,0.3083769977092743,0.5885825157165527,0.0,0.0,0.0,0.0,0.0,0.0,0.0,0.0,0.0,-0.006658892147243023,-0.0015158242313191295,0.05488263815641403,0.0,0.0,0.0,0.0,0.0,0.0,0.0,0.0,0.0
1606991354387412250,4326318,1606987753407035812,imu_link,0.003402457572519779,0.004695397801697254,0.44493138790130615,0.8955458998680115,0.0,0.0,0.0,0.0,0.0,0.0,0.0,0.0,0.0,52.84043884277344,0.3083769977092743,0.5885825157165527,0.0,0.0,0.0,0.0,0.0,0.0,0.0,0.0,0.0,-0.006658892147243023,-0.0015158242313191295,0.05488263815641403,0.0,0.0,0.0,0.0,0.0,0.0,0.0,0.0,0.0
1606991354387436800,4326319,1606987753407104503,imu_link,0.0034041134640574455,0.004694025497883558,0.44493159651756287,0.8955457806587219,0.0,0.0,0.0,0.0,0.0,0.0,0.0,0.0,0.0,52.840457916259766,0.30815160274505615,0.5886825323104858,0.0,0.0,0.0,0.0,0.0,0.0,0.0,0.0,0.0,-0.006436307914555073,0.011424925178289413,0.051995549350976944,0.0,0.0,0.0,0.0,0.0,0.0,0.0,0.0,0.0
1606991354407728439,4326320,1606987753419071618,imu_link,0.0034041134640574455,0.004694025497883558,0.44493159651756287,0.8955457806587219,0.0,0.0,0.0,0.0,0.0,0.0,0.0,0.0,0.0,52.840457916259766,0.30815160274505615,0.5886825323104858,0.0,0.0,0.0,0.0,0.0,0.0,0.0,0.0,0.0,-0.006436307914555073,0.011424925178289413,0.051995549350976944,0.0,0.0,0.0,0.0,0.0,0.0,0.0,0.0,0.0
1606991354407758787,4326321,1606987753419197081,imu_link,0.003402485279366374,0.004689200781285763,0.44492995738983154,0.8955466151237488,0.0,0.0,0.0,0.0,0.0,0.0,0.0,0.0,0.0,52.84024429321289,0.30774053931236267,0.5882688760757446,0.0,0.0,0.0,0.0,0.0,0.0,0.0,0.0,0.0,-0.013446923345327377,0.024406874552369118,0.06939734518527985,0.0,0.0,0.0,0.0,0.0,0.0,0.0,0.0,0.0
1606991354407779385,4326322,1606987753419354525,imu_link,0.003402485279366374,0.004689200781285763,0.44492995738983154,0.8955466151237488,0.0,0.0,0.0,0.0,0.0,0.0,0.0,0.0,0.0,52.84024429321289,0.30774053931236267,0.5882688760757446,0.0,0.0,0.0,0.0,0.0,0.0,0.0,0.0,0.0,-0.013446923345327377,0.024406874552369118,0.06939734518527985,0.0,0.0,0.0,0.0,0.0,0.0,0.0,0.0,0.0
1606991354407805871,4326323,1606987753419440292,imu_link,0.0034041188191622496,0.004689774475991726,0.44492805004119873,0.8955475687980652,0.0,0.0,0.0,0.0,0.0,0.0,0.0,0.0,0.0,52.840003967285156,0.30771738290786743,0.5884650349617004,0.0,0.0,0.0,0.0,0.0,0.0,0.0,0.0,0.0,0.003211201401427388,-0.0017259269952774048,0.09194197505712509,0.0,0.0,0.0,0.0,0.0,0.0,0.0,0.0,0.0
1606991354407821725,4326324,1606987753419518019,imu_link,0.0034041188191622496,0.004689774475991726,0.44492805004119873,0.8955475687980652,0.0,0.0,0.0,0.0,0.0,0.0,0.0,0.0,0.0,52.840003967285156,0.30771738290786743,0.5884650349617004,0.0,0.0,0.0,0.0,0.0,0.0,0.0,0.0,0.0,0.003211201401427388,-0.0017259269952774048,0.09194197505712509,0.0,0.0,0.0,0.0,0.0,0.0,0.0,0.0,0.0
1606991354429806422,4326325,1606987753419610171,imu_link,0.0034068631939589977,0.0046879141591489315,0.4449302852153778,0.8955464959144592,0.0,0.0,0.0,0.0,0.0,0.0,0.0,0.0,0.0,52.84028625488281,0.307385116815567,0.5886525511741638,0.0,0.0,0.0,0.0,0.0,0.0,0.0,0.0,0.0,0.015394024550914764,-0.021471073850989342,0.09341572225093842,0.0,0.0,0.0,0.0,0.0,0.0,0.0,0.0,0.0
1606991354429838478,4326326,1606987753419684368,imu_link,0.0034068631939589977,0.0046879141591489315,0.4449302852153778,0.8955464959144592,0.0,0.0,0.0,0.0,0.0,0.0,0.0,0.0,0.0,52.84028625488281,0.307385116815567,0.5886525511741638,0.0,0.0,0.0,0.0,0.0,0.0,0.0,0.0,0.0,0.015394024550914764,-0.021471073850989342,0.09341572225093842,0.0,0.0,0.0,0.0,0.0,0.0,0.0,0.0,0.0
1606991354429856485,4326327,1606987753419754771,imu_link,0.0034045360516756773,0.00468698563054204,0.44492802023887634,0.8955475687980652,0.0,0.0,0.0,0.0,0.0,0.0,0.0,0.0,0.0,52.839996337890625,0.30740997195243835,0.5883656144142151,0.0,0.0,0.0,0.0,0.0,0.0,0.0,0.0,0.0,-0.00359519524499774,-0.016779106110334396,0.06692233681678772,0.0,0.0,0.0,0.0,0.0,0.0,0.0,0.0,0.0
1606991354429871615,4326328,1606987753419824921,imu_link,0.0034045360516756773,0.00468698563054204,0.44492802023887634,0.8955475687980652,0.0,0.0,0.0,0.0,0.0,0.0,0.0,0.0,0.0,52.839996337890625,0.30740997195243835,0.5883656144142151,0.0,0.0,0.0,0.0,0.0,0.0,0.0,0.0,0.0,-0.00359519524499774,-0.016779106110334396,0.06692233681678772,0.0,0.0,0.0,0.0,0.0,0.0,0.0,0.0,0.0
1606991354524479404,4326329,1606987753419898082,imu_link,0.003408016636967659,0.004687948152422905,0.44492965936660767,0.8955467939376831,0.0,0.0,0.0,0.0,0.0,0.0,0.0,0.0,0.0,52.8402099609375,0.3073301911354065,0.5887725949287415,0.0,0.0,0.0,0.0,0.0,0.0,0.0,0.0,0.0,-0.021821552887558937,-0.017601434141397476,0.05050705000758171,0.0,0.0,0.0,0.0,0.0,0.0,0.0,0.0,0.0
1606991354524503485,4326330,1606987753432847294,imu_link,0.003408016636967659,0.004687948152422905,0.44492965936660767,0.8955467939376831,0.0,0.0,0.0,0.0,0.0,0.0,0.0,0.0,0.0,52.8402099609375,0.3073301911354065,0.5887725949287415,0.0,0.0,0.0,0.0,0.0,0.0,0.0,0.0,0.0,-0.021821552887558937,-0.017601434141397476,0.05050705000758171,0.0,0.0,0.0,0.0,0.0,0.0,0.0,0.0,0.0
1606991354524514596,4326331,1606987753432976589,imu_link,0.0034084694925695658,0.004688682965934277,0.4449285864830017,0.8955473303794861,0.0,0.0,0.0,0.0,0.0,0.0,0.0,0.0,0.0,52.84007263183594,0.3073832392692566,0.5888561010360718,0.0,0.0,0.0,0.0,0.0,0.0,0.0,0.0,0.0,-0.01257590763270855,0.0010345627088099718,0.06874842941761017,0.0,0.0,0.0,0.0,0.0,0.0,0.0,0.0,0.0
1606991354524524238,4326332,1606987753433115154,imu_link,0.0034084694925695658,0.004688682965934277,0.4449285864830017,0.8955473303794861,0.0,0.0,0.0,0.0,0.0,0.0,0.0,0.0,0.0,52.84007263183594,0.3073832392692566,0.5888561010360718,0.0,0.0,0.0,0.0,0.0,0.0,0.0,0.0,0.0,-0.01257590763270855,0.0010345627088099718,0.06874842941761017,0.0,0.0,0.0,0.0,0.0,0.0,0.0,0.0,0.0
1606991354535572433,4326333,1606987753433199282,imu_link,0.0034099887125194073,0.004684876650571823,0.4449177086353302,0.8955527544021606,0.0,0.0,0.0,0.0,0.0,0.0,0.0,0.0,0.0,52.83867645263672,0.3069222867488861,0.5888142585754395,0.0,0.0,0.0,0.0,0.0,0.0,0.0,0.0,0.0,0.011933663859963417,0.01897185854613781,0.06541081517934799,0.0,0.0,0.0,0.0,0.0,0.0,0.0,0.0,0.0
1606991354535594470,4326334,1606987753433280951,imu_link,0.0034099887125194073,0.004684876650571823,0.4449177086353302,0.8955527544021606,0.0,0.0,0.0,0.0,0.0,0.0,0.0,0.0,0.0,52.83867645263672,0.3069222867488861,0.5888142585754395,0.0,0.0,0.0,0.0,0.0,0.0,0.0,0.0,0.0,0.011933663859963417,0.01897185854613781,0.06541081517934799,0.0,0.0,0.0,0.0,0.0,0.0,0.0,0.0,0.0
1606991354535605123,4326335,1606987753433354935,imu_link,0.0034101468045264482,0.0046845353208482265,0.44491490721702576,0.8955541849136353,0.0,0.0,0.0,0.0,0.0,0.0,0.0,0.0,0.0,52.83831787109375,0.3068810999393463,0.588811993598938,0.0,0.0,0.0,0.0,0.0,0.0,0.0,0.0,0.0,0.024666721001267433,0.02977420948445797,0.037995703518390656,0.0,0.0,0.0,0.0,0.0,0.0,0.0,0.0,0.0
1606991354535625154,4326336,1606987753433445652,imu_link,0.0034101468045264482,0.0046845353208482265,0.44491490721702576,0.8955541849136353,0.0,0.0,0.0,0.0,0.0,0.0,0.0,0.0,0.0,52.83831787109375,0.3068810999393463,0.588811993598938,0.0,0.0,0.0,0.0,0.0,0.0,0.0,0.0,0.0,0.024666721001267433,0.02977420948445797,0.037995703518390656,0.0,0.0,0.0,0.0,0.0,0.0,0.0,0.0,0.0
1606991354535655191,4326337,1606987753433521761,imu_link,0.003406577045097947,0.004686202388256788,0.4449049234390259,0.8955591320991516,0.0,0.0,0.0,0.0,0.0,0.0,0.0,0.0,0.0,52.83704376220703,0.30724072456359863,0.5885272026062012,0.0,0.0,0.0,0.0,0.0,0.0,0.0,0.0,0.0,0.026257451623678207,0.030518945306539536,0.04327487573027611,0.0,0.0,0.0,0.0,0.0,0.0,0.0,0.0,0.0
1606991354545097742,4326338,1606987753433595924,imu_link,0.003406577045097947,0.004686202388256788,0.4449049234390259,0.8955591320991516,0.0,0.0,0.0,0.0,0.0,0.0,0.0,0.0,0.0,52.83704376220703,0.30724072456359863,0.5885272026062012,0.0,0.0,0.0,0.0,0.0,0.0,0.0,0.0,0.0,0.026257451623678207,0.030518945306539536,0.04327487573027611,0.0,0.0,0.0,0.0,0.0,0.0,0.0,0.0,0.0
1606991354545136703,4326339,1606987753433668439,imu_link,0.0034074517898261547,0.004684845916926861,0.44490209221839905,0.8955604434013367,0.0,0.0,0.0,0.0,0.0,0.0,0.0,0.0,0.0,52.8366813659668,0.307058721780777,0.5885469317436218,0.0,0.0,0.0,0.0,0.0,0.0,0.0,0.0,0.0,0.014409909956157207,0.011187315918505192,0.06994572281837463,0.0,0.0,0.0,0.0,0.0,0.0,0.0,0.0,0.0
1606991354545158233,4326340,1606987753433740032,imu_link,0.0034074517898261547,0.004684845916926861,0.44490209221839905,0.8955604434013367,0.0,0.0,0.0,0.0,0.0,0.0,0.0,0.0,0.0,52.8366813659668,0.307058721780777,0.5885469317436218,0.0,0.0,0.0,0.0,0.0,0.0,0.0,0.0,0.0,0.014409909956157207,0.011187315918505192,0.06994572281837463,0.0,0.0,0.0,0.0,0.0,0.0,0.0,0.0,0.0
1606991354545177549,4326341,1606987753446281361,imu_link,0.003406248288229108,0.004686626140028238,0.44490692019462585,0.8955581188201904,0.0,0.0,0.0,0.0,0.0,0.0,0.0,0.0,0.0,52.83729553222656,0.3072996735572815,0.5885158777236938,0.0,0.0,0.0,0.0,0.0,0.0,0.0,0.0,0.0,0.006091349292546511,0.012255111709237099,0.0586179718375206,0.0,0.0,0.0,0.0,0.0,0.0,0.0,0.0,0.0
1606991354551467291,4326342,1606987753446432310,imu_link,0.003406248288229108,0.004686626140028238,0.44490692019462585,0.8955581188201904,0.0,0.0,0.0,0.0,0.0,0.0,0.0,0.0,0.0,52.83729553222656,0.3072996735572815,0.5885158777236938,0.0,0.0,0.0,0.0,0.0,0.0,0.0,0.0,0.0,0.006091349292546511,0.012255111709237099,0.0586179718375206,0.0,0.0,0.0,0.0,0.0,0.0,0.0,0.0,0.0
1606991354551501315,4326343,1606987753446571407,imu_link,0.0034066326916217804,0.004686546977609396,0.444905161857605,0.8955588936805725,0.0,0.0,0.0,0.0,0.0,0.0,0.0,0.0,0.0,52.83707809448242,0.3072730302810669,0.5885506868362427,0.0,0.0,0.0,0.0,0.0,0.0,0.0,0.0,0.0,0.002369379624724388,0.01161941047757864,0.04042340815067291,0.0,0.0,0.0,0.0,0.0,0.0,0.0,0.0,0.0
1606991354551517378,4326344,1606987753446668311,imu_link,0.0034066326916217804,0.004686546977609396,0.444905161857605,0.8955588936805725,0.0,0.0,0.0,0.0,0.0,0.0,0.0,0.0,0.0,52.83707809448242,0.3072730302810669,0.5885506868362427,0.0,0.0,0.0,0.0,0.0,0.0,0.0,0.0,0.0,0.002369379624724388,0.01161941047757864,0.04042340815067291,0.0,0.0,0.0,0.0,0.0,0.0,0.0,0.0,0.0
1606991354551525923,4326345,1606987753446752275,imu_link,0.003405218478292227,0.004684939980506897,0.44490906596183777,0.8955571055412292,0.0,0.0,0.0,0.0,0.0,0.0,0.0,0.0,0.0,52.83757019042969,0.30717772245407104,0.5883248448371887,0.0,0.0,0.0,0.0,0.0,0.0,0.0,0.0,0.0,0.004515011329203844,-0.005858567077666521,0.04878511279821396,0.0,0.0,0.0,0.0,0.0,0.0,0.0,0.0,0.0
1606991354551542906,4326346,1606987753446831694,imu_link,0.003405218478292227,0.004684939980506897,0.44490906596183777,0.8955571055412292,0.0,0.0,0.0,0.0,0.0,0.0,0.0,0.0,0.0,52.83757019042969,0.30717772245407104,0.5883248448371887,0.0,0.0,0.0,0.0,0.0,0.0,0.0,0.0,0.0,0.004515011329203844,-0.005858567077666521,0.04878511279821396,0.0,0.0,0.0,0.0,0.0,0.0,0.0,0.0,0.0
1606991354613064483,4326347,1606987753446932813,imu_link,0.0034061830956488848,0.004687074571847916,0.44490861892700195,0.8955572843551636,0.0,0.0,0.0,0.0,0.0,0.0,0.0,0.0,0.0,52.8375129699707,0.3073478937149048,0.588532567024231,0.0,0.0,0.0,0.0,0.0,0.0,0.0,0.0,0.0,0.005663892719894648,-0.017667952924966812,0.08325197547674179,0.0,0.0,0.0,0.0,0.0,0.0,0.0,0.0,0.0
1606991354613099316,4326348,1606987753447054309,imu_link,0.0034061830956488848,0.004687074571847916,0.44490861892700195,0.8955572843551636,0.0,0.0,0.0,0.0,0.0,0.0,0.0,0.0,0.0,52.8375129699707,0.3073478937149048,0.588532567024231,0.0,0.0,0.0,0.0,0.0,0.0,0.0,0.0,0.0,0.005663892719894648,-0.017667952924966812,0.08325197547674179,0.0,0.0,0.0,0.0,0.0,0.0,0.0,0.0,0.0
1606991354613106415,4326349,1606987753447137211,imu_link,0.0034087044186890125,0.004690591245889664,0.4449094235897064,0.8955568671226501,0.0,0.0,0.0,0.0,0.0,0.0,0.0,0.0,0.0,52.83761978149414,0.3075796961784363,0.5889708995819092,0.0,0.0,0.0,0.0,0.0,0.0,0.0,0.0,0.0,-0.0018713863100856543,0.005461846943944693,0.09633103013038635,0.0,0.0,0.0,0.0,0.0,0.0,0.0,0.0,0.0
1606991354613124627,4326350,1606987753447218023,imu_link,0.0034087044186890125,0.004690591245889664,0.4449094235897064,0.8955568671226501,0.0,0.0,0.0,0.0,0.0,0.0,0.0,0.0,0.0,52.83761978149414,0.3075796961784363,0.5889708995819092,0.0,0.0,0.0,0.0,0.0,0.0,0.0,0.0,0.0,-0.0018713863100856543,0.005461846943944693,0.09633103013038635,0.0,0.0,0.0,0.0,0.0,0.0,0.0,0.0,0.0
1606991354624261016,4326351,1606987753447300113,imu_link,0.0034081637859344482,0.004691205453127623,0.44490766525268555,0.8955577611923218,0.0,0.0,0.0,0.0,0.0,0.0,0.0,0.0,0.0,52.8373908996582,0.307671457529068,0.5889461636543274,0.0,0.0,0.0,0.0,0.0,0.0,0.0,0.0,0.0,-0.0006886147893965244,0.0195319764316082,0.08584563434123993,0.0,0.0,0.0,0.0,0.0,0.0,0.0,0.0,0.0
1606991354624288087,4326352,1606987753460199236,imu_link,0.0034081637859344482,0.004691205453127623,0.44490766525268555,0.8955577611923218,0.0,0.0,0.0,0.0,0.0,0.0,0.0,0.0,0.0,52.8373908996582,0.307671457529068,0.5889461636543274,0.0,0.0,0.0,0.0,0.0,0.0,0.0,0.0,0.0,-0.0006886147893965244,0.0195319764316082,0.08584563434123993,0.0,0.0,0.0,0.0,0.0,0.0,0.0,0.0,0.0
1606991354624322490,4326353,1606987753460347198,imu_link,0.0034063595812767744,0.004689214285463095,0.4449072778224945,0.8955579400062561,0.0,0.0,0.0,0.0,0.0,0.0,0.0,0.0,0.0,52.837345123291016,0.3075593113899231,0.5886592864990234,0.0,0.0,0.0,0.0,0.0,0.0,0.0,0.0,0.0,0.014836166985332966,0.005997815635055304,0.05871967226266861,0.0,0.0,0.0,0.0,0.0,0.0,0.0,0.0,0.0
1606991354624337072,4326354,1606987753460502493,imu_link,0.0034063595812767744,0.004689214285463095,0.4449072778224945,0.8955579400062561,0.0,0.0,0.0,0.0,0.0,0.0,0.0,0.0,0.0,52.837345123291016,0.3075593113899231,0.5886592864990234,0.0,0.0,0.0,0.0,0.0,0.0,0.0,0.0,0.0,0.014836166985332966,0.005997815635055304,0.05871967226266861,0.0,0.0,0.0,0.0,0.0,0.0,0.0,0.0,0.0
1606991354624395343,4326355,1606987753460599121,imu_link,0.0034079235047101974,0.004690452478826046,0.4449053406715393,0.8955588936805725,0.0,0.0,0.0,0.0,0.0,0.0,0.0,0.0,0.0,52.837093353271484,0.3076079189777374,0.5888822078704834,0.0,0.0,0.0,0.0,0.0,0.0,0.0,0.0,0.0,0.004292287863790989,0.0002291597775183618,0.05642097443342209,0.0,0.0,0.0,0.0,0.0,0.0,0.0,0.0,0.0
1606991354653691538,4326356,1606987753460673218,imu_link,0.0034079235047101974,0.004690452478826046,0.4449053406715393,0.8955588936805725,0.0,0.0,0.0,0.0,0.0,0.0,0.0,0.0,0.0,52.837093353271484,0.3076079189777374,0.5888822078704834,0.0,0.0,0.0,0.0,0.0,0.0,0.0,0.0,0.0,0.004292287863790989,0.0002291597775183618,0.05642097443342209,0.0,0.0,0.0,0.0,0.0,0.0,0.0,0.0,0.0
1606991354653723204,4326357,1606987753460753328,imu_link,0.0034077768214046955,0.004690935835242271,0.4449053406715393,0.8955588936805725,0.0,0.0,0.0,0.0,0.0,0.0,0.0,0.0,0.0,52.837093353271484,0.30766502022743225,0.588891863822937,0.0,0.0,0.0,0.0,0.0,0.0,0.0,0.0,0.0,-0.012500985525548458,0.011668416671454906,0.08408718556165695,0.0,0.0,0.0,0.0,0.0,0.0,0.0,0.0,0.0
1606991354653731980,4326358,1606987753460858446,imu_link,0.0034077768214046955,0.004690935835242271,0.4449053406715393,0.8955588936805725,0.0,0.0,0.0,0.0,0.0,0.0,0.0,0.0,0.0,52.837093353271484,0.30766502022743225,0.588891863822937,0.0,0.0,0.0,0.0,0.0,0.0,0.0,0.0,0.0,-0.012500985525548458,0.011668416671454906,0.08408718556165695,0.0,0.0,0.0,0.0,0.0,0.0,0.0,0.0,0.0
1606991354653741261,4326359,1606987753460940266,imu_link,0.0034068492241203785,0.004691429436206818,0.44490426778793335,0.8955594301223755,0.0,0.0,0.0,0.0,0.0,0.0,0.0,0.0,0.0,52.83695983886719,0.30776363611221313,0.588821530342102,0.0,0.0,0.0,0.0,0.0,0.0,0.0,0.0,0.0,-0.004870315082371235,0.012126707471907139,0.0922941267490387,0.0,0.0,0.0,0.0,0.0,0.0,0.0,0.0,0.0
1606991354667048558,4326360,1606987753461103418,imu_link,0.0034068492241203785,0.004691429436206818,0.44490426778793335,0.8955594301223755,0.0,0.0,0.0,0.0,0.0,0.0,0.0,0.0,0.0,52.83695983886719,0.30776363611221313,0.588821530342102,0.0,0.0,0.0,0.0,0.0,0.0,0.0,0.0,0.0,-0.004870315082371235,0.012126707471907139,0.0922941267490387,0.0,0.0,0.0,0.0,0.0,0.0,0.0,0.0,0.0
1606991354667075540,4326361,1606987753461188270,imu_link,0.003405459225177765,0.004689984954893589,0.44490209221839905,0.8955605030059814,0.0,0.0,0.0,0.0,0.0,0.0,0.0,0.0,0.0,52.83668518066406,0.3076876997947693,0.5886044502258301,0.0,0.0,0.0,0.0,0.0,0.0,0.0,0.0,0.0,-0.0061547174118459225,-0.005847365129739046,0.08734749257564545,0.0,0.0,0.0,0.0,0.0,0.0,0.0,0.0,0.0
1606991354667089799,4326362,1606987753461274219,imu_link,0.003405459225177765,0.004689984954893589,0.44490209221839905,0.8955605030059814,0.0,0.0,0.0,0.0,0.0,0.0,0.0,0.0,0.0,52.83668518066406,0.3076876997947693,0.5886044502258301,0.0,0.0,0.0,0.0,0.0,0.0,0.0,0.0,0.0,-0.0061547174118459225,-0.005847365129739046,0.08734749257564545,0.0,0.0,0.0,0.0,0.0,0.0,0.0,0.0,0.0
1606991354667102353,4326363,1606987753473568677,imu_link,0.0034051593393087387,0.00468816515058279,0.4449004828929901,0.8955613374710083,0.0,0.0,0.0,0.0,0.0,0.0,0.0,0.0,0.0,52.83647155761719,0.3075173497200012,0.5884802937507629,0.0,0.0,0.0,0.0,0.0,0.0,0.0,0.0,0.0,0.0045560006983578205,0.011027052998542786,0.06711160391569138,0.0,0.0,0.0,0.0,0.0,0.0,0.0,0.0,0.0
1606991354667118551,4326364,1606987753473710004,imu_link,0.0034051593393087387,0.00468816515058279,0.4449004828929901,0.8955613374710083,0.0,0.0,0.0,0.0,0.0,0.0,0.0,0.0,0.0,52.83647155761719,0.3075173497200012,0.5884802937507629,0.0,0.0,0.0,0.0,0.0,0.0,0.0,0.0,0.0,0.0045560006983578205,0.011027052998542786,0.06711160391569138,0.0,0.0,0.0,0.0,0.0,0.0,0.0,0.0,0.0
1606991354765728828,4326365,1606987753473864090,imu_link,0.003402804723009467,0.004688476212322712,0.44489893317222595,0.8955621123313904,0.0,0.0,0.0,0.0,0.0,0.0,0.0,0.0,0.0,52.836273193359375,0.30767032504081726,0.5882540345191956,0.0,0.0,0.0,0.0,0.0,0.0,0.0,0.0,0.0,-0.000539237167686224,0.028506560251116753,0.044845812022686005,0.0,0.0,0.0,0.0,0.0,0.0,0.0,0.0,0.0
1606991354765763639,4326366,1606987753473959516,imu_link,0.003402804723009467,0.004688476212322712,0.44489893317222595,0.8955621123313904,0.0,0.0,0.0,0.0,0.0,0.0,0.0,0.0,0.0,52.836273193359375,0.30767032504081726,0.5882540345191956,0.0,0.0,0.0,0.0,0.0,0.0,0.0,0.0,0.0,-0.000539237167686224,0.028506560251116753,0.044845812022686005,0.0,0.0,0.0,0.0,0.0,0.0,0.0,0.0,0.0
1606991354765791541,4326367,1606987753474035717,imu_link,0.0034015304408967495,0.004686848260462284,0.4448980689048767,0.8955625295639038,0.0,0.0,0.0,0.0,0.0,0.0,0.0,0.0,0.0,52.83616256713867,0.30756875872612,0.5880399346351624,0.0,0.0,0.0,0.0,0.0,0.0,0.0,0.0,0.0,-0.009881614707410336,-0.0007865664083510637,0.03480462357401848,0.0,0.0,0.0,0.0,0.0,0.0,0.0,0.0,0.0
1606991354765804849,4326368,1606987753474140330,imu_link,0.0034015304408967495,0.004686848260462284,0.4448980689048767,0.8955625295639038,0.0,0.0,0.0,0.0,0.0,0.0,0.0,0.0,0.0,52.83616256713867,0.30756875872612,0.5880399346351624,0.0,0.0,0.0,0.0,0.0,0.0,0.0,0.0,0.0,-0.009881614707410336,-0.0007865664083510637,0.03480462357401848,0.0,0.0,0.0,0.0,0.0,0.0,0.0,0.0,0.0
1606991354770702479,4326369,1606987753474225687,imu_link,0.0034004172775894403,0.004684495273977518,0.4448944628238678,0.8955643177032471,0.0,0.0,0.0,0.0,0.0,0.0,0.0,0.0,0.0,52.835697174072266,0.3073864281177521,0.5878044962882996,0.0,0.0,0.0,0.0,0.0,0.0,0.0,0.0,0.0,0.011639829725027084,-0.014138718135654926,0.05125730112195015,0.0,0.0,0.0,0.0,0.0,0.0,0.0,0.0,0.0
1606991354770752103,4326370,1606987753474306810,imu_link,0.0034004172775894403,0.004684495273977518,0.4448944628238678,0.8955643177032471,0.0,0.0,0.0,0.0,0.0,0.0,0.0,0.0,0.0,52.835697174072266,0.3073864281177521,0.5878044962882996,0.0,0.0,0.0,0.0,0.0,0.0,0.0,0.0,0.0,0.011639829725027084,-0.014138718135654926,0.05125730112195015,0.0,0.0,0.0,0.0,0.0,0.0,0.0,0.0,0.0
1606991354770819712,4326371,1606987753474388349,imu_link,0.0034017267171293497,0.004684791900217533,0.44489145278930664,0.8955658078193665,0.0,0.0,0.0,0.0,0.0,0.0,0.0,0.0,0.0,52.8353157043457,0.30735206604003906,0.5879529714584351,0.0,0.0,0.0,0.0,0.0,0.0,0.0,0.0,0.0,0.010529245249927044,0.010356416925787926,0.05537384748458862,0.0,0.0,0.0,0.0,0.0,0.0,0.0,0.0,0.0
1606991354770843798,4326372,1606987753474468910,imu_link,0.0034017267171293497,0.004684791900217533,0.44489145278930664,0.8955658078193665,0.0,0.0,0.0,0.0,0.0,0.0,0.0,0.0,0.0,52.8353157043457,0.30735206604003906,0.5879529714584351,0.0,0.0,0.0,0.0,0.0,0.0,0.0,0.0,0.0,0.010529245249927044,0.010356416925787926,0.05537384748458862,0.0,0.0,0.0,0.0,0.0,0.0,0.0,0.0,0.0
1606991354770861970,4326373,1606987753474549892,imu_link,0.0033992447424679995,0.004684478975832462,0.44488725066185,0.8955678939819336,0.0,0.0,0.0,0.0,0.0,0.0,0.0,0.0,0.0,52.83477783203125,0.3074492812156677,0.5876808762550354,0.0,0.0,0.0,0.0,0.0,0.0,0.0,0.0,0.0,0.002391340211033821,0.010302899405360222,0.05084821954369545,0.0,0.0,0.0,0.0,0.0,0.0,0.0,0.0,0.0
1606991354780912406,4326374,1606987753486540873,imu_link,0.0033992447424679995,0.004684478975832462,0.44488725066185,0.8955678939819336,0.0,0.0,0.0,0.0,0.0,0.0,0.0,0.0,0.0,52.83477783203125,0.3074492812156677,0.5876808762550354,0.0,0.0,0.0,0.0,0.0,0.0,0.0,0.0,0.0,0.002391340211033821,0.010302899405360222,0.05084821954369545,0.0,0.0,0.0,0.0,0.0,0.0,0.0,0.0,0.0
1606991354780940669,4326375,1606987753486685799,imu_link,0.0034005821216851473,0.004683394450694323,0.4448868930339813,0.8955680727958679,0.0,0.0,0.0,0.0,0.0,0.0,0.0,0.0,0.0,52.8347282409668,0.3072700500488281,0.587762713432312,0.0,0.0,0.0,0.0,0.0,0.0,0.0,0.0,0.0,0.0035291872918605804,0.0005334946326911449,0.06928727775812149,0.0,0.0,0.0,0.0,0.0,0.0,0.0,0.0,0.0
1606991354780975622,4326376,1606987753486840186,imu_link,0.0034005821216851473,0.004683394450694323,0.4448868930339813,0.8955680727958679,0.0,0.0,0.0,0.0,0.0,0.0,0.0,0.0,0.0,52.8347282409668,0.3072700500488281,0.587762713432312,0.0,0.0,0.0,0.0,0.0,0.0,0.0,0.0,0.0,0.0035291872918605804,0.0005334946326911449,0.06928727775812149,0.0,0.0,0.0,0.0,0.0,0.0,0.0,0.0,0.0
1606991354780988930,4326377,1606987753486930941,imu_link,0.0034014107659459114,0.004684886895120144,0.44488170742988586,0.8955706357955933,0.0,0.0,0.0,0.0,0.0,0.0,0.0,0.0,0.0,52.834068298339844,0.30738434195518494,0.5879219770431519,0.0,0.0,0.0,0.0,0.0,0.0,0.0,0.0,0.0,-0.002040332416072488,-0.0037200860679149628,0.08460569381713867,0.0,0.0,0.0,0.0,0.0,0.0,0.0,0.0,0.0
1606991354791546030,4326378,1606987753487039201,imu_link,0.0034014107659459114,0.004684886895120144,0.44488170742988586,0.8955706357955933,0.0,0.0,0.0,0.0,0.0,0.0,0.0,0.0,0.0,52.834068298339844,0.30738434195518494,0.5879219770431519,0.0,0.0,0.0,0.0,0.0,0.0,0.0,0.0,0.0,-0.002040332416072488,-0.0037200860679149628,0.08460569381713867,0.0,0.0,0.0,0.0,0.0,0.0,0.0,0.0,0.0
1606991354791583887,4326379,1606987753487146189,imu_link,0.0034015553537756205,0.0046844035387039185,0.44488319754600525,0.895569920539856,0.0,0.0,0.0,0.0,0.0,0.0,0.0,0.0,0.0,52.83425521850586,0.30732640624046326,0.5879127383232117,0.0,0.0,0.0,0.0,0.0,0.0,0.0,0.0,0.0,0.005309730768203735,0.00019257061649113894,0.0711696594953537,0.0,0.0,0.0,0.0,0.0,0.0,0.0,0.0,0.0
1606991354791610281,4326380,1606987753487228229,imu_link,0.0034015553537756205,0.0046844035387039185,0.44488319754600525,0.895569920539856,0.0,0.0,0.0,0.0,0.0,0.0,0.0,0.0,0.0,52.83425521850586,0.30732640624046326,0.5879127383232117,0.0,0.0,0.0,0.0,0.0,0.0,0.0,0.0,0.0,0.005309730768203735,0.00019257061649113894,0.0711696594953537,0.0,0.0,0.0,0.0,0.0,0.0,0.0,0.0,0.0
1606991354791624598,4326381,1606987753487314910,imu_link,0.003400380490347743,0.004687203094363213,0.44488778710365295,0.8955676555633545,0.0,0.0,0.0,0.0,0.0,0.0,0.0,0.0,0.0,52.83484649658203,0.30767056345939636,0.5879364013671875,0.0,0.0,0.0,0.0,0.0,0.0,0.0,0.0,0.0,-0.0026661695446819067,0.0049295127391815186,0.06546645611524582,0.0,0.0,0.0,0.0,0.0,0.0,0.0,0.0,0.0
1606991354791644310,4326382,1606987753487396483,imu_link,0.003400380490347743,0.004687203094363213,0.44488778710365295,0.8955676555633545,0.0,0.0,0.0,0.0,0.0,0.0,0.0,0.0,0.0,52.83484649658203,0.30767056345939636,0.5879364013671875,0.0,0.0,0.0,0.0,0.0,0.0,0.0,0.0,0.0,-0.0026661695446819067,0.0049295127391815186,0.06546645611524582,0.0,0.0,0.0,0.0,0.0,0.0,0.0,0.0,0.0
1606991354847806574,4326383,1606987753487479260,imu_link,0.0034010244999080896,0.0046869986690580845,0.4448879063129425,0.8955675363540649,0.0,0.0,0.0,0.0,0.0,0.0,0.0,0.0,0.0,52.83486557006836,0.3076166808605194,0.5879921913146973,0.0,0.0,0.0,0.0,0.0,0.0,0.0,0.0,0.0,-0.022984396666288376,0.005615463480353355,0.07155343145132065,0.0,0.0,0.0,0.0,0.0,0.0,0.0,0.0,0.0
1606991354847841337,4326384,1606987753500300081,imu_link,0.0034010244999080896,0.0046869986690580845,0.4448879063129425,0.8955675363540649,0.0,0.0,0.0,0.0,0.0,0.0,0.0,0.0,0.0,52.83486557006836,0.3076166808605194,0.5879921913146973,0.0,0.0,0.0,0.0,0.0,0.0,0.0,0.0,0.0,-0.022984396666288376,0.005615463480353355,0.07155343145132065,0.0,0.0,0.0,0.0,0.0,0.0,0.0,0.0,0.0
1606991354847864289,4326385,1606987753500446946,imu_link,0.0033998398575931787,0.004685364197939634,0.4448910355567932,0.8955660462379456,0.0,0.0,0.0,0.0,0.0,0.0,0.0,0.0,0.0,52.83525848388672,0.30750730633735657,0.5877883434295654,0.0,0.0,0.0,0.0,0.0,0.0,0.0,0.0,0.0,-0.01111473236232996,0.00569473160430789,0.05502992868423462,0.0,0.0,0.0,0.0,0.0,0.0,0.0,0.0,0.0
1606991354847875513,4326386,1606987753500639898,imu_link,0.0033998398575931787,0.004685364197939634,0.4448910355567932,0.8955660462379456,0.0,0.0,0.0,0.0,0.0,0.0,0.0,0.0,0.0,52.83525848388672,0.30750730633735657,0.5877883434295654,0.0,0.0,0.0,0.0,0.0,0.0,0.0,0.0,0.0,-0.01111473236232996,0.00569473160430789,0.05502992868423462,0.0,0.0,0.0,0.0,0.0,0.0,0.0,0.0,0.0
1606991354853700661,4326387,1606987753500727580,imu_link,0.00340001517906785,0.004686592146754265,0.4448898732662201,0.8955665826797485,0.0,0.0,0.0,0.0,0.0,0.0,0.0,0.0,0.0,52.83511734008789,0.3076251149177551,0.5878685116767883,0.0,0.0,0.0,0.0,0.0,0.0,0.0,0.0,0.0,0.0027664124500006437,-0.014138584025204182,0.05117729678750038,0.0,0.0,0.0,0.0,0.0,0.0,0.0,0.0,0.0
1606991354853740518,4326388,1606987753500873879,imu_link,0.00340001517906785,0.004686592146754265,0.4448898732662201,0.8955665826797485,0.0,0.0,0.0,0.0,0.0,0.0,0.0,0.0,0.0,52.83511734008789,0.3076251149177551,0.5878685116767883,0.0,0.0,0.0,0.0,0.0,0.0,0.0,0.0,0.0,0.0027664124500006437,-0.014138584025204182,0.05117729678750038,0.0,0.0,0.0,0.0,0.0,0.0,0.0,0.0,0.0
1606991354853754468,4326389,1606987753500962279,imu_link,0.003404282033443451,0.004687969572842121,0.4448918104171753,0.8955656290054321,0.0,0.0,0.0,0.0,0.0,0.0,0.0,0.0,0.0,52.83536148071289,0.3075476884841919,0.5883772969245911,0.0,0.0,0.0,0.0,0.0,0.0,0.0,0.0,0.0,0.00885260570794344,-0.012562128715217113,0.038498688489198685,0.0,0.0,0.0,0.0,0.0,0.0,0.0,0.0,0.0
1606991354853772439,4326390,1606987753501147452,imu_link,0.003404282033443451,0.004687969572842121,0.4448918104171753,0.8955656290054321,0.0,0.0,0.0,0.0,0.0,0.0,0.0,0.0,0.0,52.83536148071289,0.3075476884841919,0.5883772969245911,0.0,0.0,0.0,0.0,0.0,0.0,0.0,0.0,0.0,0.00885260570794344,-0.012562128715217113,0.038498688489198685,0.0,0.0,0.0,0.0,0.0,0.0,0.0,0.0,0.0
1606991354853799857,4326391,1606987753501232118,imu_link,0.0034063118509948254,0.004686035215854645,0.4448891282081604,0.8955669403076172,0.0,0.0,0.0,0.0,0.0,0.0,0.0,0.0,0.0,52.83502197265625,0.30724745988845825,0.5884860754013062,0.0,0.0,0.0,0.0,0.0,0.0,0.0,0.0,0.0,0.011733775958418846,-0.008295699954032898,0.03949270397424698,0.0,0.0,0.0,0.0,0.0,0.0,0.0,0.0,0.0
1606991354861321495,4326392,1606987753501389748,imu_link,0.0034063118509948254,0.004686035215854645,0.4448891282081604,0.8955669403076172,0.0,0.0,0.0,0.0,0.0,0.0,0.0,0.0,0.0,52.83502197265625,0.30724745988845825,0.5884860754013062,0.0,0.0,0.0,0.0,0.0,0.0,0.0,0.0,0.0,0.011733775958418846,-0.008295699954032898,0.03949270397424698,0.0,0.0,0.0,0.0,0.0,0.0,0.0,0.0,0.0
1606991354861336106,4326393,1606987753501471958,imu_link,0.0034078327007591724,0.004688307177275419,0.44489359855651855,0.8955647349357605,0.0,0.0,0.0,0.0,0.0,0.0,0.0,0.0,0.0,52.835594177246094,0.3074001371860504,0.5887596011161804,0.0,0.0,0.0,0.0,0.0,0.0,0.0,0.0,0.0,0.002133364789187908,-0.019168946892023087,0.059665437787771225,0.0,0.0,0.0,0.0,0.0,0.0,0.0,0.0,0.0
1606991354861347284,4326394,1606987753501551357,imu_link,0.0034078327007591724,0.004688307177275419,0.44489359855651855,0.8955647349357605,0.0,0.0,0.0,0.0,0.0,0.0,0.0,0.0,0.0,52.835594177246094,0.3074001371860504,0.5887596011161804,0.0,0.0,0.0,0.0,0.0,0.0,0.0,0.0,0.0,0.002133364789187908,-0.019168946892023087,0.059665437787771225,0.0,0.0,0.0,0.0,0.0,0.0,0.0,0.0,0.0
1606991354861381521,4326395,1606987753513681585,imu_link,0.0034069931134581566,0.004689251538366079,0.4448913335800171,0.8955658674240112,0.0,0.0,0.0,0.0,0.0,0.0,0.0,0.0,0.0,52.83530044555664,0.3075413703918457,0.5887207388877869,0.0,0.0,0.0,0.0,0.0,0.0,0.0,0.0,0.0,-0.008377932012081146,-0.008059864863753319,0.06611284613609314,0.0,0.0,0.0,0.0,0.0,0.0,0.0,0.0,0.0
1606991354871751446,4326396,1606987753513818201,imu_link,0.0034069931134581566,0.004689251538366079,0.4448913335800171,0.8955658674240112,0.0,0.0,0.0,0.0,0.0,0.0,0.0,0.0,0.0,52.83530044555664,0.3075413703918457,0.5887207388877869,0.0,0.0,0.0,0.0,0.0,0.0,0.0,0.0,0.0,-0.008377932012081146,-0.008059864863753319,0.06611284613609314,0.0,0.0,0.0,0.0,0.0,0.0,0.0,0.0,0.0
1606991354871778453,4326397,1606987753513976292,imu_link,0.003409289987757802,0.004690914414823055,0.4448927938938141,0.8955650925636292,0.0,0.0,0.0,0.0,0.0,0.0,0.0,0.0,0.0,52.83549118041992,0.3075939118862152,0.5890417695045471,0.0,0.0,0.0,0.0,0.0,0.0,0.0,0.0,0.0,-0.007275482174009085,0.0018579218303784728,0.056390754878520966,0.0,0.0,0.0,0.0,0.0,0.0,0.0,0.0,0.0
1606991354871807899,4326398,1606987753514065834,imu_link,0.003409289987757802,0.004690914414823055,0.4448927938938141,0.8955650925636292,0.0,0.0,0.0,0.0,0.0,0.0,0.0,0.0,0.0,52.83549118041992,0.3075939118862152,0.5890417695045471,0.0,0.0,0.0,0.0,0.0,0.0,0.0,0.0,0.0,-0.007275482174009085,0.0018579218303784728,0.056390754878520966,0.0,0.0,0.0,0.0,0.0,0.0,0.0,0.0,0.0
1606991354871825494,4326399,1606987753514154204,imu_link,0.003409740747883916,0.004689723718911409,0.4448912441730499,0.8955658674240112,0.0,0.0,0.0,0.0,0.0,0.0,0.0,0.0,0.0,52.83529281616211,0.3074497580528259,0.5890267491340637,0.0,0.0,0.0,0.0,0.0,0.0,0.0,0.0,0.0,0.01466462668031454,0.01763262413442135,0.05337926372885704,0.0,0.0,0.0,0.0,0.0,0.0,0.0,0.0,0.0
1606991354871851650,4326400,1606987753514235281,imu_link,0.003409740747883916,0.004689723718911409,0.4448912441730499,0.8955658674240112,0.0,0.0,0.0,0.0,0.0,0.0,0.0,0.0,0.0,52.83529281616211,0.3074497580528259,0.5890267491340637,0.0,0.0,0.0,0.0,0.0,0.0,0.0,0.0,0.0,0.01466462668031454,0.01763262413442135,0.05337926372885704,0.0,0.0,0.0,0.0,0.0,0.0,0.0,0.0,0.0
1606991354960049068,4326401,1606987753514345572,imu_link,0.0034053714480251074,0.004689209163188934,0.4448927342891693,0.8955651521682739,0.0,0.0,0.0,0.0,0.0,0.0,0.0,0.0,0.0,52.835487365722656,0.30761873722076416,0.5885526537895203,0.0,0.0,0.0,0.0,0.0,0.0,0.0,0.0,0.0,-0.0001266751205548644,0.009348761290311813,0.06552334874868393,0.0,0.0,0.0,0.0,0.0,0.0,0.0,0.0,0.0
1606991354960079897,4326402,1606987753514426840,imu_link,0.0034053714480251074,0.004689209163188934,0.4448927342891693,0.8955651521682739,0.0,0.0,0.0,0.0,0.0,0.0,0.0,0.0,0.0,52.835487365722656,0.30761873722076416,0.5885526537895203,0.0,0.0,0.0,0.0,0.0,0.0,0.0,0.0,0.0,-0.0001266751205548644,0.009348761290311813,0.06552334874868393,0.0,0.0,0.0,0.0,0.0,0.0,0.0,0.0,0.0
1606991354960102076,4326403,1606987753514590789,imu_link,0.0034055004362016916,0.004688674584031105,0.44489142298698425,0.8955658078193665,0.0,0.0,0.0,0.0,0.0,0.0,0.0,0.0,0.0,52.8353157043457,0.30755820870399475,0.5885381698608398,0.0,0.0,0.0,0.0,0.0,0.0,0.0,0.0,0.0,-0.020423319190740585,-0.007277335971593857,0.07117313891649246,0.0,0.0,0.0,0.0,0.0,0.0,0.0,0.0,0.0
1606991354960125495,4326404,1606987753514674854,imu_link,0.0034055004362016916,0.004688674584031105,0.44489142298698425,0.8955658078193665,0.0,0.0,0.0,0.0,0.0,0.0,0.0,0.0,0.0,52.8353157043457,0.30755820870399475,0.5885381698608398,0.0,0.0,0.0,0.0,0.0,0.0,0.0,0.0,0.0,-0.020423319190740585,-0.007277335971593857,0.07117313891649246,0.0,0.0,0.0,0.0,0.0,0.0,0.0,0.0,0.0
1606991354971274994,4326405,1606987753514760357,imu_link,0.0034066459629684687,0.004687584936618805,0.4448978304862976,0.8955626487731934,0.0,0.0,0.0,0.0,0.0,0.0,0.0,0.0,0.0,52.83613586425781,0.3073837459087372,0.5886023640632629,0.0,0.0,0.0,0.0,0.0,0.0,0.0,0.0,0.0,-0.022063283249735832,0.004670197144150734,0.06612229347229004,0.0,0.0,0.0,0.0,0.0,0.0,0.0,0.0,0.0
1606991354971322380,4326406,1606987753527527829,imu_link,0.0034066459629684687,0.004687584936618805,0.4448978304862976,0.8955626487731934,0.0,0.0,0.0,0.0,0.0,0.0,0.0,0.0,0.0,52.83613586425781,0.3073837459087372,0.5886023640632629,0.0,0.0,0.0,0.0,0.0,0.0,0.0,0.0,0.0,-0.022063283249735832,0.004670197144150734,0.06612229347229004,0.0,0.0,0.0,0.0,0.0,0.0,0.0,0.0,0.0
1606991354971340405,4326407,1606987753527669397,imu_link,0.0034072112757712603,0.004685459658503532,0.4448980689048767,0.8955625295639038,0.0,0.0,0.0,0.0,0.0,0.0,0.0,0.0,0.0,52.83616638183594,0.3071367144584656,0.5885521173477173,0.0,0.0,0.0,0.0,0.0,0.0,0.0,0.0,0.0,-0.023654021322727203,-0.006900924723595381,0.05215935409069061,0.0,0.0,0.0,0.0,0.0,0.0,0.0,0.0,0.0
1606991354971551419,4326408,1606987753527842523,imu_link,0.0034072112757712603,0.004685459658503532,0.4448980689048767,0.8955625295639038,0.0,0.0,0.0,0.0,0.0,0.0,0.0,0.0,0.0,52.83616638183594,0.3071367144584656,0.5885521173477173,0.0,0.0,0.0,0.0,0.0,0.0,0.0,0.0,0.0,-0.023654021322727203,-0.006900924723595381,0.05215935409069061,0.0,0.0,0.0,0.0,0.0,0.0,0.0,0.0,0.0
1606991354995141433,4326409,1606987753527943757,imu_link,0.0034094771835952997,0.004683320410549641,0.44490471482276917,0.8955592513084412,0.0,0.0,0.0,0.0,0.0,0.0,0.0,0.0,0.0,52.837013244628906,0.30679720640182495,0.5886778235435486,0.0,0.0,0.0,0.0,0.0,0.0,0.0,0.0,0.0,-0.008033442310988903,-0.02015998773276806,0.06407889723777771,0.0,0.0,0.0,0.0,0.0,0.0,0.0,0.0,0.0
1606991354995248837,4326410,1606987753528111821,imu_link,0.0034094771835952997,0.004683320410549641,0.44490471482276917,0.8955592513084412,0.0,0.0,0.0,0.0,0.0,0.0,0.0,0.0,0.0,52.837013244628906,0.30679720640182495,0.5886778235435486,0.0,0.0,0.0,0.0,0.0,0.0,0.0,0.0,0.0,-0.008033442310988903,-0.02015998773276806,0.06407889723777771,0.0,0.0,0.0,0.0,0.0,0.0,0.0,0.0,0.0
1606991354995269184,4326411,1606987753528221815,imu_link,0.0034110122360289097,0.004683547653257847,0.44490256905555725,0.8955603241920471,0.0,0.0,0.0,0.0,0.0,0.0,0.0,0.0,0.0,52.836734771728516,0.30674371123313904,0.5888461470603943,0.0,0.0,0.0,0.0,0.0,0.0,0.0,0.0,0.0,0.0017636420670896769,-0.011814157478511333,0.07935601472854614,0.0,0.0,0.0,0.0,0.0,0.0,0.0,0.0,0.0
1606991354995284038,4326412,1606987753528305760,imu_link,0.0034110122360289097,0.004683547653257847,0.44490256905555725,0.8955603241920471,0.0,0.0,0.0,0.0,0.0,0.0,0.0,0.0,0.0,52.836734771728516,0.30674371123313904,0.5888461470603943,0.0,0.0,0.0,0.0,0.0,0.0,0.0,0.0,0.0,0.0017636420670896769,-0.011814157478511333,0.07935601472854614,0.0,0.0,0.0,0.0,0.0,0.0,0.0,0.0,0.0
1606991354995298620,4326413,1606987753528387534,imu_link,0.003413902362808585,0.004685173276811838,0.44490647315979004,0.8955583572387695,0.0,0.0,0.0,0.0,0.0,0.0,0.0,0.0,0.0,52.83723831176758,0.30676063895225525,0.589227020740509,0.0,0.0,0.0,0.0,0.0,0.0,0.0,0.0,0.0,-1.4148070476949215e-05,0.0005564463790506124,0.05370398610830307,0.0,0.0,0.0,0.0,0.0,0.0,0.0,0.0,0.0
1606991355001267544,4326414,1606987753528468582,imu_link,0.003413902362808585,0.004685173276811838,0.44490647315979004,0.8955583572387695,0.0,0.0,0.0,0.0,0.0,0.0,0.0,0.0,0.0,52.83723831176758,0.30676063895225525,0.589227020740509,0.0,0.0,0.0,0.0,0.0,0.0,0.0,0.0,0.0,-1.4148070476949215e-05,0.0005564463790506124,0.05370398610830307,0.0,0.0,0.0,0.0,0.0,0.0,0.0,0.0,0.0
1606991355001314456,4326415,1606987753528551343,imu_link,0.003412260441109538,0.004682811442762613,0.44490551948547363,0.8955588340759277,0.0,0.0,0.0,0.0,0.0,0.0,0.0,0.0,0.0,52.83711624145508,0.3066025674343109,0.5889377593994141,0.0,0.0,0.0,0.0,0.0,0.0,0.0,0.0,0.0,-0.013838158920407295,-0.0017316347220912576,0.05267975851893425,0.0,0.0,0.0,0.0,0.0,0.0,0.0,0.0,0.0
1606991355001350718,4326416,1606987753528631719,imu_link,0.003412260441109538,0.004682811442762613,0.44490551948547363,0.8955588340759277,0.0,0.0,0.0,0.0,0.0,0.0,0.0,0.0,0.0,52.83711624145508,0.3066025674343109,0.5889377593994141,0.0,0.0,0.0,0.0,0.0,0.0,0.0,0.0,0.0,-0.013838158920407295,-0.0017316347220912576,0.05267975851893425,0.0,0.0,0.0,0.0,0.0,0.0,0.0,0.0,0.0
1606991355001381365,4326417,1606987753540401052,imu_link,0.003411761485040188,0.004680398851633072,0.4449102282524109,0.8955565094947815,0.0,0.0,0.0,0.0,0.0,0.0,0.0,0.0,0.0,52.837711334228516,0.3063773214817047,0.5887652039527893,0.0,0.0,0.0,0.0,0.0,0.0,0.0,0.0,0.0,-0.015972904860973358,-0.011733478866517544,0.06766284257173538,0.0,0.0,0.0,0.0,0.0,0.0,0.0,0.0,0.0
1606991355052291128,4326418,1606987753540516444,imu_link,0.003411761485040188,0.004680398851633072,0.4449102282524109,0.8955565094947815,0.0,0.0,0.0,0.0,0.0,0.0,0.0,0.0,0.0,52.837711334228516,0.3063773214817047,0.5887652039527893,0.0,0.0,0.0,0.0,0.0,0.0,0.0,0.0,0.0,-0.015972904860973358,-0.011733478866517544,0.06766284257173538,0.0,0.0,0.0,0.0,0.0,0.0,0.0,0.0,0.0
1606991355052317423,4326419,1606987753540597537,imu_link,0.0034122501965612173,0.004680957179516554,0.44490864872932434,0.8955572843551636,0.0,0.0,0.0,0.0,0.0,0.0,0.0,0.0,0.0,52.83750915527344,0.3064107894897461,0.5888432264328003,0.0,0.0,0.0,0.0,0.0,0.0,0.0,0.0,0.0,-0.0060482812114059925,-0.005698739551007748,0.06737350672483444,0.0,0.0,0.0,0.0,0.0,0.0,0.0,0.0,0.0
1606991355052332613,4326420,1606987753540695218,imu_link,0.0034122501965612173,0.004680957179516554,0.44490864872932434,0.8955572843551636,0.0,0.0,0.0,0.0,0.0,0.0,0.0,0.0,0.0,52.83750915527344,0.3064107894897461,0.5888432264328003,0.0,0.0,0.0,0.0,0.0,0.0,0.0,0.0,0.0,-0.0060482812114059925,-0.005698739551007748,0.06737350672483444,0.0,0.0,0.0,0.0,0.0,0.0,0.0,0.0,0.0
1606991355052343348,4326421,1606987753540782961,imu_link,0.0034121405333280563,0.004681070800870657,0.4449145197868347,0.8955543637275696,0.0,0.0,0.0,0.0,0.0,0.0,0.0,0.0,0.0,52.838260650634766,0.30642417073249817,0.5888397693634033,0.0,0.0,0.0,0.0,0.0,0.0,0.0,0.0,0.0,-0.0002688089734874666,0.005110010504722595,0.07859227061271667,0.0,0.0,0.0,0.0,0.0,0.0,0.0,0.0,0.0
1606991355052351184,4326422,1606987753540886741,imu_link,0.0034121405333280563,0.004681070800870657,0.4449145197868347,0.8955543637275696,0.0,0.0,0.0,0.0,0.0,0.0,0.0,0.0,0.0,52.838260650634766,0.30642417073249817,0.5888397693634033,0.0,0.0,0.0,0.0,0.0,0.0,0.0,0.0,0.0,-0.0002688089734874666,0.005110010504722595,0.07859227061271667,0.0,0.0,0.0,0.0,0.0,0.0,0.0,0.0,0.0
1606991355057012708,4326423,1606987753540971297,imu_link,0.0034096280578523874,0.004682200029492378,0.4449135959148407,0.8955548405647278,0.0,0.0,0.0,0.0,0.0,0.0,0.0,0.0,0.0,52.83815002441406,0.3066687285900116,0.5886392593383789,0.0,0.0,0.0,0.0,0.0,0.0,0.0,0.0,0.0,-0.005304852034896612,0.007869419641792774,0.07548787444829941,0.0,0.0,0.0,0.0,0.0,0.0,0.0,0.0,0.0
1606991355057062821,4326424,1606987753541048255,imu_link,0.0034096280578523874,0.004682200029492378,0.4449135959148407,0.8955548405647278,0.0,0.0,0.0,0.0,0.0,0.0,0.0,0.0,0.0,52.83815002441406,0.3066687285900116,0.5886392593383789,0.0,0.0,0.0,0.0,0.0,0.0,0.0,0.0,0.0,-0.005304852034896612,0.007869419641792774,0.07548787444829941,0.0,0.0,0.0,0.0,0.0,0.0,0.0,0.0,0.0
1606991355057079743,4326425,1606987753541131868,imu_link,0.0034077779855579138,0.004681045189499855,0.44492006301879883,0.8955516219139099,0.0,0.0,0.0,0.0,0.0,0.0,0.0,0.0,0.0,52.83897399902344,0.30664029717445374,0.5883927345275879,0.0,0.0,0.0,0.0,0.0,0.0,0.0,0.0,0.0,-0.014406152069568634,0.011156515218317509,0.060449860990047455,0.0,0.0,0.0,0.0,0.0,0.0,0.0,0.0,0.0
1606991355057089989,4326426,1606987753541218529,imu_link,0.0034077779855579138,0.004681045189499855,0.44492006301879883,0.8955516219139099,0.0,0.0,0.0,0.0,0.0,0.0,0.0,0.0,0.0,52.83897399902344,0.30664029717445374,0.5883927345275879,0.0,0.0,0.0,0.0,0.0,0.0,0.0,0.0,0.0,-0.014406152069568634,0.011156515218317509,0.060449860990047455,0.0,0.0,0.0,0.0,0.0,0.0,0.0,0.0,0.0
1606991355072513230,4326427,1606987753553898296,imu_link,0.003406720934435725,0.004679666832089424,0.4449182152748108,0.8955525755882263,0.0,0.0,0.0,0.0,0.0,0.0,0.0,0.0,0.0,52.8387336730957,0.30655398964881897,0.588213324546814,0.0,0.0,0.0,0.0,0.0,0.0,0.0,0.0,0.0,-0.005669002421200275,0.016265081241726875,0.05087059736251831,0.0,0.0,0.0,0.0,0.0,0.0,0.0,0.0,0.0
1606991355072547866,4326428,1606987753554021893,imu_link,0.003406720934435725,0.004679666832089424,0.4449182152748108,0.8955525755882263,0.0,0.0,0.0,0.0,0.0,0.0,0.0,0.0,0.0,52.8387336730957,0.30655398964881897,0.588213324546814,0.0,0.0,0.0,0.0,0.0,0.0,0.0,0.0,0.0,-0.005669002421200275,0.016265081241726875,0.05087059736251831,0.0,0.0,0.0,0.0,0.0,0.0,0.0,0.0,0.0
1606991355072601355,4326429,1606987753554196128,imu_link,0.0034054077696055174,0.0046804011799395084,0.4449235796928406,0.8955498933792114,0.0,0.0,0.0,0.0,0.0,0.0,0.0,0.0,0.0,52.83942413330078,0.3066927492618561,0.5881178379058838,0.0,0.0,0.0,0.0,0.0,0.0,0.0,0.0,0.0,0.0031007397919893265,0.014649532735347748,0.05575624108314514,0.0,0.0,0.0,0.0,0.0,0.0,0.0,0.0,0.0
1606991355072611404,4326430,1606987753554305362,imu_link,0.0034054077696055174,0.0046804011799395084,0.4449235796928406,0.8955498933792114,0.0,0.0,0.0,0.0,0.0,0.0,0.0,0.0,0.0,52.83942413330078,0.3066927492618561,0.5881178379058838,0.0,0.0,0.0,0.0,0.0,0.0,0.0,0.0,0.0,0.0031007397919893265,0.014649532735347748,0.05575624108314514,0.0,0.0,0.0,0.0,0.0,0.0,0.0,0.0,0.0
1606991355072621009,4326431,1606987753554383663,imu_link,0.0034041188191622496,0.0046801334246993065,0.4449232518672943,0.8955500721931458,0.0,0.0,0.0,0.0,0.0,0.0,0.0,0.0,0.0,52.839378356933594,0.3067312240600586,0.5879718065261841,0.0,0.0,0.0,0.0,0.0,0.0,0.0,0.0,0.0,0.006922027096152306,-0.0015845465241000056,0.04146559163928032,0.0,0.0,0.0,0.0,0.0,0.0,0.0,0.0,0.0
1606991355078358290,4326432,1606987753554455906,imu_link,0.0034041188191622496,0.0046801334246993065,0.4449232518672943,0.8955500721931458,0.0,0.0,0.0,0.0,0.0,0.0,0.0,0.0,0.0,52.839378356933594,0.3067312240600586,0.5879718065261841,0.0,0.0,0.0,0.0,0.0,0.0,0.0,0.0,0.0,0.006922027096152306,-0.0015845465241000056,0.04146559163928032,0.0,0.0,0.0,0.0,0.0,0.0,0.0,0.0,0.0
1606991355078397100,4326433,1606987753554548664,imu_link,0.003405063645914197,0.004683153238147497,0.44492658972740173,0.895548403263092,0.0,0.0,0.0,0.0,0.0,0.0,0.0,0.0,0.0,52.839805603027344,0.30699077248573303,0.5882238745689392,0.0,0.0,0.0,0.0,0.0,0.0,0.0,0.0,0.0,-0.011032510548830032,-0.016326844692230225,0.04554937407374382,0.0,0.0,0.0,0.0,0.0,0.0,0.0,0.0,0.0
1606991355078418138,4326434,1606987753554623369,imu_link,0.003405063645914197,0.004683153238147497,0.44492658972740173,0.895548403263092,0.0,0.0,0.0,0.0,0.0,0.0,0.0,0.0,0.0,52.839805603027344,0.30699077248573303,0.5882238745689392,0.0,0.0,0.0,0.0,0.0,0.0,0.0,0.0,0.0,-0.011032510548830032,-0.016326844692230225,0.04554937407374382,0.0,0.0,0.0,0.0,0.0,0.0,0.0,0.0,0.0
1606991355078456293,4326435,1606987753554724929,imu_link,0.003403737675398588,0.004686004016548395,0.44492295384407043,0.8955501914024353,0.0,0.0,0.0,0.0,0.0,0.0,0.0,0.0,0.0,52.8393440246582,0.30735325813293457,0.5882319808006287,0.0,0.0,0.0,0.0,0.0,0.0,0.0,0.0,0.0,-0.0067761605605483055,0.004385616164654493,0.06687582284212112,0.0,0.0,0.0,0.0,0.0,0.0,0.0,0.0,0.0
1606991355157835828,4326436,1606987753554811333,imu_link,0.003403737675398588,0.004686004016548395,0.44492295384407043,0.8955501914024353,0.0,0.0,0.0,0.0,0.0,0.0,0.0,0.0,0.0,52.8393440246582,0.30735325813293457,0.5882319808006287,0.0,0.0,0.0,0.0,0.0,0.0,0.0,0.0,0.0,-0.0067761605605483055,0.004385616164654493,0.06687582284212112,0.0,0.0,0.0,0.0,0.0,0.0,0.0,0.0,0.0
1606991355157863347,4326437,1606987753554878102,imu_link,0.0034048007801175117,0.004685430321842432,0.44492921233177185,0.8955469727516174,0.0,0.0,0.0,0.0,0.0,0.0,0.0,0.0,0.0,52.84014892578125,0.30723604559898376,0.5883139967918396,0.0,0.0,0.0,0.0,0.0,0.0,0.0,0.0,0.0,0.016676543280482292,0.020826492458581924,0.057850465178489685,0.0,0.0,0.0,0.0,0.0,0.0,0.0,0.0,0.0
1606991355157900801,4326438,1606987753567689385,imu_link,0.0034048007801175117,0.004685430321842432,0.44492921233177185,0.8955469727516174,0.0,0.0,0.0,0.0,0.0,0.0,0.0,0.0,0.0,52.84014892578125,0.30723604559898376,0.5883139967918396,0.0,0.0,0.0,0.0,0.0,0.0,0.0,0.0,0.0,0.016676543280482292,0.020826492458581924,0.057850465178489685,0.0,0.0,0.0,0.0,0.0,0.0,0.0,0.0,0.0
1606991355157913923,4326439,1606987753567837964,imu_link,0.0034036345314234495,0.004685224499553442,0.44492846727371216,0.8955474495887756,0.0,0.0,0.0,0.0,0.0,0.0,0.0,0.0,0.0,52.840049743652344,0.3072749674320221,0.5881835222244263,0.0,0.0,0.0,0.0,0.0,0.0,0.0,0.0,0.0,0.02682800032198429,0.005085631273686886,0.04731031134724617,0.0,0.0,0.0,0.0,0.0,0.0,0.0,0.0,0.0
1606991355157942016,4326440,1606987753567942912,imu_link,0.0034036345314234495,0.004685224499553442,0.44492846727371216,0.8955474495887756,0.0,0.0,0.0,0.0,0.0,0.0,0.0,0.0,0.0,52.840049743652344,0.3072749674320221,0.5881835222244263,0.0,0.0,0.0,0.0,0.0,0.0,0.0,0.0,0.0,0.02682800032198429,0.005085631273686886,0.04731031134724617,0.0,0.0,0.0,0.0,0.0,0.0,0.0,0.0,0.0
1606991355201337425,4326441,1606987753568034008,imu_link,0.0034010172821581364,0.004689974244683981,0.44493603706359863,0.8955436944961548,0.0,0.0,0.0,0.0,0.0,0.0,0.0,0.0,0.0,52.84102249145508,0.3078908324241638,0.5881596803665161,0.0,0.0,0.0,0.0,0.0,0.0,0.0,0.0,0.0,0.02901679091155529,0.008143424056470394,0.047452159225940704,0.0,0.0,0.0,0.0,0.0,0.0,0.0,0.0,0.0
1606991355201377579,4326442,1606987753568132150,imu_link,0.0034010172821581364,0.004689974244683981,0.44493603706359863,0.8955436944961548,0.0,0.0,0.0,0.0,0.0,0.0,0.0,0.0,0.0,52.84102249145508,0.3078908324241638,0.5881596803665161,0.0,0.0,0.0,0.0,0.0,0.0,0.0,0.0,0.0,0.02901679091155529,0.008143424056470394,0.047452159225940704,0.0,0.0,0.0,0.0,0.0,0.0,0.0,0.0,0.0
1606991355201397439,4326443,1606987753568212932,imu_link,0.0033997639548033476,0.004690420813858509,0.4449337422847748,0.8955448269844055,0.0,0.0,0.0,0.0,0.0,0.0,0.0,0.0,0.0,52.84073257446289,0.3080021142959595,0.5880530476570129,0.0,0.0,0.0,0.0,0.0,0.0,0.0,0.0,0.0,0.005381898023188114,0.018243759870529175,0.05141318216919899,0.0,0.0,0.0,0.0,0.0,0.0,0.0,0.0,0.0
1606991355201416855,4326444,1606987753568359326,imu_link,0.0033997639548033476,0.004690420813858509,0.4449337422847748,0.8955448269844055,0.0,0.0,0.0,0.0,0.0,0.0,0.0,0.0,0.0,52.84073257446289,0.3080021142959595,0.5880530476570129,0.0,0.0,0.0,0.0,0.0,0.0,0.0,0.0,0.0,0.005381898023188114,0.018243759870529175,0.05141318216919899,0.0,0.0,0.0,0.0,0.0,0.0,0.0,0.0,0.0
1606991355209406978,4326445,1606987753568442964,imu_link,0.003396619576960802,0.004690024070441723,0.4449404180049896,0.8955414891242981,0.0,0.0,0.0,0.0,0.0,0.0,0.0,0.0,0.0,52.841583251953125,0.3081173002719879,0.5877124667167664,0.0,0.0,0.0,0.0,0.0,0.0,0.0,0.0,0.0,-0.004069990012794733,0.0227603018283844,0.05351068452000618,0.0,0.0,0.0,0.0,0.0,0.0,0.0,0.0,0.0
1606991355209441144,4326446,1606987753568570570,imu_link,0.003396619576960802,0.004690024070441723,0.4449404180049896,0.8955414891242981,0.0,0.0,0.0,0.0,0.0,0.0,0.0,0.0,0.0,52.841583251953125,0.3081173002719879,0.5877124667167664,0.0,0.0,0.0,0.0,0.0,0.0,0.0,0.0,0.0,-0.004069990012794733,0.0227603018283844,0.05351068452000618,0.0,0.0,0.0,0.0,0.0,0.0,0.0,0.0,0.0
1606991355209457710,4326447,1606987753568652810,imu_link,0.003395881736651063,0.004690241068601608,0.4449377655982971,0.8955427408218384,0.0,0.0,0.0,0.0,0.0,0.0,0.0,0.0,0.0,52.84124755859375,0.30817893147468567,0.5876469016075134,0.0,0.0,0.0,0.0,0.0,0.0,0.0,0.0,0.0,-0.011441885493695736,0.027073934674263,0.06430704891681671,0.0,0.0,0.0,0.0,0.0,0.0,0.0,0.0,0.0
1606991355209496108,4326448,1606987753568737772,imu_link,0.003395881736651063,0.004690241068601608,0.4449377655982971,0.8955427408218384,0.0,0.0,0.0,0.0,0.0,0.0,0.0,0.0,0.0,52.84124755859375,0.30817893147468567,0.5876469016075134,0.0,0.0,0.0,0.0,0.0,0.0,0.0,0.0,0.0,-0.011441885493695736,0.027073934674263,0.06430704891681671,0.0,0.0,0.0,0.0,0.0,0.0,0.0,0.0,0.0
1606991355209507367,4326449,1606987753581175020,imu_link,0.003389233723282814,0.004686914384365082,0.444945752620697,0.8955389261245728,0.0,0.0,0.0,0.0,0.0,0.0,0.0,0.0,0.0,52.84225845336914,0.3081713318824768,0.5867977142333984,0.0,0.0,0.0,0.0,0.0,0.0,0.0,0.0,0.0,-0.013700859621167183,0.0030592249240726233,0.08854398876428604,0.0,0.0,0.0,0.0,0.0,0.0,0.0,0.0,0.0
1606991355226788066,4326450,1606987753581324596,imu_link,0.003389233723282814,0.004686914384365082,0.444945752620697,0.8955389261245728,0.0,0.0,0.0,0.0,0.0,0.0,0.0,0.0,0.0,52.84225845336914,0.3081713318824768,0.5867977142333984,0.0,0.0,0.0,0.0,0.0,0.0,0.0,0.0,0.0,-0.013700859621167183,0.0030592249240726233,0.08854398876428604,0.0,0.0,0.0,0.0,0.0,0.0,0.0,0.0,0.0
1606991355226831967,4326451,1606987753581424518,imu_link,0.00338949728757143,0.004688290413469076,0.4449431896209717,0.895540177822113,0.0,0.0,0.0,0.0,0.0,0.0,0.0,0.0,0.0,52.84193420410156,0.30830076336860657,0.5868939757347107,0.0,0.0,0.0,0.0,0.0,0.0,0.0,0.0,0.0,-0.01193489320576191,-0.005847976543009281,0.07797713577747345,0.0,0.0,0.0,0.0,0.0,0.0,0.0,0.0,0.0
1606991355226857240,4326452,1606987753581533244,imu_link,0.00338949728757143,0.004688290413469076,0.4449431896209717,0.895540177822113,0.0,0.0,0.0,0.0,0.0,0.0,0.0,0.0,0.0,52.84193420410156,0.30830076336860657,0.5868939757347107,0.0,0.0,0.0,0.0,0.0,0.0,0.0,0.0,0.0,-0.01193489320576191,-0.005847976543009281,0.07797713577747345,0.0,0.0,0.0,0.0,0.0,0.0,0.0,0.0,0.0
1606991355226876918,4326453,1606987753581622280,imu_link,0.0033917780965566635,0.004686378873884678,0.4449525773525238,0.8955355286598206,0.0,0.0,0.0,0.0,0.0,0.0,0.0,0.0,0.0,52.8431282043457,0.3079821765422821,0.5870338082313538,0.0,0.0,0.0,0.0,0.0,0.0,0.0,0.0,0.0,-0.006846231874078512,-0.006068593822419643,0.05371512100100517,0.0,0.0,0.0,0.0,0.0,0.0,0.0,0.0,0.0
1606991355310908316,4326454,1606987753581701749,imu_link,0.0033917780965566635,0.004686378873884678,0.4449525773525238,0.8955355286598206,0.0,0.0,0.0,0.0,0.0,0.0,0.0,0.0,0.0,52.8431282043457,0.3079821765422821,0.5870338082313538,0.0,0.0,0.0,0.0,0.0,0.0,0.0,0.0,0.0,-0.006846231874078512,-0.006068593822419643,0.05371512100100517,0.0,0.0,0.0,0.0,0.0,0.0,0.0,0.0,0.0
1606991355310940010,4326455,1606987753581801580,imu_link,0.0033893079962581396,0.004686267115175724,0.44494980573654175,0.8955368995666504,0.0,0.0,0.0,0.0,0.0,0.0,0.0,0.0,0.0,52.84278106689453,0.3080984652042389,0.5867737531661987,0.0,0.0,0.0,0.0,0.0,0.0,0.0,0.0,0.0,-0.0077955336309969425,0.000907690788153559,0.04627184942364693,0.0,0.0,0.0,0.0,0.0,0.0,0.0,0.0,0.0
1606991355310957672,4326456,1606987753581882563,imu_link,0.0033893079962581396,0.004686267115175724,0.44494980573654175,0.8955368995666504,0.0,0.0,0.0,0.0,0.0,0.0,0.0,0.0,0.0,52.84278106689453,0.3080984652042389,0.5867737531661987,0.0,0.0,0.0,0.0,0.0,0.0,0.0,0.0,0.0,-0.0077955336309969425,0.000907690788153559,0.04627184942364693,0.0,0.0,0.0,0.0,0.0,0.0,0.0,0.0,0.0
1606991355310976057,4326457,1606987753581976866,imu_link,0.003390055848285556,0.0046854168176651,0.4449569582939148,0.8955333828926086,0.0,0.0,0.0,0.0,0.0,0.0,0.0,0.0,0.0,52.84369659423828,0.3079683780670166,0.586809515953064,0.0,0.0,0.0,0.0,0.0,0.0,0.0,0.0,0.0,-0.009718591347336769,0.017941178753972054,0.04215003550052643,0.0,0.0,0.0,0.0,0.0,0.0,0.0,0.0,0.0
1606991355310991776,4326458,1606987753582056260,imu_link,0.003390055848285556,0.0046854168176651,0.4449569582939148,0.8955333828926086,0.0,0.0,0.0,0.0,0.0,0.0,0.0,0.0,0.0,52.84369659423828,0.3079683780670166,0.586809515953064,0.0,0.0,0.0,0.0,0.0,0.0,0.0,0.0,0.0,-0.009718591347336769,0.017941178753972054,0.04215003550052643,0.0,0.0,0.0,0.0,0.0,0.0,0.0,0.0,0.0
1606991355322949498,4326459,1606987753582153349,imu_link,0.0033902947325259447,0.004684749990701675,0.44495466351509094,0.8955345153808594,0.0,0.0,0.0,0.0,0.0,0.0,0.0,0.0,0.0,52.8433952331543,0.30788928270339966,0.5867992639541626,0.0,0.0,0.0,0.0,0.0,0.0,0.0,0.0,0.0,-0.011802778579294682,0.0015010801143944263,0.05410211160778999,0.0,0.0,0.0,0.0,0.0,0.0,0.0,0.0,0.0
1606991355322988059,4326460,1606987753595066033,imu_link,0.0033902947325259447,0.004684749990701675,0.44495466351509094,0.8955345153808594,0.0,0.0,0.0,0.0,0.0,0.0,0.0,0.0,0.0,52.8433952331543,0.30788928270339966,0.5867992639541626,0.0,0.0,0.0,0.0,0.0,0.0,0.0,0.0,0.0,-0.011802778579294682,0.0015010801143944263,0.05410211160778999,0.0,0.0,0.0,0.0,0.0,0.0,0.0,0.0,0.0
1606991355323028011,4326461,1606987753595204985,imu_link,0.0033890665508806705,0.00468114297837019,0.44494885206222534,0.8955373167991638,0.0,0.0,0.0,0.0,0.0,0.0,0.0,0.0,0.0,52.84265899658203,0.3075854778289795,0.5864872932434082,0.0,0.0,0.0,0.0,0.0,0.0,0.0,0.0,0.0,-0.019289275631308556,-0.008529744111001492,0.07357799261808395,0.0,0.0,0.0,0.0,0.0,0.0,0.0,0.0,0.0
1606991355323059611,4326462,1606987753595313606,imu_link,0.0033890665508806705,0.00468114297837019,0.44494885206222534,0.8955373167991638,0.0,0.0,0.0,0.0,0.0,0.0,0.0,0.0,0.0,52.84265899658203,0.3075854778289795,0.5864872932434082,0.0,0.0,0.0,0.0,0.0,0.0,0.0,0.0,0.0,-0.019289275631308556,-0.008529744111001492,0.07357799261808395,0.0,0.0,0.0,0.0,0.0,0.0,0.0,0.0,0.0
1606991355323141337,4326463,1606987753595400753,imu_link,0.0033917794935405254,0.004680500365793705,0.4449460208415985,0.8955387473106384,0.0,0.0,0.0,0.0,0.0,0.0,0.0,0.0,0.0,52.84229278564453,0.30738306045532227,0.586732029914856,0.0,0.0,0.0,0.0,0.0,0.0,0.0,0.0,0.0,-0.007573743816465139,0.00045709568075835705,0.07411926984786987,0.0,0.0,0.0,0.0,0.0,0.0,0.0,0.0,0.0
1606991355323165901,4326464,1606987753595486752,imu_link,0.0033917794935405254,0.004680500365793705,0.4449460208415985,0.8955387473106384,0.0,0.0,0.0,0.0,0.0,0.0,0.0,0.0,0.0,52.84229278564453,0.30738306045532227,0.586732029914856,0.0,0.0,0.0,0.0,0.0,0.0,0.0,0.0,0.0,-0.007573743816465139,0.00045709568075835705,0.07411926984786987,0.0,0.0,0.0,0.0,0.0,0.0,0.0,0.0,0.0
1606991355323350749,4326465,1606987753595591128,imu_link,0.0033933003433048725,0.004678723867982626,0.4449397921562195,0.8955418467521667,0.0,0.0,0.0,0.0,0.0,0.0,0.0,0.0,0.0,52.84149169921875,0.3071272671222687,0.5867953896522522,0.0,0.0,0.0,0.0,0.0,0.0,0.0,0.0,0.0,0.006540653295814991,0.008967510424554348,0.08115973323583603,0.0,0.0,0.0,0.0,0.0,0.0,0.0,0.0,0.0
1606991355323383226,4326466,1606987753595678155,imu_link,0.0033933003433048725,0.004678723867982626,0.4449397921562195,0.8955418467521667,0.0,0.0,0.0,0.0,0.0,0.0,0.0,0.0,0.0,52.84149169921875,0.3071272671222687,0.5867953896522522,0.0,0.0,0.0,0.0,0.0,0.0,0.0,0.0,0.0,0.006540653295814991,0.008967510424554348,0.08115973323583603,0.0,0.0,0.0,0.0,0.0,0.0,0.0,0.0,0.0
1606991355323410797,4326467,1606987753595764921,imu_link,0.0033935161773115396,0.004676826298236847,0.4449380338191986,0.8955427408218384,0.0,0.0,0.0,0.0,0.0,0.0,0.0,0.0,0.0,52.84126281738281,0.3069227337837219,0.5867201089859009,0.0,0.0,0.0,0.0,0.0,0.0,0.0,0.0,0.0,0.008773145265877247,-0.001880106283351779,0.07521794736385345,0.0,0.0,0.0,0.0,0.0,0.0,0.0,0.0,0.0
1606991355335253376,4326468,1606987753595858096,imu_link,0.0033935161773115396,0.004676826298236847,0.4449380338191986,0.8955427408218384,0.0,0.0,0.0,0.0,0.0,0.0,0.0,0.0,0.0,52.84126281738281,0.3069227337837219,0.5867201089859009,0.0,0.0,0.0,0.0,0.0,0.0,0.0,0.0,0.0,0.008773145265877247,-0.001880106283351779,0.07521794736385345,0.0,0.0,0.0,0.0,0.0,0.0,0.0,0.0,0.0
1606991355335295490,4326469,1606987753595937821,imu_link,0.003393435152247548,0.004678408615291119,0.444940447807312,0.8955415487289429,0.0,0.0,0.0,0.0,0.0,0.0,0.0,0.0,0.0,52.841575622558594,0.30708765983581543,0.5867933630943298,0.0,0.0,0.0,0.0,0.0,0.0,0.0,0.0,0.0,0.01748192496597767,-0.007173136342316866,0.07202847301959991,0.0,0.0,0.0,0.0,0.0,0.0,0.0,0.0,0.0
1606991355335307210,4326470,1606987753596058074,imu_link,0.003393435152247548,0.004678408615291119,0.444940447807312,0.8955415487289429,0.0,0.0,0.0,0.0,0.0,0.0,0.0,0.0,0.0,52.841575622558594,0.30708765983581543,0.5867933630943298,0.0,0.0,0.0,0.0,0.0,0.0,0.0,0.0,0.0,0.01748192496597767,-0.007173136342316866,0.07202847301959991,0.0,0.0,0.0,0.0,0.0,0.0,0.0,0.0,0.0
1606991355335328486,4326471,1606987753607925569,imu_link,0.0033912190701812506,0.004678426310420036,0.4449418783187866,0.8955408334732056,0.0,0.0,0.0,0.0,0.0,0.0,0.0,0.0,0.0,52.84175491333008,0.3072015345096588,0.5865673422813416,0.0,0.0,0.0,0.0,0.0,0.0,0.0,0.0,0.0,0.0129395117983222,0.01435744110494852,0.07958431541919708,0.0,0.0,0.0,0.0,0.0,0.0,0.0,0.0,0.0
1606991355448603153,4326472,1606987753608068765,imu_link,0.0033912190701812506,0.004678426310420036,0.4449418783187866,0.8955408334732056,0.0,0.0,0.0,0.0,0.0,0.0,0.0,0.0,0.0,52.84175491333008,0.3072015345096588,0.5865673422813416,0.0,0.0,0.0,0.0,0.0,0.0,0.0,0.0,0.0,0.0129395117983222,0.01435744110494852,0.07958431541919708,0.0,0.0,0.0,0.0,0.0,0.0,0.0,0.0,0.0
1606991355448637606,4326473,1606987753608190251,imu_link,0.0033892379142344,0.004678844474256039,0.4449421763420105,0.895540714263916,0.0,0.0,0.0,0.0,0.0,0.0,0.0,0.0,0.0,52.841796875,0.30734530091285706,0.5863853693008423,0.0,0.0,0.0,0.0,0.0,0.0,0.0,0.0,0.0,-0.021118570119142532,0.011162840761244297,0.06605535000562668,0.0,0.0,0.0,0.0,0.0,0.0,0.0,0.0,0.0
1606991355448650018,4326474,1606987753608289241,imu_link,0.0033892379142344,0.004678844474256039,0.4449421763420105,0.895540714263916,0.0,0.0,0.0,0.0,0.0,0.0,0.0,0.0,0.0,52.841796875,0.30734530091285706,0.5863853693008423,0.0,0.0,0.0,0.0,0.0,0.0,0.0,0.0,0.0,-0.021118570119142532,0.011162840761244297,0.06605535000562668,0.0,0.0,0.0,0.0,0.0,0.0,0.0,0.0,0.0
1606991355448676723,4326475,1606987753608382246,imu_link,0.0033901638817042112,0.004679548554122448,0.44493913650512695,0.8955422043800354,0.0,0.0,0.0,0.0,0.0,0.0,0.0,0.0,0.0,52.84141159057617,0.3073723018169403,0.5865153670310974,0.0,0.0,0.0,0.0,0.0,0.0,0.0,0.0,0.0,-0.012603003531694412,-0.011242032051086426,0.06096653267741203,0.0,0.0,0.0,0.0,0.0,0.0,0.0,0.0,0.0
1606991355457515565,4326476,1606987753608481992,imu_link,0.0033901638817042112,0.004679548554122448,0.44493913650512695,0.8955422043800354,0.0,0.0,0.0,0.0,0.0,0.0,0.0,0.0,0.0,52.84141159057617,0.3073723018169403,0.5865153670310974,0.0,0.0,0.0,0.0,0.0,0.0,0.0,0.0,0.0,-0.012603003531694412,-0.011242032051086426,0.06096653267741203,0.0,0.0,0.0,0.0,0.0,0.0,0.0,0.0,0.0
1606991355457544919,4326477,1606987753608565520,imu_link,0.003392694517970085,0.004679429344832897,0.4449365735054016,0.8955434560775757,0.0,0.0,0.0,0.0,0.0,0.0,0.0,0.0,0.0,52.84107971191406,0.30723270773887634,0.5867680907249451,0.0,0.0,0.0,0.0,0.0,0.0,0.0,0.0,0.0,-0.004102748353034258,-0.009403377771377563,0.05934435501694679,0.0,0.0,0.0,0.0,0.0,0.0,0.0,0.0,0.0
1606991355457576723,4326478,1606987753608644458,imu_link,0.003392694517970085,0.004679429344832897,0.4449365735054016,0.8955434560775757,0.0,0.0,0.0,0.0,0.0,0.0,0.0,0.0,0.0,52.84107971191406,0.30723270773887634,0.5867680907249451,0.0,0.0,0.0,0.0,0.0,0.0,0.0,0.0,0.0,-0.004102748353034258,-0.009403377771377563,0.05934435501694679,0.0,0.0,0.0,0.0,0.0,0.0,0.0,0.0,0.0
1606991355457687071,4326479,1606987753608770499,imu_link,0.003392706857994199,0.004678170196712017,0.44493499398231506,0.8955442309379578,0.0,0.0,0.0,0.0,0.0,0.0,0.0,0.0,0.0,52.84088134765625,0.3071039021015167,0.5867046117782593,0.0,0.0,0.0,0.0,0.0,0.0,0.0,0.0,0.0,-0.012204830534756184,0.007899443618953228,0.06970736384391785,0.0,0.0,0.0,0.0,0.0,0.0,0.0,0.0,0.0
1606991355457703285,4326480,1606987753608852274,imu_link,0.003392706857994199,0.004678170196712017,0.44493499398231506,0.8955442309379578,0.0,0.0,0.0,0.0,0.0,0.0,0.0,0.0,0.0,52.84088134765625,0.3071039021015167,0.5867046117782593,0.0,0.0,0.0,0.0,0.0,0.0,0.0,0.0,0.0,-0.012204830534756184,0.007899443618953228,0.06970736384391785,0.0,0.0,0.0,0.0,0.0,0.0,0.0,0.0,0.0
1606991355464680848,4326481,1606987753621350824,imu_link,0.0033945725299417973,0.004675811156630516,0.44493529200553894,0.8955441117286682,0.0,0.0,0.0,0.0,0.0,0.0,0.0,0.0,0.0,52.840911865234375,0.3067665100097656,0.5867758393287659,0.0,0.0,0.0,0.0,0.0,0.0,0.0,0.0,0.0,0.0008045770227909088,0.009439799934625626,0.07242701202630997,0.0,0.0,0.0,0.0,0.0,0.0,0.0,0.0,0.0
1606991355464723554,4326482,1606987753621497273,imu_link,0.0033945725299417973,0.004675811156630516,0.44493529200553894,0.8955441117286682,0.0,0.0,0.0,0.0,0.0,0.0,0.0,0.0,0.0,52.840911865234375,0.3067665100097656,0.5867758393287659,0.0,0.0,0.0,0.0,0.0,0.0,0.0,0.0,0.0,0.0008045770227909088,0.009439799934625626,0.07242701202630997,0.0,0.0,0.0,0.0,0.0,0.0,0.0,0.0,0.0
1606991355464739591,4326483,1606987753621652798,imu_link,0.003394745523110032,0.004676189739257097,0.4449354410171509,0.8955440521240234,0.0,0.0,0.0,0.0,0.0,0.0,0.0,0.0,0.0,52.84093475341797,0.30679643154144287,0.5868129730224609,0.0,0.0,0.0,0.0,0.0,0.0,0.0,0.0,0.0,0.01258970145136118,0.009851055219769478,0.05579071864485741,0.0,0.0,0.0,0.0,0.0,0.0,0.0,0.0,0.0
1606991355464752200,4326484,1606987753621744620,imu_link,0.003394745523110032,0.004676189739257097,0.4449354410171509,0.8955440521240234,0.0,0.0,0.0,0.0,0.0,0.0,0.0,0.0,0.0,52.84093475341797,0.30679643154144287,0.5868129730224609,0.0,0.0,0.0,0.0,0.0,0.0,0.0,0.0,0.0,0.01258970145136118,0.009851055219769478,0.05579071864485741,0.0,0.0,0.0,0.0,0.0,0.0,0.0,0.0,0.0
1606991355473146422,4326485,1606987753621836338,imu_link,0.003390297759324312,0.00467716297134757,0.4449429214000702,0.8955403566360474,0.0,0.0,0.0,0.0,0.0,0.0,0.0,0.0,0.0,52.84189224243164,0.3071182072162628,0.5864086151123047,0.0,0.0,0.0,0.0,0.0,0.0,0.0,0.0,0.0,0.007725303992629051,0.0027036829851567745,0.05210786685347557,0.0,0.0,0.0,0.0,0.0,0.0,0.0,0.0,0.0
1606991355473187838,4326486,1606987753621917736,imu_link,0.003390297759324312,0.00467716297134757,0.4449429214000702,0.8955403566360474,0.0,0.0,0.0,0.0,0.0,0.0,0.0,0.0,0.0,52.84189224243164,0.3071182072162628,0.5864086151123047,0.0,0.0,0.0,0.0,0.0,0.0,0.0,0.0,0.0,0.007725303992629051,0.0027036829851567745,0.05210786685347557,0.0,0.0,0.0,0.0,0.0,0.0,0.0,0.0,0.0
1606991355473214451,4326487,1606987753622020058,imu_link,0.0033921527210623026,0.0046771555207669735,0.44494393467903137,0.8955398201942444,0.0,0.0,0.0,0.0,0.0,0.0,0.0,0.0,0.0,52.84202194213867,0.30702218413352966,0.5865989923477173,0.0,0.0,0.0,0.0,0.0,0.0,0.0,0.0,0.0,-0.010689499787986279,0.0002487915917299688,0.06229747086763382,0.0,0.0,0.0,0.0,0.0,0.0,0.0,0.0,0.0
1606991355473236438,4326488,1606987753622105465,imu_link,0.0033921527210623026,0.0046771555207669735,0.44494393467903137,0.8955398201942444,0.0,0.0,0.0,0.0,0.0,0.0,0.0,0.0,0.0,52.84202194213867,0.30702218413352966,0.5865989923477173,0.0,0.0,0.0,0.0,0.0,0.0,0.0,0.0,0.0,-0.010689499787986279,0.0002487915917299688,0.06229747086763382,0.0,0.0,0.0,0.0,0.0,0.0,0.0,0.0,0.0
1606991355473253281,4326489,1606987753622187576,imu_link,0.003390844212844968,0.004675246775150299,0.44494956731796265,0.8955370187759399,0.0,0.0,0.0,0.0,0.0,0.0,0.0,0.0,0.0,52.84273910522461,0.3068893253803253,0.5863693356513977,0.0,0.0,0.0,0.0,0.0,0.0,0.0,0.0,0.0,0.00016353142564184964,0.017805341631174088,0.06521837413311005,0.0,0.0,0.0,0.0,0.0,0.0,0.0,0.0,0.0
1606991355520958677,4326490,1606987753622267420,imu_link,0.003390844212844968,0.004675246775150299,0.44494956731796265,0.8955370187759399,0.0,0.0,0.0,0.0,0.0,0.0,0.0,0.0,0.0,52.84273910522461,0.3068893253803253,0.5863693356513977,0.0,0.0,0.0,0.0,0.0,0.0,0.0,0.0,0.0,0.00016353142564184964,0.017805341631174088,0.06521837413311005,0.0,0.0,0.0,0.0,0.0,0.0,0.0,0.0,0.0
1606991355520993248,4326491,1606987753622349034,imu_link,0.0033892043866217136,0.004675357136875391,0.44494760036468506,0.8955380320549011,0.0,0.0,0.0,0.0,0.0,0.0,0.0,0.0,0.0,52.842491149902344,0.3069855272769928,0.5862060189247131,0.0,0.0,0.0,0.0,0.0,0.0,0.0,0.0,0.0,0.012498147785663605,0.026096876710653305,0.03704819455742836,0.0,0.0,0.0,0.0,0.0,0.0,0.0,0.0,0.0
1606991355521004984,4326492,1606987753635160514,imu_link,0.0033892043866217136,0.004675357136875391,0.44494760036468506,0.8955380320549011,0.0,0.0,0.0,0.0,0.0,0.0,0.0,0.0,0.0,52.842491149902344,0.3069855272769928,0.5862060189247131,0.0,0.0,0.0,0.0,0.0,0.0,0.0,0.0,0.0,0.012498147785663605,0.026096876710653305,0.03704819455742836,0.0,0.0,0.0,0.0,0.0,0.0,0.0,0.0,0.0
1606991355521021607,4326493,1606987753635340666,imu_link,0.003384215524420142,0.004674677737057209,0.4449540376663208,0.895534873008728,0.0,0.0,0.0,0.0,0.0,0.0,0.0,0.0,0.0,52.84330749511719,0.3071660101413727,0.5856615900993347,0.0,0.0,0.0,0.0,0.0,0.0,0.0,0.0,0.0,0.009825129061937332,0.00042538827983662486,0.03532804921269417,0.0,0.0,0.0,0.0,0.0,0.0,0.0,0.0,0.0
1606991355528161517,4326494,1606987753635467294,imu_link,0.003384215524420142,0.004674677737057209,0.4449540376663208,0.895534873008728,0.0,0.0,0.0,0.0,0.0,0.0,0.0,0.0,0.0,52.84330749511719,0.3071660101413727,0.5856615900993347,0.0,0.0,0.0,0.0,0.0,0.0,0.0,0.0,0.0,0.009825129061937332,0.00042538827983662486,0.03532804921269417,0.0,0.0,0.0,0.0,0.0,0.0,0.0,0.0,0.0
1606991355528188270,4326495,1606987753635590544,imu_link,0.0033818953670561314,0.004674795549362898,0.4449540972709656,0.8955348134040833,0.0,0.0,0.0,0.0,0.0,0.0,0.0,0.0,0.0,52.843318939208984,0.30729636549949646,0.5854294896125793,0.0,0.0,0.0,0.0,0.0,0.0,0.0,0.0,0.0,0.008195937611162663,-0.025375014171004295,0.05221042409539223,0.0,0.0,0.0,0.0,0.0,0.0,0.0,0.0,0.0
1606991355528232846,4326496,1606987753635715493,imu_link,0.0033818953670561314,0.004674795549362898,0.4449540972709656,0.8955348134040833,0.0,0.0,0.0,0.0,0.0,0.0,0.0,0.0,0.0,52.843318939208984,0.30729636549949646,0.5854294896125793,0.0,0.0,0.0,0.0,0.0,0.0,0.0,0.0,0.0,0.008195937611162663,-0.025375014171004295,0.05221042409539223,0.0,0.0,0.0,0.0,0.0,0.0,0.0,0.0,0.0
1606991355528246324,4326497,1606987753635837370,imu_link,0.0033858479000627995,0.0046804859302937984,0.44495972990989685,0.8955320119857788,0.0,0.0,0.0,0.0,0.0,0.0,0.0,0.0,0.0,52.84404373168945,0.3076750636100769,0.5861272811889648,0.0,0.0,0.0,0.0,0.0,0.0,0.0,0.0,0.0,0.006606437265872955,-0.013313119299709797,0.024698004126548767,0.0,0.0,0.0,0.0,0.0,0.0,0.0,0.0,0.0
1606991355528257129,4326498,1606987753635969827,imu_link,0.0033858479000627995,0.0046804859302937984,0.44495972990989685,0.8955320119857788,0.0,0.0,0.0,0.0,0.0,0.0,0.0,0.0,0.0,52.84404373168945,0.3076750636100769,0.5861272811889648,0.0,0.0,0.0,0.0,0.0,0.0,0.0,0.0,0.0,0.006606437265872955,-0.013313119299709797,0.024698004126548767,0.0,0.0,0.0,0.0,0.0,0.0,0.0,0.0,0.0
1606991355536161414,4326499,1606987753636081936,imu_link,0.0033863389398902655,0.004681489430367947,0.4449562728404999,0.8955336809158325,0.0,0.0,0.0,0.0,0.0,0.0,0.0,0.0,0.0,52.843605041503906,0.3077552616596222,0.5862276554107666,0.0,0.0,0.0,0.0,0.0,0.0,0.0,0.0,0.0,0.004043469671159983,0.0016621968243271112,0.02104131132364273,0.0,0.0,0.0,0.0,0.0,0.0,0.0,0.0,0.0
1606991355536191220,4326500,1606987753636188142,imu_link,0.0033863389398902655,0.004681489430367947,0.4449562728404999,0.8955336809158325,0.0,0.0,0.0,0.0,0.0,0.0,0.0,0.0,0.0,52.843605041503906,0.3077552616596222,0.5862276554107666,0.0,0.0,0.0,0.0,0.0,0.0,0.0,0.0,0.0,0.004043469671159983,0.0016621968243271112,0.02104131132364273,0.0,0.0,0.0,0.0,0.0,0.0,0.0,0.0,0.0
1606991355536225256,4326501,1606987753636291872,imu_link,0.0033858364913612604,0.0046801380813121796,0.444953054189682,0.8955352902412415,0.0,0.0,0.0,0.0,0.0,0.0,0.0,0.0,0.0,52.84318923950195,0.3076443374156952,0.58610600233078,0.0,0.0,0.0,0.0,0.0,0.0,0.0,0.0,0.0,0.0002767668920569122,0.0043417913839221,0.07483217865228653,0.0,0.0,0.0,0.0,0.0,0.0,0.0,0.0,0.0
1606991355536241221,4326502,1606987753636395457,imu_link,0.0033858364913612604,0.0046801380813121796,0.444953054189682,0.8955352902412415,0.0,0.0,0.0,0.0,0.0,0.0,0.0,0.0,0.0,52.84318923950195,0.3076443374156952,0.58610600233078,0.0,0.0,0.0,0.0,0.0,0.0,0.0,0.0,0.0,0.0002767668920569122,0.0043417913839221,0.07483217865228653,0.0,0.0,0.0,0.0,0.0,0.0,0.0,0.0,0.0
1606991355547341271,4326503,1606987753648610718,imu_link,0.003386494005098939,0.004680930636823177,0.4449506103992462,0.895536482334137,0.0,0.0,0.0,0.0,0.0,0.0,0.0,0.0,0.0,52.8428840637207,0.307693749666214,0.5862131118774414,0.0,0.0,0.0,0.0,0.0,0.0,0.0,0.0,0.0,-0.009459064342081547,-0.0009719637455418706,0.0906081274151802,0.0,0.0,0.0,0.0,0.0,0.0,0.0,0.0,0.0
1606991355547370792,4326504,1606987753648736840,imu_link,0.003386494005098939,0.004680930636823177,0.4449506103992462,0.895536482334137,0.0,0.0,0.0,0.0,0.0,0.0,0.0,0.0,0.0,52.8428840637207,0.307693749666214,0.5862131118774414,0.0,0.0,0.0,0.0,0.0,0.0,0.0,0.0,0.0,-0.009459064342081547,-0.0009719637455418706,0.0906081274151802,0.0,0.0,0.0,0.0,0.0,0.0,0.0,0.0,0.0
1606991355547389178,4326505,1606987753648826424,imu_link,0.0033888390753418207,0.004680348094552755,0.4449504315853119,0.8955366015434265,0.0,0.0,0.0,0.0,0.0,0.0,0.0,0.0,0.0,52.84285354614258,0.307514488697052,0.586423933506012,0.0,0.0,0.0,0.0,0.0,0.0,0.0,0.0,0.0,0.0027055838145315647,0.003989523742347956,0.04735158011317253,0.0,0.0,0.0,0.0,0.0,0.0,0.0,0.0,0.0
1606991355547420915,4326506,1606987753648908959,imu_link,0.0033888390753418207,0.004680348094552755,0.4449504315853119,0.8955366015434265,0.0,0.0,0.0,0.0,0.0,0.0,0.0,0.0,0.0,52.84285354614258,0.307514488697052,0.586423933506012,0.0,0.0,0.0,0.0,0.0,0.0,0.0,0.0,0.0,0.0027055838145315647,0.003989523742347956,0.04735158011317253,0.0,0.0,0.0,0.0,0.0,0.0,0.0,0.0,0.0
1606991355547439267,4326507,1606987753648992028,imu_link,0.0033888204488903284,0.004679264035075903,0.44495052099227905,0.8955365419387817,0.0,0.0,0.0,0.0,0.0,0.0,0.0,0.0,0.0,52.842864990234375,0.30740416049957275,0.5863668918609619,0.0,0.0,0.0,0.0,0.0,0.0,0.0,0.0,0.0,0.00963819120079279,0.004383469000458717,0.0401763878762722,0.0,0.0,0.0,0.0,0.0,0.0,0.0,0.0,0.0
1606991355615847679,4326508,1606987753649088885,imu_link,0.0033888204488903284,0.004679264035075903,0.44495052099227905,0.8955365419387817,0.0,0.0,0.0,0.0,0.0,0.0,0.0,0.0,0.0,52.842864990234375,0.30740416049957275,0.5863668918609619,0.0,0.0,0.0,0.0,0.0,0.0,0.0,0.0,0.0,0.00963819120079279,0.004383469000458717,0.0401763878762722,0.0,0.0,0.0,0.0,0.0,0.0,0.0,0.0,0.0
1606991355615883009,4326509,1606987753649173340,imu_link,0.0033866993617266417,0.004680486395955086,0.44495585560798645,0.8955338597297668,0.0,0.0,0.0,0.0,0.0,0.0,0.0,0.0,0.0,52.84354782104492,0.30763423442840576,0.5862133502960205,0.0,0.0,0.0,0.0,0.0,0.0,0.0,0.0,0.0,0.0017591859214007854,-0.0030434674117714167,0.052100371569395065,0.0,0.0,0.0,0.0,0.0,0.0,0.0,0.0,0.0
1606991355615888760,4326510,1606987753649250997,imu_link,0.0033866993617266417,0.004680486395955086,0.44495585560798645,0.8955338597297668,0.0,0.0,0.0,0.0,0.0,0.0,0.0,0.0,0.0,52.84354782104492,0.30763423442840576,0.5862133502960205,0.0,0.0,0.0,0.0,0.0,0.0,0.0,0.0,0.0,0.0017591859214007854,-0.0030434674117714167,0.052100371569395065,0.0,0.0,0.0,0.0,0.0,0.0,0.0,0.0,0.0
1606991355615930964,4326511,1606987753649326482,imu_link,0.0033887126483023167,0.0046798791736364365,0.4449555575847626,0.8955340385437012,0.0,0.0,0.0,0.0,0.0,0.0,0.0,0.0,0.0,52.843509674072266,0.3074694573879242,0.5863888263702393,0.0,0.0,0.0,0.0,0.0,0.0,0.0,0.0,0.0,0.001888215309008956,0.010433836840093136,0.032485898584127426,0.0,0.0,0.0,0.0,0.0,0.0,0.0,0.0,0.0
1606991355623454222,4326512,1606987753649401692,imu_link,0.0033887126483023167,0.0046798791736364365,0.4449555575847626,0.8955340385437012,0.0,0.0,0.0,0.0,0.0,0.0,0.0,0.0,0.0,52.843509674072266,0.3074694573879242,0.5863888263702393,0.0,0.0,0.0,0.0,0.0,0.0,0.0,0.0,0.0,0.001888215309008956,0.010433836840093136,0.032485898584127426,0.0,0.0,0.0,0.0,0.0,0.0,0.0,0.0,0.0
1606991355623479931,4326513,1606987753649476790,imu_link,0.0033865771256387234,0.0046800351701676846,0.4449586570262909,0.895532488822937,0.0,0.0,0.0,0.0,0.0,0.0,0.0,0.0,0.0,52.843910217285156,0.3075923025608063,0.5861787796020508,0.0,0.0,0.0,0.0,0.0,0.0,0.0,0.0,0.0,0.005042987875640392,0.013106892816722393,0.03354562073945999,0.0,0.0,0.0,0.0,0.0,0.0,0.0,0.0,0.0
1606991355623507026,4326514,1606987753661562692,imu_link,0.0033865771256387234,0.0046800351701676846,0.4449586570262909,0.895532488822937,0.0,0.0,0.0,0.0,0.0,0.0,0.0,0.0,0.0,52.843910217285156,0.3075923025608063,0.5861787796020508,0.0,0.0,0.0,0.0,0.0,0.0,0.0,0.0,0.0,0.005042987875640392,0.013106892816722393,0.03354562073945999,0.0,0.0,0.0,0.0,0.0,0.0,0.0,0.0,0.0
1606991355623534129,4326515,1606987753661731413,imu_link,0.0033871126361191273,0.004679305478930473,0.44495949149131775,0.8955320715904236,0.0,0.0,0.0,0.0,0.0,0.0,0.0,0.0,0.0,52.84401321411133,0.3074896037578583,0.586196780204773,0.0,0.0,0.0,0.0,0.0,0.0,0.0,0.0,0.0,0.013966571539640427,0.012308269739151001,0.048951130360364914,0.0,0.0,0.0,0.0,0.0,0.0,0.0,0.0,0.0
1606991355623562668,4326516,1606987753661851227,imu_link,0.0033871126361191273,0.004679305478930473,0.44495949149131775,0.8955320715904236,0.0,0.0,0.0,0.0,0.0,0.0,0.0,0.0,0.0,52.84401321411133,0.3074896037578583,0.586196780204773,0.0,0.0,0.0,0.0,0.0,0.0,0.0,0.0,0.0,0.013966571539640427,0.012308269739151001,0.048951130360364914,0.0,0.0,0.0,0.0,0.0,0.0,0.0,0.0,0.0
1606991355635047017,4326517,1606987753661956844,imu_link,0.0033848860766738653,0.004680925980210304,0.44496700167655945,0.8955283761024475,0.0,0.0,0.0,0.0,0.0,0.0,0.0,0.0,0.0,52.844974517822266,0.30776453018188477,0.5860534906387329,0.0,0.0,0.0,0.0,0.0,0.0,0.0,0.0,0.0,0.010962233878672123,0.015298272483050823,0.05507805570960045,0.0,0.0,0.0,0.0,0.0,0.0,0.0,0.0,0.0
1606991355635088972,4326518,1606987753662061068,imu_link,0.0033848860766738653,0.004680925980210304,0.44496700167655945,0.8955283761024475,0.0,0.0,0.0,0.0,0.0,0.0,0.0,0.0,0.0,52.844974517822266,0.30776453018188477,0.5860534906387329,0.0,0.0,0.0,0.0,0.0,0.0,0.0,0.0,0.0,0.010962233878672123,0.015298272483050823,0.05507805570960045,0.0,0.0,0.0,0.0,0.0,0.0,0.0,0.0,0.0
1606991355635102496,4326519,1606987753662187222,imu_link,0.003384951502084732,0.004681774880737066,0.4449657201766968,0.89552903175354,0.0,0.0,0.0,0.0,0.0,0.0,0.0,0.0,0.0,52.844810485839844,0.30784913897514343,0.5861030220985413,0.0,0.0,0.0,0.0,0.0,0.0,0.0,0.0,0.0,0.0012030742364004254,0.0070855384692549706,0.07405278086662292,0.0,0.0,0.0,0.0,0.0,0.0,0.0,0.0,0.0
1606991355635141628,4326520,1606987753662294328,imu_link,0.003384951502084732,0.004681774880737066,0.4449657201766968,0.89552903175354,0.0,0.0,0.0,0.0,0.0,0.0,0.0,0.0,0.0,52.844810485839844,0.30784913897514343,0.5861030220985413,0.0,0.0,0.0,0.0,0.0,0.0,0.0,0.0,0.0,0.0012030742364004254,0.0070855384692549706,0.07405278086662292,0.0,0.0,0.0,0.0,0.0,0.0,0.0,0.0,0.0
1606991355673633617,4326521,1606987753662397540,imu_link,0.003385551506653428,0.00468102004379034,0.44497358798980713,0.8955251574516296,0.0,0.0,0.0,0.0,0.0,0.0,0.0,0.0,0.0,52.8458137512207,0.30773600935935974,0.586128830909729,0.0,0.0,0.0,0.0,0.0,0.0,0.0,0.0,0.0,-0.004844163544476032,0.007154629100114107,0.08309917896986008,0.0,0.0,0.0,0.0,0.0,0.0,0.0,0.0,0.0
1606991355673665467,4326522,1606987753662491767,imu_link,0.003385551506653428,0.00468102004379034,0.44497358798980713,0.8955251574516296,0.0,0.0,0.0,0.0,0.0,0.0,0.0,0.0,0.0,52.8458137512207,0.30773600935935974,0.586128830909729,0.0,0.0,0.0,0.0,0.0,0.0,0.0,0.0,0.0,-0.004844163544476032,0.007154629100114107,0.08309917896986008,0.0,0.0,0.0,0.0,0.0,0.0,0.0,0.0,0.0
1606991355673682538,4326523,1606987753662585014,imu_link,0.003384386422112584,0.00468288641422987,0.444972962141037,0.8955254554748535,0.0,0.0,0.0,0.0,0.0,0.0,0.0,0.0,0.0,52.84573745727539,0.3079873323440552,0.5861042141914368,0.0,0.0,0.0,0.0,0.0,0.0,0.0,0.0,0.0,0.008821561932563782,-0.0039898487739264965,0.07229097932577133,0.0,0.0,0.0,0.0,0.0,0.0,0.0,0.0,0.0
1606991355673691986,4326524,1606987753675322862,imu_link,0.003384386422112584,0.00468288641422987,0.444972962141037,0.8955254554748535,0.0,0.0,0.0,0.0,0.0,0.0,0.0,0.0,0.0,52.84573745727539,0.3079873323440552,0.5861042141914368,0.0,0.0,0.0,0.0,0.0,0.0,0.0,0.0,0.0,0.008821561932563782,-0.0039898487739264965,0.07229097932577133,0.0,0.0,0.0,0.0,0.0,0.0,0.0,0.0,0.0
1606991355673700803,4326525,1606987753675489924,imu_link,0.003384656272828579,0.004684357903897762,0.4449700713157654,0.8955268859863281,0.0,0.0,0.0,0.0,0.0,0.0,0.0,0.0,0.0,52.845367431640625,0.3081264793872833,0.5862059593200684,0.0,0.0,0.0,0.0,0.0,0.0,0.0,0.0,0.0,0.023796269670128822,-0.01046251691877842,0.07678300142288208,0.0,0.0,0.0,0.0,0.0,0.0,0.0,0.0,0.0
1606991355718132766,4326526,1606987753675608029,imu_link,0.003384656272828579,0.004684357903897762,0.4449700713157654,0.8955268859863281,0.0,0.0,0.0,0.0,0.0,0.0,0.0,0.0,0.0,52.845367431640625,0.3081264793872833,0.5862059593200684,0.0,0.0,0.0,0.0,0.0,0.0,0.0,0.0,0.0,0.023796269670128822,-0.01046251691877842,0.07678300142288208,0.0,0.0,0.0,0.0,0.0,0.0,0.0,0.0,0.0
1606991355718162154,4326527,1606987753675718248,imu_link,0.0033862763084471226,0.004685292951762676,0.4449692964553833,0.8955271244049072,0.0,0.0,0.0,0.0,0.0,0.0,0.0,0.0,0.0,52.84527587890625,0.30814021825790405,0.5864197611808777,0.0,0.0,0.0,0.0,0.0,0.0,0.0,0.0,0.0,0.011195765808224678,0.002246367745101452,0.06106119602918625,0.0,0.0,0.0,0.0,0.0,0.0,0.0,0.0,0.0
1606991355718174287,4326528,1606987753675826414,imu_link,0.0033862763084471226,0.004685292951762676,0.4449692964553833,0.8955271244049072,0.0,0.0,0.0,0.0,0.0,0.0,0.0,0.0,0.0,52.84527587890625,0.30814021825790405,0.5864197611808777,0.0,0.0,0.0,0.0,0.0,0.0,0.0,0.0,0.0,0.011195765808224678,0.002246367745101452,0.06106119602918625,0.0,0.0,0.0,0.0,0.0,0.0,0.0,0.0,0.0
1606991355718194253,4326529,1606987753675930780,imu_link,0.003385682124644518,0.0046842447482049465,0.4449653625488281,0.8955291509628296,0.0,0.0,0.0,0.0,0.0,0.0,0.0,0.0,0.0,52.84476852416992,0.30806559324264526,0.5863038301467896,0.0,0.0,0.0,0.0,0.0,0.0,0.0,0.0,0.0,-0.0021465737372636795,0.005162027198821306,0.05260105058550835,0.0,0.0,0.0,0.0,0.0,0.0,0.0,0.0,0.0
1606991355724040006,4326530,1606987753676055878,imu_link,0.003385682124644518,0.0046842447482049465,0.4449653625488281,0.8955291509628296,0.0,0.0,0.0,0.0,0.0,0.0,0.0,0.0,0.0,52.84476852416992,0.30806559324264526,0.5863038301467896,0.0,0.0,0.0,0.0,0.0,0.0,0.0,0.0,0.0,-0.0021465737372636795,0.005162027198821306,0.05260105058550835,0.0,0.0,0.0,0.0,0.0,0.0,0.0,0.0,0.0
1606991355724062883,4326531,1606987753676159581,imu_link,0.0033848711755126715,0.004685245454311371,0.44496431946754456,0.8955296277999878,0.0,0.0,0.0,0.0,0.0,0.0,0.0,0.0,0.0,52.84463882446289,0.3082102835178375,0.586271345615387,0.0,0.0,0.0,0.0,0.0,0.0,0.0,0.0,0.0,-0.00023991006310097873,0.005569178145378828,0.06992033869028091,0.0,0.0,0.0,0.0,0.0,0.0,0.0,0.0,0.0
1606991355724111557,4326532,1606987753676252890,imu_link,0.0033848711755126715,0.004685245454311371,0.44496431946754456,0.8955296277999878,0.0,0.0,0.0,0.0,0.0,0.0,0.0,0.0,0.0,52.84463882446289,0.3082102835178375,0.586271345615387,0.0,0.0,0.0,0.0,0.0,0.0,0.0,0.0,0.0,-0.00023991006310097873,0.005569178145378828,0.06992033869028091,0.0,0.0,0.0,0.0,0.0,0.0,0.0,0.0,0.0
1606991355724128084,4326533,1606987753676345763,imu_link,0.003384602488949895,0.00468513835221529,0.44496145844459534,0.8955311179161072,0.0,0.0,0.0,0.0,0.0,0.0,0.0,0.0,0.0,52.844268798828125,0.30821493268013,0.5862373113632202,0.0,0.0,0.0,0.0,0.0,0.0,0.0,0.0,0.0,0.005032472312450409,0.012674533762037754,0.0610310435295105,0.0,0.0,0.0,0.0,0.0,0.0,0.0,0.0,0.0
1606991355724155272,4326534,1606987753676438698,imu_link,0.003384602488949895,0.00468513835221529,0.44496145844459534,0.8955311179161072,0.0,0.0,0.0,0.0,0.0,0.0,0.0,0.0,0.0,52.844268798828125,0.30821493268013,0.5862373113632202,0.0,0.0,0.0,0.0,0.0,0.0,0.0,0.0,0.0,0.005032472312450409,0.012674533762037754,0.0610310435295105,0.0,0.0,0.0,0.0,0.0,0.0,0.0,0.0,0.0
1606991355736209793,4326535,1606987753688833785,imu_link,0.0033835486974567175,0.0046854643151164055,0.44495975971221924,0.895531952381134,0.0,0.0,0.0,0.0,0.0,0.0,0.0,0.0,0.0,52.844051361083984,0.30830320715904236,0.5861451625823975,0.0,0.0,0.0,0.0,0.0,0.0,0.0,0.0,0.0,0.005428956355899572,0.004645479843020439,0.044668130576610565,0.0,0.0,0.0,0.0,0.0,0.0,0.0,0.0,0.0
1606991355736242505,4326536,1606987753689012985,imu_link,0.0033835486974567175,0.0046854643151164055,0.44495975971221924,0.895531952381134,0.0,0.0,0.0,0.0,0.0,0.0,0.0,0.0,0.0,52.844051361083984,0.30830320715904236,0.5861451625823975,0.0,0.0,0.0,0.0,0.0,0.0,0.0,0.0,0.0,0.005428956355899572,0.004645479843020439,0.044668130576610565,0.0,0.0,0.0,0.0,0.0,0.0,0.0,0.0,0.0
1606991355736259713,4326537,1606987753689138134,imu_link,0.0033832471817731857,0.004685953725129366,0.4449544847011566,0.8955345749855042,0.0,0.0,0.0,0.0,0.0,0.0,0.0,0.0,0.0,52.84337615966797,0.30837222933769226,0.5861374139785767,0.0,0.0,0.0,0.0,0.0,0.0,0.0,0.0,0.0,0.002455288777127862,-0.016932887956500053,0.05405262112617493,0.0,0.0,0.0,0.0,0.0,0.0,0.0,0.0,0.0
1606991355736295282,4326538,1606987753689255436,imu_link,0.0033832471817731857,0.004685953725129366,0.4449544847011566,0.8955345749855042,0.0,0.0,0.0,0.0,0.0,0.0,0.0,0.0,0.0,52.84337615966797,0.30837222933769226,0.5861374139785767,0.0,0.0,0.0,0.0,0.0,0.0,0.0,0.0,0.0,0.002455288777127862,-0.016932887956500053,0.05405262112617493,0.0,0.0,0.0,0.0,0.0,0.0,0.0,0.0,0.0
1606991355749476266,4326539,1606987753689370883,imu_link,0.0033838399685919285,0.004686311352998018,0.44495391845703125,0.895534873008728,0.0,0.0,0.0,0.0,0.0,0.0,0.0,0.0,0.0,52.84330368041992,0.30837908387184143,0.5862162709236145,0.0,0.0,0.0,0.0,0.0,0.0,0.0,0.0,0.0,0.009217170998454094,-0.006818085443228483,0.07417618483304977,0.0,0.0,0.0,0.0,0.0,0.0,0.0,0.0,0.0
1606991355749521046,4326540,1606987753689485929,imu_link,0.0033838399685919285,0.004686311352998018,0.44495391845703125,0.895534873008728,0.0,0.0,0.0,0.0,0.0,0.0,0.0,0.0,0.0,52.84330368041992,0.30837908387184143,0.5862162709236145,0.0,0.0,0.0,0.0,0.0,0.0,0.0,0.0,0.0,0.009217170998454094,-0.006818085443228483,0.07417618483304977,0.0,0.0,0.0,0.0,0.0,0.0,0.0,0.0,0.0
1606991355749543822,4326541,1606987753689621548,imu_link,0.003382318187505007,0.0046893395483493805,0.4449585974216461,0.8955325484275818,0.0,0.0,0.0,0.0,0.0,0.0,0.0,0.0,0.0,52.843902587890625,0.30876439809799194,0.5862160921096802,0.0,0.0,0.0,0.0,0.0,0.0,0.0,0.0,0.0,0.00493829557672143,0.008122146129608154,0.07812047749757767,0.0,0.0,0.0,0.0,0.0,0.0,0.0,0.0,0.0
1606991355749556018,4326542,1606987753689735652,imu_link,0.003382318187505007,0.0046893395483493805,0.4449585974216461,0.8955325484275818,0.0,0.0,0.0,0.0,0.0,0.0,0.0,0.0,0.0,52.843902587890625,0.30876439809799194,0.5862160921096802,0.0,0.0,0.0,0.0,0.0,0.0,0.0,0.0,0.0,0.00493829557672143,0.008122146129608154,0.07812047749757767,0.0,0.0,0.0,0.0,0.0,0.0,0.0,0.0,0.0
1606991355749583436,4326543,1606987753689842494,imu_link,0.0033814720809459686,0.004689954686909914,0.44495826959609985,0.8955326676368713,0.0,0.0,0.0,0.0,0.0,0.0,0.0,0.0,0.0,52.84386444091797,0.3088708519935608,0.5861605405807495,0.0,0.0,0.0,0.0,0.0,0.0,0.0,0.0,0.0,0.0029922369867563248,0.009362245909869671,0.059159886091947556,0.0,0.0,0.0,0.0,0.0,0.0,0.0,0.0,0.0
1606991355799953557,4326544,1606987753689948339,imu_link,0.0033814720809459686,0.004689954686909914,0.44495826959609985,0.8955326676368713,0.0,0.0,0.0,0.0,0.0,0.0,0.0,0.0,0.0,52.84386444091797,0.3088708519935608,0.5861605405807495,0.0,0.0,0.0,0.0,0.0,0.0,0.0,0.0,0.0,0.0029922369867563248,0.009362245909869671,0.059159886091947556,0.0,0.0,0.0,0.0,0.0,0.0,0.0,0.0,0.0
1606991355799974888,4326545,1606987753690051964,imu_link,0.0033785603009164333,0.004691042006015778,0.44496285915374756,0.8955304026603699,0.0,0.0,0.0,0.0,0.0,0.0,0.0,0.0,0.0,52.844451904296875,0.30912789702415466,0.5859187841415405,0.0,0.0,0.0,0.0,0.0,0.0,0.0,0.0,0.0,0.005809537600725889,0.014590011909604073,0.036933913826942444,0.0,0.0,0.0,0.0,0.0,0.0,0.0,0.0,0.0
1606991355799985001,4326546,1606987753702501160,imu_link,0.0033785603009164333,0.004691042006015778,0.44496285915374756,0.8955304026603699,0.0,0.0,0.0,0.0,0.0,0.0,0.0,0.0,0.0,52.844451904296875,0.30912789702415466,0.5859187841415405,0.0,0.0,0.0,0.0,0.0,0.0,0.0,0.0,0.0,0.005809537600725889,0.014590011909604073,0.036933913826942444,0.0,0.0,0.0,0.0,0.0,0.0,0.0,0.0,0.0
1606991355800007699,4326547,1606987753702642272,imu_link,0.003378779161721468,0.004690078552812338,0.44495904445648193,0.8955323100090027,0.0,0.0,0.0,0.0,0.0,0.0,0.0,0.0,0.0,52.843963623046875,0.30902037024497986,0.5858907699584961,0.0,0.0,0.0,0.0,0.0,0.0,0.0,0.0,0.0,-0.012172454036772251,0.01653767004609108,0.04477594420313835,0.0,0.0,0.0,0.0,0.0,0.0,0.0,0.0,0.0
1606991355805699793,4326548,1606987753702759313,imu_link,0.003378779161721468,0.004690078552812338,0.44495904445648193,0.8955323100090027,0.0,0.0,0.0,0.0,0.0,0.0,0.0,0.0,0.0,52.843963623046875,0.30902037024497986,0.5858907699584961,0.0,0.0,0.0,0.0,0.0,0.0,0.0,0.0,0.0,-0.012172454036772251,0.01653767004609108,0.04477594420313835,0.0,0.0,0.0,0.0,0.0,0.0,0.0,0.0,0.0
1606991355805721046,4326549,1606987753702870946,imu_link,0.003375331172719598,0.004687650594860315,0.4449646472930908,0.8955294489860535,0.0,0.0,0.0,0.0,0.0,0.0,0.0,0.0,0.0,52.84468078613281,0.3089433014392853,0.5854151844978333,0.0,0.0,0.0,0.0,0.0,0.0,0.0,0.0,0.0,-0.012114424258470535,-0.0008700058097019792,0.03979549929499626,0.0,0.0,0.0,0.0,0.0,0.0,0.0,0.0,0.0
1606991355805749677,4326550,1606987753703010865,imu_link,0.003375331172719598,0.004687650594860315,0.4449646472930908,0.8955294489860535,0.0,0.0,0.0,0.0,0.0,0.0,0.0,0.0,0.0,52.84468078613281,0.3089433014392853,0.5854151844978333,0.0,0.0,0.0,0.0,0.0,0.0,0.0,0.0,0.0,-0.012114424258470535,-0.0008700058097019792,0.03979549929499626,0.0,0.0,0.0,0.0,0.0,0.0,0.0,0.0,0.0
1606991355805759883,4326551,1606987753703129294,imu_link,0.003374757245182991,0.004687770269811153,0.44496554136276245,0.8955291509628296,0.0,0.0,0.0,0.0,0.0,0.0,0.0,0.0,0.0,52.844791412353516,0.30898433923721313,0.5853624939918518,0.0,0.0,0.0,0.0,0.0,0.0,0.0,0.0,0.0,0.011222044005990028,0.005112916696816683,0.04925741255283356,0.0,0.0,0.0,0.0,0.0,0.0,0.0,0.0,0.0
1606991355819007361,4326552,1606987753703256844,imu_link,0.003374757245182991,0.004687770269811153,0.44496554136276245,0.8955291509628296,0.0,0.0,0.0,0.0,0.0,0.0,0.0,0.0,0.0,52.844791412353516,0.30898433923721313,0.5853624939918518,0.0,0.0,0.0,0.0,0.0,0.0,0.0,0.0,0.0,0.011222044005990028,0.005112916696816683,0.04925741255283356,0.0,0.0,0.0,0.0,0.0,0.0,0.0,0.0,0.0
1606991355819031019,4326553,1606987753703374146,imu_link,0.0033718813210725784,0.004690284375101328,0.44497114419937134,0.8955262899398804,0.0,0.0,0.0,0.0,0.0,0.0,0.0,0.0,0.0,52.84551239013672,0.3093852996826172,0.5851976275444031,0.0,0.0,0.0,0.0,0.0,0.0,0.0,0.0,0.0,-0.0023966364096850157,0.030178522691130638,0.07673607766628265,0.0,0.0,0.0,0.0,0.0,0.0,0.0,0.0,0.0
1606991355819039036,4326554,1606987753703483118,imu_link,0.0033718813210725784,0.004690284375101328,0.44497114419937134,0.8955262899398804,0.0,0.0,0.0,0.0,0.0,0.0,0.0,0.0,0.0,52.84551239013672,0.3093852996826172,0.5851976275444031,0.0,0.0,0.0,0.0,0.0,0.0,0.0,0.0,0.0,-0.0023966364096850157,0.030178522691130638,0.07673607766628265,0.0,0.0,0.0,0.0,0.0,0.0,0.0,0.0,0.0
1606991355819119319,4326555,1606987753703595443,imu_link,0.0033718931954354048,0.0046899751760065556,0.4449683427810669,0.895527720451355,0.0,0.0,0.0,0.0,0.0,0.0,0.0,0.0,0.0,52.84515380859375,0.3093547821044922,0.5851820707321167,0.0,0.0,0.0,0.0,0.0,0.0,0.0,0.0,0.0,-0.016060931608080864,0.014359956607222557,0.086875319480896,0.0,0.0,0.0,0.0,0.0,0.0,0.0,0.0,0.0
1606991355819135272,4326556,1606987753703704971,imu_link,0.0033718931954354048,0.0046899751760065556,0.4449683427810669,0.895527720451355,0.0,0.0,0.0,0.0,0.0,0.0,0.0,0.0,0.0,52.84515380859375,0.3093547821044922,0.5851820707321167,0.0,0.0,0.0,0.0,0.0,0.0,0.0,0.0,0.0,-0.016060931608080864,0.014359956607222557,0.086875319480896,0.0,0.0,0.0,0.0,0.0,0.0,0.0,0.0,0.0
1606991355857940527,4326557,1606987753716133600,imu_link,0.0033708016853779554,0.004688380751758814,0.4449729025363922,0.8955254554748535,0.0,0.0,0.0,0.0,0.0,0.0,0.0,0.0,0.0,52.845733642578125,0.3092438280582428,0.584990382194519,0.0,0.0,0.0,0.0,0.0,0.0,0.0,0.0,0.0,0.010981710627675056,-0.0021212883293628693,0.07632274925708771,0.0,0.0,0.0,0.0,0.0,0.0,0.0,0.0,0.0
1606991355857987492,4326558,1606987753716318332,imu_link,0.0033708016853779554,0.004688380751758814,0.4449729025363922,0.8955254554748535,0.0,0.0,0.0,0.0,0.0,0.0,0.0,0.0,0.0,52.845733642578125,0.3092438280582428,0.584990382194519,0.0,0.0,0.0,0.0,0.0,0.0,0.0,0.0,0.0,0.010981710627675056,-0.0021212883293628693,0.07632274925708771,0.0,0.0,0.0,0.0,0.0,0.0,0.0,0.0,0.0
1606991355858008112,4326559,1606987753716448198,imu_link,0.003371537197381258,0.0046874284744262695,0.4449712038040161,0.8955262899398804,0.0,0.0,0.0,0.0,0.0,0.0,0.0,0.0,0.0,52.845516204833984,0.30910974740982056,0.585016667842865,0.0,0.0,0.0,0.0,0.0,0.0,0.0,0.0,0.0,0.023341914638876915,0.013894417323172092,0.054940350353717804,0.0,0.0,0.0,0.0,0.0,0.0,0.0,0.0,0.0
1606991355858028613,4326560,1606987753716575633,imu_link,0.003371537197381258,0.0046874284744262695,0.4449712038040161,0.8955262899398804,0.0,0.0,0.0,0.0,0.0,0.0,0.0,0.0,0.0,52.845516204833984,0.30910974740982056,0.585016667842865,0.0,0.0,0.0,0.0,0.0,0.0,0.0,0.0,0.0,0.023341914638876915,0.013894417323172092,0.054940350353717804,0.0,0.0,0.0,0.0,0.0,0.0,0.0,0.0,0.0
1606991355920754036,4326561,1606987753716702156,imu_link,0.003368631936609745,0.004690820816904306,0.4449729919433594,0.8955254554748535,0.0,0.0,0.0,0.0,0.0,0.0,0.0,0.0,0.0,52.84574508666992,0.3096048831939697,0.5848920345306396,0.0,0.0,0.0,0.0,0.0,0.0,0.0,0.0,0.0,0.011980677023530006,0.033369891345500946,0.04889404773712158,0.0,0.0,0.0,0.0,0.0,0.0,0.0,0.0,0.0
1606991355920814596,4326562,1606987753716844079,imu_link,0.003368631936609745,0.004690820816904306,0.4449729919433594,0.8955254554748535,0.0,0.0,0.0,0.0,0.0,0.0,0.0,0.0,0.0,52.84574508666992,0.3096048831939697,0.5848920345306396,0.0,0.0,0.0,0.0,0.0,0.0,0.0,0.0,0.0,0.011980677023530006,0.033369891345500946,0.04889404773712158,0.0,0.0,0.0,0.0,0.0,0.0,0.0,0.0,0.0
1606991355920830861,4326563,1606987753716967349,imu_link,0.0033681427594274282,0.004693352617323399,0.44497084617614746,0.8955264687538147,0.0,0.0,0.0,0.0,0.0,0.0,0.0,0.0,0.0,52.8454704284668,0.309891015291214,0.5849702954292297,0.0,0.0,0.0,0.0,0.0,0.0,0.0,0.0,0.0,-0.006015484686940908,0.024189472198486328,0.062334347516298294,0.0,0.0,0.0,0.0,0.0,0.0,0.0,0.0,0.0
1606991355920857698,4326564,1606987753717076913,imu_link,0.0033681427594274282,0.004693352617323399,0.44497084617614746,0.8955264687538147,0.0,0.0,0.0,0.0,0.0,0.0,0.0,0.0,0.0,52.8454704284668,0.309891015291214,0.5849702954292297,0.0,0.0,0.0,0.0,0.0,0.0,0.0,0.0,0.0,-0.006015484686940908,0.024189472198486328,0.062334347516298294,0.0,0.0,0.0,0.0,0.0,0.0,0.0,0.0,0.0
1606991355920878807,4326565,1606987753717184046,imu_link,0.0033625210635364056,0.004689729772508144,0.44497793912887573,0.895522952079773,0.0,0.0,0.0,0.0,0.0,0.0,0.0,0.0,0.0,52.84637451171875,0.30980125069618225,0.5842111110687256,0.0,0.0,0.0,0.0,0.0,0.0,0.0,0.0,0.0,-0.025162920355796814,0.006590503267943859,0.07619781047105789,0.0,0.0,0.0,0.0,0.0,0.0,0.0,0.0,0.0
1606991355929084297,4326566,1606987753717288152,imu_link,0.0033625210635364056,0.004689729772508144,0.44497793912887573,0.895522952079773,0.0,0.0,0.0,0.0,0.0,0.0,0.0,0.0,0.0,52.84637451171875,0.30980125069618225,0.5842111110687256,0.0,0.0,0.0,0.0,0.0,0.0,0.0,0.0,0.0,-0.025162920355796814,0.006590503267943859,0.07619781047105789,0.0,0.0,0.0,0.0,0.0,0.0,0.0,0.0,0.0
1606991355929122445,4326567,1606987753717392629,imu_link,0.0033621620386838913,0.004688469227403402,0.44497719407081604,0.8955233097076416,0.0,0.0,0.0,0.0,0.0,0.0,0.0,0.0,0.0,52.846282958984375,0.3096907138824463,0.5841097235679626,0.0,0.0,0.0,0.0,0.0,0.0,0.0,0.0,0.0,-0.022585485130548477,0.002305036410689354,0.058808762580156326,0.0,0.0,0.0,0.0,0.0,0.0,0.0,0.0,0.0
1606991355929138839,4326568,1606987753729024132,imu_link,0.0033621620386838913,0.004688469227403402,0.44497719407081604,0.8955233097076416,0.0,0.0,0.0,0.0,0.0,0.0,0.0,0.0,0.0,52.846282958984375,0.3096907138824463,0.5841097235679626,0.0,0.0,0.0,0.0,0.0,0.0,0.0,0.0,0.0,-0.022585485130548477,0.002305036410689354,0.058808762580156326,0.0,0.0,0.0,0.0,0.0,0.0,0.0,0.0,0.0
1606991355929151412,4326569,1606987753729213646,imu_link,0.0033640181645751,0.00468400027602911,0.4449845850467682,0.8955196738243103,0.0,0.0,0.0,0.0,0.0,0.0,0.0,0.0,0.0,52.847225189208984,0.3091326355934143,0.584074854850769,0.0,0.0,0.0,0.0,0.0,0.0,0.0,0.0,0.0,-0.00610102154314518,-0.010959281586110592,0.0337819866836071,0.0,0.0,0.0,0.0,0.0,0.0,0.0,0.0,0.0
1606991355939888617,4326570,1606987753729343046,imu_link,0.0033640181645751,0.00468400027602911,0.4449845850467682,0.8955196738243103,0.0,0.0,0.0,0.0,0.0,0.0,0.0,0.0,0.0,52.847225189208984,0.3091326355934143,0.584074854850769,0.0,0.0,0.0,0.0,0.0,0.0,0.0,0.0,0.0,-0.00610102154314518,-0.010959281586110592,0.0337819866836071,0.0,0.0,0.0,0.0,0.0,0.0,0.0,0.0,0.0
1606991355939946929,4326571,1606987753729465519,imu_link,0.00336352433077991,0.004680624697357416,0.44498392939567566,0.895520031452179,0.0,0.0,0.0,0.0,0.0,0.0,0.0,0.0,0.0,52.84713363647461,0.30881187319755554,0.5838518142700195,0.0,0.0,0.0,0.0,0.0,0.0,0.0,0.0,0.0,0.0006335863727144897,-0.021579883992671967,0.017654789611697197,0.0,0.0,0.0,0.0,0.0,0.0,0.0,0.0,0.0
1606991355939990088,4326572,1606987753729587271,imu_link,0.00336352433077991,0.004680624697357416,0.44498392939567566,0.895520031452179,0.0,0.0,0.0,0.0,0.0,0.0,0.0,0.0,0.0,52.84713363647461,0.30881187319755554,0.5838518142700195,0.0,0.0,0.0,0.0,0.0,0.0,0.0,0.0,0.0,0.0006335863727144897,-0.021579883992671967,0.017654789611697197,0.0,0.0,0.0,0.0,0.0,0.0,0.0,0.0,0.0
1606991355940006340,4326573,1606987753729728949,imu_link,0.003367033088579774,0.00468360586091876,0.44498005509376526,0.8955219388008118,0.0,0.0,0.0,0.0,0.0,0.0,0.0,0.0,0.0,52.84664535522461,0.30894139409065247,0.5843625068664551,0.0,0.0,0.0,0.0,0.0,0.0,0.0,0.0,0.0,-0.003734236117452383,-0.01327395811676979,0.008621636778116226,0.0,0.0,0.0,0.0,0.0,0.0,0.0,0.0,0.0
1606991355940081915,4326574,1606987753729848781,imu_link,0.003367033088579774,0.00468360586091876,0.44498005509376526,0.8955219388008118,0.0,0.0,0.0,0.0,0.0,0.0,0.0,0.0,0.0,52.84664535522461,0.30894139409065247,0.5843625068664551,0.0,0.0,0.0,0.0,0.0,0.0,0.0,0.0,0.0,-0.003734236117452383,-0.01327395811676979,0.008621636778116226,0.0,0.0,0.0,0.0,0.0,0.0,0.0,0.0,0.0
1606991355946902541,4326575,1606987753729957513,imu_link,0.003367872443050146,0.004684215411543846,0.44497886300086975,0.8955225348472595,0.0,0.0,0.0,0.0,0.0,0.0,0.0,0.0,0.0,52.84648895263672,0.3089618682861328,0.5844793915748596,0.0,0.0,0.0,0.0,0.0,0.0,0.0,0.0,0.0,-0.0004100620571989566,-0.011188175529241562,0.040167007595300674,0.0,0.0,0.0,0.0,0.0,0.0,0.0,0.0,0.0
1606991355946937178,4326576,1606987753730062651,imu_link,0.003367872443050146,0.004684215411543846,0.44497886300086975,0.8955225348472595,0.0,0.0,0.0,0.0,0.0,0.0,0.0,0.0,0.0,52.84648895263672,0.3089618682861328,0.5844793915748596,0.0,0.0,0.0,0.0,0.0,0.0,0.0,0.0,0.0,-0.0004100620571989566,-0.011188175529241562,0.040167007595300674,0.0,0.0,0.0,0.0,0.0,0.0,0.0,0.0,0.0
1606991355946950386,4326577,1606987753730167935,imu_link,0.003369225887581706,0.004686213564127684,0.44497811794281006,0.8955228924751282,0.0,0.0,0.0,0.0,0.0,0.0,0.0,0.0,0.0,52.84640121459961,0.30909842252731323,0.5847198963165283,0.0,0.0,0.0,0.0,0.0,0.0,0.0,0.0,0.0,0.013825943693518639,0.0033385753631591797,0.06953845173120499,0.0,0.0,0.0,0.0,0.0,0.0,0.0,0.0,0.0
1606991355946959415,4326578,1606987753742710983,imu_link,0.003369225887581706,0.004686213564127684,0.44497811794281006,0.8955228924751282,0.0,0.0,0.0,0.0,0.0,0.0,0.0,0.0,0.0,52.84640121459961,0.30909842252731323,0.5847198963165283,0.0,0.0,0.0,0.0,0.0,0.0,0.0,0.0,0.0,0.013825943693518639,0.0033385753631591797,0.06953845173120499,0.0,0.0,0.0,0.0,0.0,0.0,0.0,0.0,0.0
1606991355996360169,4326579,1606987753742846537,imu_link,0.003369491547346115,0.0046883863396942616,0.4449767768383026,0.8955235481262207,0.0,0.0,0.0,0.0,0.0,0.0,0.0,0.0,0.0,52.84622573852539,0.3093087375164032,0.5848574638366699,0.0,0.0,0.0,0.0,0.0,0.0,0.0,0.0,0.0,0.023511525243520737,0.00433157104998827,0.05537281557917595,0.0,0.0,0.0,0.0,0.0,0.0,0.0,0.0,0.0
1606991355996396437,4326580,1606987753742968740,imu_link,0.003369491547346115,0.0046883863396942616,0.4449767768383026,0.8955235481262207,0.0,0.0,0.0,0.0,0.0,0.0,0.0,0.0,0.0,52.84622573852539,0.3093087375164032,0.5848574638366699,0.0,0.0,0.0,0.0,0.0,0.0,0.0,0.0,0.0,0.023511525243520737,0.00433157104998827,0.05537281557917595,0.0,0.0,0.0,0.0,0.0,0.0,0.0,0.0,0.0
1606991355996417225,4326581,1606987753743074384,imu_link,0.003368586767464876,0.004692503716796637,0.444973886013031,0.8955249786376953,0.0,0.0,0.0,0.0,0.0,0.0,0.0,0.0,0.0,52.84585952758789,0.30977925658226013,0.5849736332893372,0.0,0.0,0.0,0.0,0.0,0.0,0.0,0.0,0.0,0.021010104566812515,-0.012660050764679909,0.04328792169690132,0.0,0.0,0.0,0.0,0.0,0.0,0.0,0.0,0.0
