%time,field.header.seq,field.header.stamp,field.header.frame_id,field.orientation.x,field.orientation.y,field.orientation.z,field.orientation.w,field.orientation_covariance0,field.orientation_covariance1,field.orientation_covariance2,field.orientation_covariance3,field.orientation_covariance4,field.orientation_covariance5,field.orientation_covariance6,field.orientation_covariance7,field.orientation_covariance8,field.angular_velocity.x,field.angular_velocity.y,field.angular_velocity.z,field.angular_velocity_covariance0,field.angular_velocity_covariance1,field.angular_velocity_covariance2,field.angular_velocity_covariance3,field.angular_velocity_covariance4,field.angular_velocity_covariance5,field.angular_velocity_covariance6,field.angular_velocity_covariance7,field.angular_velocity_covariance8,field.linear_acceleration.x,field.linear_acceleration.y,field.linear_acceleration.z,field.linear_acceleration_covariance0,field.linear_acceleration_covariance1,field.linear_acceleration_covariance2,field.linear_acceleration_covariance3,field.linear_acceleration_covariance4,field.linear_acceleration_covariance5,field.linear_acceleration_covariance6,field.linear_acceleration_covariance7,field.linear_acceleration_covariance8
1606990619838277640,3738931,1606987019174293319,imu_link,-0.0024437266401946545,0.006749981082975864,-0.3619638681411743,0.9321644902229309,0.0,0.0,0.0,0.0,0.0,0.0,0.0,0.0,0.0,-42.44577407836914,0.6196718215942383,-0.5410498976707458,0.0,0.0,0.0,0.0,0.0,0.0,0.0,0.0,0.0,-0.010580692440271378,0.01764400117099285,0.008525491692125797,0.0,0.0,0.0,0.0,0.0,0.0,0.0,0.0,0.0
1606990619838313648,3738932,1606987019174398086,imu_link,-0.0024437266401946545,0.006749981082975864,-0.3619638681411743,0.9321644902229309,0.0,0.0,0.0,0.0,0.0,0.0,0.0,0.0,0.0,-42.44577407836914,0.6196718215942383,-0.5410498976707458,0.0,0.0,0.0,0.0,0.0,0.0,0.0,0.0,0.0,-0.010580692440271378,0.01764400117099285,0.008525491692125797,0.0,0.0,0.0,0.0,0.0,0.0,0.0,0.0,0.0
1606990619838335359,3738933,1606987019174478602,imu_link,-0.002444618847221136,0.006749562453478575,-0.3619630038738251,0.9321648478507996,0.0,0.0,0.0,0.0,0.0,0.0,0.0,0.0,0.0,-42.4456672668457,0.6195905804634094,-0.5411272048950195,0.0,0.0,0.0,0.0,0.0,0.0,0.0,0.0,0.0,0.004963220097124577,0.01929754950106144,0.019208382815122604,0.0,0.0,0.0,0.0,0.0,0.0,0.0,0.0,0.0
1606990619838350563,3738934,1606987019174560199,imu_link,-0.002444618847221136,0.006749562453478575,-0.3619630038738251,0.9321648478507996,0.0,0.0,0.0,0.0,0.0,0.0,0.0,0.0,0.0,-42.4456672668457,0.6195905804634094,-0.5411272048950195,0.0,0.0,0.0,0.0,0.0,0.0,0.0,0.0,0.0,0.004963220097124577,0.01929754950106144,0.019208382815122604,0.0,0.0,0.0,0.0,0.0,0.0,0.0,0.0,0.0
1606990619845616557,3738935,1606987019174632624,imu_link,-0.002444234676659107,0.006750561762601137,-0.3619609475135803,0.9321656823158264,0.0,0.0,0.0,0.0,0.0,0.0,0.0,0.0,0.0,-42.445411682128906,0.6197145581245422,-0.5411262512207031,0.0,0.0,0.0,0.0,0.0,0.0,0.0,0.0,0.0,0.009253607131540775,0.013604464009404182,0.05127355083823204,0.0,0.0,0.0,0.0,0.0,0.0,0.0,0.0,0.0
1606990619845643765,3738936,1606987019174706859,imu_link,-0.002444234676659107,0.006750561762601137,-0.3619609475135803,0.9321656823158264,0.0,0.0,0.0,0.0,0.0,0.0,0.0,0.0,0.0,-42.445411682128906,0.6197145581245422,-0.5411262512207031,0.0,0.0,0.0,0.0,0.0,0.0,0.0,0.0,0.0,0.009253607131540775,0.013604464009404182,0.05127355083823204,0.0,0.0,0.0,0.0,0.0,0.0,0.0,0.0,0.0
1606990619845654009,3738937,1606987019174787758,imu_link,-0.002445399761199951,0.006752291694283485,-0.36196115612983704,0.9321655631065369,0.0,0.0,0.0,0.0,0.0,0.0,0.0,0.0,0.0,-42.44544219970703,0.6198508739471436,-0.5413225293159485,0.0,0.0,0.0,0.0,0.0,0.0,0.0,0.0,0.0,-0.004829910583794117,0.012052715755999088,0.0663316622376442,0.0,0.0,0.0,0.0,0.0,0.0,0.0,0.0,0.0
1606990619845673741,3738938,1606987019174860913,imu_link,-0.002445399761199951,0.006752291694283485,-0.36196115612983704,0.9321655631065369,0.0,0.0,0.0,0.0,0.0,0.0,0.0,0.0,0.0,-42.44544219970703,0.6198508739471436,-0.5413225293159485,0.0,0.0,0.0,0.0,0.0,0.0,0.0,0.0,0.0,-0.004829910583794117,0.012052715755999088,0.0663316622376442,0.0,0.0,0.0,0.0,0.0,0.0,0.0,0.0,0.0
1606990619948330620,3738939,1606987019174933525,imu_link,-0.0024433848448097706,0.006754174828529358,-0.3619605302810669,0.932165801525116,0.0,0.0,0.0,0.0,0.0,0.0,0.0,0.0,0.0,-42.445369720458984,0.6201359629631042,-0.5411850810050964,0.0,0.0,0.0,0.0,0.0,0.0,0.0,0.0,0.0,-0.026859093457460403,0.0334605798125267,0.04799628257751465,0.0,0.0,0.0,0.0,0.0,0.0,0.0,0.0,0.0
1606990619948360915,3738940,1606987019175054320,imu_link,-0.0024433848448097706,0.006754174828529358,-0.3619605302810669,0.932165801525116,0.0,0.0,0.0,0.0,0.0,0.0,0.0,0.0,0.0,-42.445369720458984,0.6201359629631042,-0.5411850810050964,0.0,0.0,0.0,0.0,0.0,0.0,0.0,0.0,0.0,-0.026859093457460403,0.0334605798125267,0.04799628257751465,0.0,0.0,0.0,0.0,0.0,0.0,0.0,0.0,0.0
1606990619948376351,3738941,1606987019175134506,imu_link,-0.0024500060826539993,0.006752340588718653,-0.36196169257164,0.9321653246879578,0.0,0.0,0.0,0.0,0.0,0.0,0.0,0.0,0.0,-42.44551086425781,0.61966472864151,-0.5418170094490051,0.0,0.0,0.0,0.0,0.0,0.0,0.0,0.0,0.0,-0.011118467897176743,0.017157655209302902,0.04793855920433998,0.0,0.0,0.0,0.0,0.0,0.0,0.0,0.0,0.0
1606990619948409502,3738942,1606987019188162047,imu_link,-0.0024500060826539993,0.006752340588718653,-0.36196169257164,0.9321653246879578,0.0,0.0,0.0,0.0,0.0,0.0,0.0,0.0,0.0,-42.44551086425781,0.61966472864151,-0.5418170094490051,0.0,0.0,0.0,0.0,0.0,0.0,0.0,0.0,0.0,-0.011118467897176743,0.017157655209302902,0.04793855920433998,0.0,0.0,0.0,0.0,0.0,0.0,0.0,0.0,0.0
1606990619948427296,3738943,1606987019188287514,imu_link,-0.002450072905048728,0.006753983907401562,-0.3619595766067505,0.9321661591529846,0.0,0.0,0.0,0.0,0.0,0.0,0.0,0.0,0.0,-42.44525146484375,0.6198387145996094,-0.5418909788131714,0.0,0.0,0.0,0.0,0.0,0.0,0.0,0.0,0.0,0.0025977827608585358,-0.0010648120660334826,0.050930432975292206,0.0,0.0,0.0,0.0,0.0,0.0,0.0,0.0,0.0
1606990619965401000,3738944,1606987019188462004,imu_link,-0.002450072905048728,0.006753983907401562,-0.3619595766067505,0.9321661591529846,0.0,0.0,0.0,0.0,0.0,0.0,0.0,0.0,0.0,-42.44525146484375,0.6198387145996094,-0.5418909788131714,0.0,0.0,0.0,0.0,0.0,0.0,0.0,0.0,0.0,0.0025977827608585358,-0.0010648120660334826,0.050930432975292206,0.0,0.0,0.0,0.0,0.0,0.0,0.0,0.0,0.0
1606990619965438152,3738945,1606987019188537721,imu_link,-0.002449207939207554,0.006755057256668806,-0.36196082830429077,0.9321656227111816,0.0,0.0,0.0,0.0,0.0,0.0,0.0,0.0,0.0,-42.44540786743164,0.6199884414672852,-0.5418439507484436,0.0,0.0,0.0,0.0,0.0,0.0,0.0,0.0,0.0,0.0022024710197001696,0.0036461821291595697,0.024372849613428116,0.0,0.0,0.0,0.0,0.0,0.0,0.0,0.0,0.0
1606990619965455343,3738946,1606987019188606488,imu_link,-0.002449207939207554,0.006755057256668806,-0.36196082830429077,0.9321656227111816,0.0,0.0,0.0,0.0,0.0,0.0,0.0,0.0,0.0,-42.44540786743164,0.6199884414672852,-0.5418439507484436,0.0,0.0,0.0,0.0,0.0,0.0,0.0,0.0,0.0,0.0022024710197001696,0.0036461821291595697,0.024372849613428116,0.0,0.0,0.0,0.0,0.0,0.0,0.0,0.0,0.0
1606990619965478820,3738947,1606987019188681898,imu_link,-0.002450898988172412,0.006755313836038113,-0.3619607388973236,0.9321656823158264,0.0,0.0,0.0,0.0,0.0,0.0,0.0,0.0,0.0,-42.445404052734375,0.6199458837509155,-0.5420351624488831,0.0,0.0,0.0,0.0,0.0,0.0,0.0,0.0,0.0,-0.0073487949557602406,0.0029659641440957785,0.01873309537768364,0.0,0.0,0.0,0.0,0.0,0.0,0.0,0.0,0.0
1606990619974463655,3738948,1606987019188767296,imu_link,-0.002450898988172412,0.006755313836038113,-0.3619607388973236,0.9321656823158264,0.0,0.0,0.0,0.0,0.0,0.0,0.0,0.0,0.0,-42.445404052734375,0.6199458837509155,-0.5420351624488831,0.0,0.0,0.0,0.0,0.0,0.0,0.0,0.0,0.0,-0.0073487949557602406,0.0029659641440957785,0.01873309537768364,0.0,0.0,0.0,0.0,0.0,0.0,0.0,0.0,0.0
1606990619974491845,3738949,1606987019188838956,imu_link,-0.002451205626130104,0.006753563415259123,-0.3619595170021057,0.9321661591529846,0.0,0.0,0.0,0.0,0.0,0.0,0.0,0.0,0.0,-42.445247650146484,0.6197468042373657,-0.5419945120811462,0.0,0.0,0.0,0.0,0.0,0.0,0.0,0.0,0.0,-0.02019985020160675,0.0036313349846750498,0.017413901165127754,0.0,0.0,0.0,0.0,0.0,0.0,0.0,0.0,0.0
1606990619974505319,3738950,1606987019188983776,imu_link,-0.002451205626130104,0.006753563415259123,-0.3619595170021057,0.9321661591529846,0.0,0.0,0.0,0.0,0.0,0.0,0.0,0.0,0.0,-42.445247650146484,0.6197468042373657,-0.5419945120811462,0.0,0.0,0.0,0.0,0.0,0.0,0.0,0.0,0.0,-0.02019985020160675,0.0036313349846750498,0.017413901165127754,0.0,0.0,0.0,0.0,0.0,0.0,0.0,0.0,0.0
1606990619974550429,3738951,1606987019189057715,imu_link,-0.002454190282151103,0.0067560989409685135,-0.36195775866508484,0.9321668148040771,0.0,0.0,0.0,0.0,0.0,0.0,0.0,0.0,0.0,-42.44503402709961,0.6198949217796326,-0.5424172282218933,0.0,0.0,0.0,0.0,0.0,0.0,0.0,0.0,0.0,-0.008911830373108387,-0.002677276497706771,0.022714411839842796,0.0,0.0,0.0,0.0,0.0,0.0,0.0,0.0,0.0
1606990619974586925,3738952,1606987019189125820,imu_link,-0.002454190282151103,0.0067560989409685135,-0.36195775866508484,0.9321668148040771,0.0,0.0,0.0,0.0,0.0,0.0,0.0,0.0,0.0,-42.44503402709961,0.6198949217796326,-0.5424172282218933,0.0,0.0,0.0,0.0,0.0,0.0,0.0,0.0,0.0,-0.008911830373108387,-0.002677276497706771,0.022714411839842796,0.0,0.0,0.0,0.0,0.0,0.0,0.0,0.0,0.0
1606990619983959834,3738953,1606987019201644782,imu_link,-0.0024529234506189823,0.006755669601261616,-0.361957311630249,0.9321669936180115,0.0,0.0,0.0,0.0,0.0,0.0,0.0,0.0,0.0,-42.44498062133789,0.6199018359184265,-0.5422639846801758,0.0,0.0,0.0,0.0,0.0,0.0,0.0,0.0,0.0,0.007641895674169064,-0.01441959012299776,0.0472247339785099,0.0,0.0,0.0,0.0,0.0,0.0,0.0,0.0,0.0
1606990619984003329,3738954,1606987019201787598,imu_link,-0.0024529234506189823,0.006755669601261616,-0.361957311630249,0.9321669936180115,0.0,0.0,0.0,0.0,0.0,0.0,0.0,0.0,0.0,-42.44498062133789,0.6199018359184265,-0.5422639846801758,0.0,0.0,0.0,0.0,0.0,0.0,0.0,0.0,0.0,0.007641895674169064,-0.01441959012299776,0.0472247339785099,0.0,0.0,0.0,0.0,0.0,0.0,0.0,0.0,0.0
1606990619984022977,3738955,1606987019201975568,imu_link,-0.002451513195410371,0.006755312439054251,-0.3619571328163147,0.9321670532226562,0.0,0.0,0.0,0.0,0.0,0.0,0.0,0.0,0.0,-42.4449577331543,0.6199222803115845,-0.542098343372345,0.0,0.0,0.0,0.0,0.0,0.0,0.0,0.0,0.0,0.007125668693333864,-0.0197234395891428,0.04780898615717888,0.0,0.0,0.0,0.0,0.0,0.0,0.0,0.0,0.0
1606990619984080762,3738956,1606987019202071465,imu_link,-0.002451513195410371,0.006755312439054251,-0.3619571328163147,0.9321670532226562,0.0,0.0,0.0,0.0,0.0,0.0,0.0,0.0,0.0,-42.4449577331543,0.6199222803115845,-0.542098343372345,0.0,0.0,0.0,0.0,0.0,0.0,0.0,0.0,0.0,0.007125668693333864,-0.0197234395891428,0.04780898615717888,0.0,0.0,0.0,0.0,0.0,0.0,0.0,0.0,0.0
1606990620070166162,3738957,1606987019202228964,imu_link,-0.0024501413572579622,0.0067545222118496895,-0.361956924200058,0.9321671724319458,0.0,0.0,0.0,0.0,0.0,0.0,0.0,0.0,0.0,-42.44492721557617,0.6198949813842773,-0.5419188737869263,0.0,0.0,0.0,0.0,0.0,0.0,0.0,0.0,0.0,0.013176074251532555,-0.020235860720276833,0.02162565477192402,0.0,0.0,0.0,0.0,0.0,0.0,0.0,0.0,0.0
1606990620070234951,3738958,1606987019202336343,imu_link,-0.0024501413572579622,0.0067545222118496895,-0.361956924200058,0.9321671724319458,0.0,0.0,0.0,0.0,0.0,0.0,0.0,0.0,0.0,-42.44492721557617,0.6198949813842773,-0.5419188737869263,0.0,0.0,0.0,0.0,0.0,0.0,0.0,0.0,0.0,0.013176074251532555,-0.020235860720276833,0.02162565477192402,0.0,0.0,0.0,0.0,0.0,0.0,0.0,0.0,0.0
1606990620070280550,3738959,1606987019202415345,imu_link,-0.0024508514907211065,0.00675378181040287,-0.36195698380470276,0.932167112827301,0.0,0.0,0.0,0.0,0.0,0.0,0.0,0.0,0.0,-42.44493865966797,0.619786262512207,-0.541964054107666,0.0,0.0,0.0,0.0,0.0,0.0,0.0,0.0,0.0,0.016175527125597,-0.0191683080047369,0.014266880229115486,0.0,0.0,0.0,0.0,0.0,0.0,0.0,0.0,0.0
1606990620070341380,3738960,1606987019202501294,imu_link,-0.0024508514907211065,0.00675378181040287,-0.36195698380470276,0.932167112827301,0.0,0.0,0.0,0.0,0.0,0.0,0.0,0.0,0.0,-42.44493865966797,0.619786262512207,-0.541964054107666,0.0,0.0,0.0,0.0,0.0,0.0,0.0,0.0,0.0,0.016175527125597,-0.0191683080047369,0.014266880229115486,0.0,0.0,0.0,0.0,0.0,0.0,0.0,0.0,0.0
1606990620070374299,3738961,1606987019202600654,imu_link,-0.0024473462253808975,0.006754506845027208,-0.3619552552700043,0.9321677684783936,0.0,0.0,0.0,0.0,0.0,0.0,0.0,0.0,0.0,-42.444725036621094,0.6200101375579834,-0.5416185855865479,0.0,0.0,0.0,0.0,0.0,0.0,0.0,0.0,0.0,-0.003963237162679434,-0.014351975172758102,0.041926685720682144,0.0,0.0,0.0,0.0,0.0,0.0,0.0,0.0,0.0
1606990620139932122,3738962,1606987019202682393,imu_link,-0.0024473462253808975,0.006754506845027208,-0.3619552552700043,0.9321677684783936,0.0,0.0,0.0,0.0,0.0,0.0,0.0,0.0,0.0,-42.444725036621094,0.6200101375579834,-0.5416185855865479,0.0,0.0,0.0,0.0,0.0,0.0,0.0,0.0,0.0,-0.003963237162679434,-0.014351975172758102,0.041926685720682144,0.0,0.0,0.0,0.0,0.0,0.0,0.0,0.0,0.0
1606990620139971830,3738963,1606987019202762915,imu_link,-0.0024472838267683983,0.006755639333277941,-0.36195534467697144,0.9321677684783936,0.0,0.0,0.0,0.0,0.0,0.0,0.0,0.0,0.0,-42.444732666015625,0.620133638381958,-0.541658878326416,0.0,0.0,0.0,0.0,0.0,0.0,0.0,0.0,0.0,-0.01361693162471056,-0.010420240461826324,0.047510452568531036,0.0,0.0,0.0,0.0,0.0,0.0,0.0,0.0,0.0
1606990620139998223,3738964,1606987019214531541,imu_link,-0.0024472838267683983,0.006755639333277941,-0.36195534467697144,0.9321677684783936,0.0,0.0,0.0,0.0,0.0,0.0,0.0,0.0,0.0,-42.444732666015625,0.620133638381958,-0.541658878326416,0.0,0.0,0.0,0.0,0.0,0.0,0.0,0.0,0.0,-0.01361693162471056,-0.010420240461826324,0.047510452568531036,0.0,0.0,0.0,0.0,0.0,0.0,0.0,0.0,0.0
1606990620140068188,3738965,1606987019214677148,imu_link,-0.0024471585638821125,0.0067561473697423935,-0.36195412278175354,0.9321682453155518,0.0,0.0,0.0,0.0,0.0,0.0,0.0,0.0,0.0,-42.444583892822266,0.6201938390731812,-0.5416658520698547,0.0,0.0,0.0,0.0,0.0,0.0,0.0,0.0,0.0,-0.007738439831882715,-0.0033480238635092974,0.049977678805589676,0.0,0.0,0.0,0.0,0.0,0.0,0.0,0.0,0.0
1606990620187759134,3738966,1606987019214826909,imu_link,-0.0024471585638821125,0.0067561473697423935,-0.36195412278175354,0.9321682453155518,0.0,0.0,0.0,0.0,0.0,0.0,0.0,0.0,0.0,-42.444583892822266,0.6201938390731812,-0.5416658520698547,0.0,0.0,0.0,0.0,0.0,0.0,0.0,0.0,0.0,-0.007738439831882715,-0.0033480238635092974,0.049977678805589676,0.0,0.0,0.0,0.0,0.0,0.0,0.0,0.0,0.0
1606990620187812137,3738967,1606987019214915459,imu_link,-0.002448715502396226,0.006756933405995369,-0.3619529902935028,0.9321686625480652,0.0,0.0,0.0,0.0,0.0,0.0,0.0,0.0,0.0,-42.44445037841797,0.6202138662338257,-0.5418639779090881,0.0,0.0,0.0,0.0,0.0,0.0,0.0,0.0,0.0,-0.007838199846446514,-0.0015049243811517954,0.05804290622472763,0.0,0.0,0.0,0.0,0.0,0.0,0.0,0.0,0.0
1606990620187837387,3738968,1606987019215025249,imu_link,-0.002448715502396226,0.006756933405995369,-0.3619529902935028,0.9321686625480652,0.0,0.0,0.0,0.0,0.0,0.0,0.0,0.0,0.0,-42.44445037841797,0.6202138662338257,-0.5418639779090881,0.0,0.0,0.0,0.0,0.0,0.0,0.0,0.0,0.0,-0.007838199846446514,-0.0015049243811517954,0.05804290622472763,0.0,0.0,0.0,0.0,0.0,0.0,0.0,0.0,0.0
1606990620187867140,3738969,1606987019215129249,imu_link,-0.0024513062089681625,0.0067567708902060986,-0.36195382475852966,0.9321683645248413,0.0,0.0,0.0,0.0,0.0,0.0,0.0,0.0,0.0,-42.44455337524414,0.6200885772705078,-0.5421345233917236,0.0,0.0,0.0,0.0,0.0,0.0,0.0,0.0,0.0,-0.002252954989671707,-0.008435221388936043,0.05350356176495552,0.0,0.0,0.0,0.0,0.0,0.0,0.0,0.0,0.0
1606990620187900674,3738970,1606987019215212617,imu_link,-0.0024513062089681625,0.0067567708902060986,-0.36195382475852966,0.9321683645248413,0.0,0.0,0.0,0.0,0.0,0.0,0.0,0.0,0.0,-42.44455337524414,0.6200885772705078,-0.5421345233917236,0.0,0.0,0.0,0.0,0.0,0.0,0.0,0.0,0.0,-0.002252954989671707,-0.008435221388936043,0.05350356176495552,0.0,0.0,0.0,0.0,0.0,0.0,0.0,0.0,0.0
1606990620196056112,3738971,1606987019215304420,imu_link,-0.0024501101579517126,0.006756145972758532,-0.36195334792137146,0.9321685433387756,0.0,0.0,0.0,0.0,0.0,0.0,0.0,0.0,0.0,-42.44449234008789,0.6200717687606812,-0.541980504989624,0.0,0.0,0.0,0.0,0.0,0.0,0.0,0.0,0.0,0.00934172235429287,-0.02481960318982601,0.05098950117826462,0.0,0.0,0.0,0.0,0.0,0.0,0.0,0.0,0.0
1606990620196126750,3738972,1606987019215384670,imu_link,-0.0024501101579517126,0.006756145972758532,-0.36195334792137146,0.9321685433387756,0.0,0.0,0.0,0.0,0.0,0.0,0.0,0.0,0.0,-42.44449234008789,0.6200717687606812,-0.541980504989624,0.0,0.0,0.0,0.0,0.0,0.0,0.0,0.0,0.0,0.00934172235429287,-0.02481960318982601,0.05098950117826462,0.0,0.0,0.0,0.0,0.0,0.0,0.0,0.0,0.0
1606990620196161771,3738973,1606987019215460636,imu_link,-0.0024451958015561104,0.006755960173904896,-0.3619534969329834,0.9321684837341309,0.0,0.0,0.0,0.0,0.0,0.0,0.0,0.0,0.0,-42.44450759887695,0.6202556490898132,-0.5414478778839111,0.0,0.0,0.0,0.0,0.0,0.0,0.0,0.0,0.0,0.0012876347173005342,-0.027965961024165154,0.04298608377575874,0.0,0.0,0.0,0.0,0.0,0.0,0.0,0.0,0.0
1606990620196191530,3738974,1606987019228221995,imu_link,-0.0024451958015561104,0.006755960173904896,-0.3619534969329834,0.9321684837341309,0.0,0.0,0.0,0.0,0.0,0.0,0.0,0.0,0.0,-42.44450759887695,0.6202556490898132,-0.5414478778839111,0.0,0.0,0.0,0.0,0.0,0.0,0.0,0.0,0.0,0.0012876347173005342,-0.027965961024165154,0.04298608377575874,0.0,0.0,0.0,0.0,0.0,0.0,0.0,0.0,0.0
1606990620251541187,3738975,1606987019228352356,imu_link,-0.002444305457174778,0.006756256800144911,-0.36195307970046997,0.9321686625480652,0.0,0.0,0.0,0.0,0.0,0.0,0.0,0.0,0.0,-42.4444580078125,0.6203244924545288,-0.541364848613739,0.0,0.0,0.0,0.0,0.0,0.0,0.0,0.0,0.0,-0.0019447014201432467,-0.020054500550031662,0.04639269784092903,0.0,0.0,0.0,0.0,0.0,0.0,0.0,0.0,0.0
1606990620251571417,3738976,1606987019228532423,imu_link,-0.002444305457174778,0.006756256800144911,-0.36195307970046997,0.9321686625480652,0.0,0.0,0.0,0.0,0.0,0.0,0.0,0.0,0.0,-42.4444580078125,0.6203244924545288,-0.541364848613739,0.0,0.0,0.0,0.0,0.0,0.0,0.0,0.0,0.0,-0.0019447014201432467,-0.020054500550031662,0.04639269784092903,0.0,0.0,0.0,0.0,0.0,0.0,0.0,0.0,0.0
1606990620251597242,3738977,1606987019228618272,imu_link,-0.002441320801153779,0.006758010480552912,-0.36195069551467896,0.9321695566177368,0.0,0.0,0.0,0.0,0.0,0.0,0.0,0.0,0.0,-42.44416427612305,0.6206369400024414,-0.5411171913146973,0.0,0.0,0.0,0.0,0.0,0.0,0.0,0.0,0.0,0.0012548706727102399,-0.015315615572035313,0.04830152913928032,0.0,0.0,0.0,0.0,0.0,0.0,0.0,0.0,0.0
1606990620251607588,3738978,1606987019228697686,imu_link,-0.002441320801153779,0.006758010480552912,-0.36195069551467896,0.9321695566177368,0.0,0.0,0.0,0.0,0.0,0.0,0.0,0.0,0.0,-42.44416427612305,0.6206369400024414,-0.5411171913146973,0.0,0.0,0.0,0.0,0.0,0.0,0.0,0.0,0.0,0.0012548706727102399,-0.015315615572035313,0.04830152913928032,0.0,0.0,0.0,0.0,0.0,0.0,0.0,0.0,0.0
1606990620251629987,3738979,1606987019228786431,imu_link,-0.0024410781916230917,0.006757686380296946,-0.3619498312473297,0.9321699142456055,0.0,0.0,0.0,0.0,0.0,0.0,0.0,0.0,0.0,-42.44405746459961,0.6206128597259521,-0.5410772562026978,0.0,0.0,0.0,0.0,0.0,0.0,0.0,0.0,0.0,-0.004971918184310198,-0.004376058466732502,0.035891614854335785,0.0,0.0,0.0,0.0,0.0,0.0,0.0,0.0,0.0
1606990620269661367,3738980,1606987019228897799,imu_link,-0.0024410781916230917,0.006757686380296946,-0.3619498312473297,0.9321699142456055,0.0,0.0,0.0,0.0,0.0,0.0,0.0,0.0,0.0,-42.44405746459961,0.6206128597259521,-0.5410772562026978,0.0,0.0,0.0,0.0,0.0,0.0,0.0,0.0,0.0,-0.004971918184310198,-0.004376058466732502,0.035891614854335785,0.0,0.0,0.0,0.0,0.0,0.0,0.0,0.0,0.0
1606990620269686052,3738981,1606987019228981197,imu_link,-0.002439195057377219,0.00675925612449646,-0.36194947361946106,0.932170033454895,0.0,0.0,0.0,0.0,0.0,0.0,0.0,0.0,0.0,-42.44401550292969,0.620858907699585,-0.5409409999847412,0.0,0.0,0.0,0.0,0.0,0.0,0.0,0.0,0.0,-0.016526492312550545,-0.021551117300987244,0.0171353742480278,0.0,0.0,0.0,0.0,0.0,0.0,0.0,0.0,0.0
1606990620269713806,3738982,1606987019229067286,imu_link,-0.002439195057377219,0.00675925612449646,-0.36194947361946106,0.932170033454895,0.0,0.0,0.0,0.0,0.0,0.0,0.0,0.0,0.0,-42.44401550292969,0.620858907699585,-0.5409409999847412,0.0,0.0,0.0,0.0,0.0,0.0,0.0,0.0,0.0,-0.016526492312550545,-0.021551117300987244,0.0171353742480278,0.0,0.0,0.0,0.0,0.0,0.0,0.0,0.0,0.0
1606990620269737328,3738983,1606987019229147943,imu_link,-0.002437668852508068,0.006757976487278938,-0.36194804310798645,0.9321706295013428,0.0,0.0,0.0,0.0,0.0,0.0,0.0,0.0,0.0,-42.44384002685547,0.6207864284515381,-0.5407238602638245,0.0,0.0,0.0,0.0,0.0,0.0,0.0,0.0,0.0,-0.009139216504991055,-0.02890668995678425,0.029625268653035164,0.0,0.0,0.0,0.0,0.0,0.0,0.0,0.0,0.0
1606990620274455611,3738984,1606987019229228213,imu_link,-0.002437668852508068,0.006757976487278938,-0.36194804310798645,0.9321706295013428,0.0,0.0,0.0,0.0,0.0,0.0,0.0,0.0,0.0,-42.44384002685547,0.6207864284515381,-0.5407238602638245,0.0,0.0,0.0,0.0,0.0,0.0,0.0,0.0,0.0,-0.009139216504991055,-0.02890668995678425,0.029625268653035164,0.0,0.0,0.0,0.0,0.0,0.0,0.0,0.0,0.0
1606990620274498691,3738985,1606987019241646343,imu_link,-0.0024353601038455963,0.00675372127443552,-0.3619503676891327,0.9321697354316711,0.0,0.0,0.0,0.0,0.0,0.0,0.0,0.0,0.0,-42.44411849975586,0.6204262375831604,-0.5403022766113281,0.0,0.0,0.0,0.0,0.0,0.0,0.0,0.0,0.0,-0.002668812870979309,0.0001554819755256176,0.06712769716978073,0.0,0.0,0.0,0.0,0.0,0.0,0.0,0.0,0.0
1606990620274513097,3738986,1606987019241762983,imu_link,-0.0024353601038455963,0.00675372127443552,-0.3619503676891327,0.9321697354316711,0.0,0.0,0.0,0.0,0.0,0.0,0.0,0.0,0.0,-42.44411849975586,0.6204262375831604,-0.5403022766113281,0.0,0.0,0.0,0.0,0.0,0.0,0.0,0.0,0.0,-0.002668812870979309,0.0001554819755256176,0.06712769716978073,0.0,0.0,0.0,0.0,0.0,0.0,0.0,0.0,0.0
1606990620274539377,3738987,1606987019241848125,imu_link,-0.002434678375720978,0.006753078196197748,-0.36195269227027893,0.9321688413619995,0.0,0.0,0.0,0.0,0.0,0.0,0.0,0.0,0.0,-42.44440460205078,0.6203845143318176,-0.5402042865753174,0.0,0.0,0.0,0.0,0.0,0.0,0.0,0.0,0.0,0.0005783649394288659,0.017966778948903084,0.055876944214105606,0.0,0.0,0.0,0.0,0.0,0.0,0.0,0.0,0.0
1606990620274555447,3738988,1606987019241935016,imu_link,-0.002434678375720978,0.006753078196197748,-0.36195269227027893,0.9321688413619995,0.0,0.0,0.0,0.0,0.0,0.0,0.0,0.0,0.0,-42.44440460205078,0.6203845143318176,-0.5402042865753174,0.0,0.0,0.0,0.0,0.0,0.0,0.0,0.0,0.0,0.0005783649394288659,0.017966778948903084,0.055876944214105606,0.0,0.0,0.0,0.0,0.0,0.0,0.0,0.0,0.0
1606990620287236430,3738989,1606987019242018073,imu_link,-0.00243667745962739,0.006754556205123663,-0.36195144057273865,0.9321693181991577,0.0,0.0,0.0,0.0,0.0,0.0,0.0,0.0,0.0,-42.44424819946289,0.6204602122306824,-0.5404784083366394,0.0,0.0,0.0,0.0,0.0,0.0,0.0,0.0,0.0,0.0026787195820361376,0.010781962424516678,0.026970839127898216,0.0,0.0,0.0,0.0,0.0,0.0,0.0,0.0,0.0
1606990620287267081,3738990,1606987019242105525,imu_link,-0.00243667745962739,0.006754556205123663,-0.36195144057273865,0.9321693181991577,0.0,0.0,0.0,0.0,0.0,0.0,0.0,0.0,0.0,-42.44424819946289,0.6204602122306824,-0.5404784083366394,0.0,0.0,0.0,0.0,0.0,0.0,0.0,0.0,0.0,0.0026787195820361376,0.010781962424516678,0.026970839127898216,0.0,0.0,0.0,0.0,0.0,0.0,0.0,0.0,0.0
1606990620287334058,3738991,1606987019242202249,imu_link,-0.0024372453335672617,0.006752795074135065,-0.36194896697998047,0.9321702718734741,0.0,0.0,0.0,0.0,0.0,0.0,0.0,0.0,0.0,-42.443939208984375,0.6202499270439148,-0.5404642820358276,0.0,0.0,0.0,0.0,0.0,0.0,0.0,0.0,0.0,-0.0027455813251435757,-0.005584490951150656,0.022713717073202133,0.0,0.0,0.0,0.0,0.0,0.0,0.0,0.0,0.0
1606990620287353570,3738992,1606987019242285221,imu_link,-0.0024372453335672617,0.006752795074135065,-0.36194896697998047,0.9321702718734741,0.0,0.0,0.0,0.0,0.0,0.0,0.0,0.0,0.0,-42.443939208984375,0.6202499270439148,-0.5404642820358276,0.0,0.0,0.0,0.0,0.0,0.0,0.0,0.0,0.0,-0.0027455813251435757,-0.005584490951150656,0.022713717073202133,0.0,0.0,0.0,0.0,0.0,0.0,0.0,0.0,0.0
1606990620328824987,3738993,1606987019242365081,imu_link,-0.0024344618432223797,0.006754125468432903,-0.36194851994514465,0.9321704506874084,0.0,0.0,0.0,0.0,0.0,0.0,0.0,0.0,0.0,-42.44388961791992,0.6205077767372131,-0.5402218699455261,0.0,0.0,0.0,0.0,0.0,0.0,0.0,0.0,0.0,-0.0035728467628359795,-0.016423748806118965,0.03774847462773323,0.0,0.0,0.0,0.0,0.0,0.0,0.0,0.0,0.0
1606990620328862702,3738994,1606987019242444069,imu_link,-0.0024344618432223797,0.006754125468432903,-0.36194851994514465,0.9321704506874084,0.0,0.0,0.0,0.0,0.0,0.0,0.0,0.0,0.0,-42.44388961791992,0.6205077767372131,-0.5402218699455261,0.0,0.0,0.0,0.0,0.0,0.0,0.0,0.0,0.0,-0.0035728467628359795,-0.016423748806118965,0.03774847462773323,0.0,0.0,0.0,0.0,0.0,0.0,0.0,0.0,0.0
1606990620328888647,3738995,1606987019242520280,imu_link,-0.002432991284877062,0.006754289846867323,-0.3619473874568939,0.9321709275245667,0.0,0.0,0.0,0.0,0.0,0.0,0.0,0.0,0.0,-42.44374465942383,0.6205869913101196,-0.5400707721710205,0.0,0.0,0.0,0.0,0.0,0.0,0.0,0.0,0.0,-0.0047689941711723804,0.001427538227289915,0.062104858458042145,0.0,0.0,0.0,0.0,0.0,0.0,0.0,0.0,0.0
1606990620328896099,3738996,1606987019255532941,imu_link,-0.002432991284877062,0.006754289846867323,-0.3619473874568939,0.9321709275245667,0.0,0.0,0.0,0.0,0.0,0.0,0.0,0.0,0.0,-42.44374465942383,0.6205869913101196,-0.5400707721710205,0.0,0.0,0.0,0.0,0.0,0.0,0.0,0.0,0.0,-0.0047689941711723804,0.001427538227289915,0.062104858458042145,0.0,0.0,0.0,0.0,0.0,0.0,0.0,0.0,0.0
1606990620328912781,3738997,1606987019255648598,imu_link,-0.002432608511298895,0.006755132228136063,-0.36194857954978943,0.9321703910827637,0.0,0.0,0.0,0.0,0.0,0.0,0.0,0.0,0.0,-42.44389343261719,0.6206921339035034,-0.5400657057762146,0.0,0.0,0.0,0.0,0.0,0.0,0.0,0.0,0.0,-0.023999063298106194,0.016804277896881104,0.04717499762773514,0.0,0.0,0.0,0.0,0.0,0.0,0.0,0.0,0.0
1606990620369866596,3738998,1606987019255734342,imu_link,-0.002432608511298895,0.006755132228136063,-0.36194857954978943,0.9321703910827637,0.0,0.0,0.0,0.0,0.0,0.0,0.0,0.0,0.0,-42.44389343261719,0.6206921339035034,-0.5400657057762146,0.0,0.0,0.0,0.0,0.0,0.0,0.0,0.0,0.0,-0.023999063298106194,0.016804277896881104,0.04717499762773514,0.0,0.0,0.0,0.0,0.0,0.0,0.0,0.0,0.0
1606990620369922034,3738999,1606987019255911241,imu_link,-0.0024316897615790367,0.006757128518074751,-0.3619467616081238,0.932171106338501,0.0,0.0,0.0,0.0,0.0,0.0,0.0,0.0,0.0,-42.44367599487305,0.6209445595741272,-0.540049135684967,0.0,0.0,0.0,0.0,0.0,0.0,0.0,0.0,0.0,-0.020287204533815384,0.00805069413036108,0.036203328520059586,0.0,0.0,0.0,0.0,0.0,0.0,0.0,0.0,0.0
1606990620369941155,3739000,1606987019255995626,imu_link,-0.0024316897615790367,0.006757128518074751,-0.3619467616081238,0.932171106338501,0.0,0.0,0.0,0.0,0.0,0.0,0.0,0.0,0.0,-42.44367599487305,0.6209445595741272,-0.540049135684967,0.0,0.0,0.0,0.0,0.0,0.0,0.0,0.0,0.0,-0.020287204533815384,0.00805069413036108,0.036203328520059586,0.0,0.0,0.0,0.0,0.0,0.0,0.0,0.0,0.0
1606990620369956501,3739001,1606987019256101982,imu_link,-0.002434514695778489,0.006756081711500883,-0.36194655299186707,0.9321712255477905,0.0,0.0,0.0,0.0,0.0,0.0,0.0,0.0,0.0,-42.44364547729492,0.6207157373428345,-0.540307343006134,0.0,0.0,0.0,0.0,0.0,0.0,0.0,0.0,0.0,0.008272437378764153,0.010905276983976364,0.03436233103275299,0.0,0.0,0.0,0.0,0.0,0.0,0.0,0.0,0.0
1606990620369971684,3739002,1606987019256185175,imu_link,-0.002434514695778489,0.006756081711500883,-0.36194655299186707,0.9321712255477905,0.0,0.0,0.0,0.0,0.0,0.0,0.0,0.0,0.0,-42.44364547729492,0.6207157373428345,-0.540307343006134,0.0,0.0,0.0,0.0,0.0,0.0,0.0,0.0,0.0,0.008272437378764153,0.010905276983976364,0.03436233103275299,0.0,0.0,0.0,0.0,0.0,0.0,0.0,0.0,0.0
1606990620369983444,3739003,1606987019256266754,imu_link,-0.0024350134190171957,0.006757221184670925,-0.3619464933872223,0.9321712255477905,0.0,0.0,0.0,0.0,0.0,0.0,0.0,0.0,0.0,-42.443641662597656,0.6208167672157288,-0.5404078364372253,0.0,0.0,0.0,0.0,0.0,0.0,0.0,0.0,0.0,0.013648797757923603,0.0252543892711401,0.0365770123898983,0.0,0.0,0.0,0.0,0.0,0.0,0.0,0.0,0.0
1606990620369991646,3739004,1606987019256349771,imu_link,-0.0024350134190171957,0.006757221184670925,-0.3619464933872223,0.9321712255477905,0.0,0.0,0.0,0.0,0.0,0.0,0.0,0.0,0.0,-42.443641662597656,0.6208167672157288,-0.5404078364372253,0.0,0.0,0.0,0.0,0.0,0.0,0.0,0.0,0.0,0.013648797757923603,0.0252543892711401,0.0365770123898983,0.0,0.0,0.0,0.0,0.0,0.0,0.0,0.0,0.0
1606990620370004447,3739005,1606987019256429982,imu_link,-0.002437843242660165,0.006760578136891127,-0.36194637417793274,0.9321712255477905,0.0,0.0,0.0,0.0,0.0,0.0,0.0,0.0,0.0,-42.443634033203125,0.6210580468177795,-0.5408493280410767,0.0,0.0,0.0,0.0,0.0,0.0,0.0,0.0,0.0,-0.0038485603872686625,0.01960117369890213,0.06471659988164902,0.0,0.0,0.0,0.0,0.0,0.0,0.0,0.0,0.0
1606990620374647161,3739006,1606987019256515670,imu_link,-0.002437843242660165,0.006760578136891127,-0.36194637417793274,0.9321712255477905,0.0,0.0,0.0,0.0,0.0,0.0,0.0,0.0,0.0,-42.443634033203125,0.6210580468177795,-0.5408493280410767,0.0,0.0,0.0,0.0,0.0,0.0,0.0,0.0,0.0,-0.0038485603872686625,0.01960117369890213,0.06471659988164902,0.0,0.0,0.0,0.0,0.0,0.0,0.0,0.0,0.0
1606990620374680850,3739007,1606987019268425102,imu_link,-0.00243959273211658,0.006759412121027708,-0.3619481921195984,0.9321705102920532,0.0,0.0,0.0,0.0,0.0,0.0,0.0,0.0,0.0,-42.4438591003418,0.6208599209785461,-0.540989100933075,0.0,0.0,0.0,0.0,0.0,0.0,0.0,0.0,0.0,-0.013020165264606476,-0.002030872041359544,0.05314704030752182,0.0,0.0,0.0,0.0,0.0,0.0,0.0,0.0,0.0
1606990620374713540,3739008,1606987019268542704,imu_link,-0.00243959273211658,0.006759412121027708,-0.3619481921195984,0.9321705102920532,0.0,0.0,0.0,0.0,0.0,0.0,0.0,0.0,0.0,-42.4438591003418,0.6208599209785461,-0.540989100933075,0.0,0.0,0.0,0.0,0.0,0.0,0.0,0.0,0.0,-0.013020165264606476,-0.002030872041359544,0.05314704030752182,0.0,0.0,0.0,0.0,0.0,0.0,0.0,0.0,0.0
1606990620374746645,3739009,1606987019268627771,imu_link,-0.0024412155617028475,0.006759077310562134,-0.3619500994682312,0.9321697950363159,0.0,0.0,0.0,0.0,0.0,0.0,0.0,0.0,0.0,-42.444091796875,0.620755672454834,-0.5411497950553894,0.0,0.0,0.0,0.0,0.0,0.0,0.0,0.0,0.0,0.0023657719139009714,-0.00883551873266697,0.049979016184806824,0.0,0.0,0.0,0.0,0.0,0.0,0.0,0.0,0.0
1606990620374760511,3739010,1606987019268714051,imu_link,-0.0024412155617028475,0.006759077310562134,-0.3619500994682312,0.9321697950363159,0.0,0.0,0.0,0.0,0.0,0.0,0.0,0.0,0.0,-42.444091796875,0.620755672454834,-0.5411497950553894,0.0,0.0,0.0,0.0,0.0,0.0,0.0,0.0,0.0,0.0023657719139009714,-0.00883551873266697,0.049979016184806824,0.0,0.0,0.0,0.0,0.0,0.0,0.0,0.0,0.0
1606990620472552751,3739011,1606987019268794341,imu_link,-0.0024416428059339523,0.006758625619113445,-0.36194947361946106,0.932170033454895,0.0,0.0,0.0,0.0,0.0,0.0,0.0,0.0,0.0,-42.44401550292969,0.620690107345581,-0.5411763191223145,0.0,0.0,0.0,0.0,0.0,0.0,0.0,0.0,0.0,0.00835470575839281,0.014108519069850445,0.05440665781497955,0.0,0.0,0.0,0.0,0.0,0.0,0.0,0.0,0.0
1606990620472575523,3739012,1606987019268891055,imu_link,-0.0024416428059339523,0.006758625619113445,-0.36194947361946106,0.932170033454895,0.0,0.0,0.0,0.0,0.0,0.0,0.0,0.0,0.0,-42.44401550292969,0.620690107345581,-0.5411763191223145,0.0,0.0,0.0,0.0,0.0,0.0,0.0,0.0,0.0,0.00835470575839281,0.014108519069850445,0.05440665781497955,0.0,0.0,0.0,0.0,0.0,0.0,0.0,0.0,0.0
1606990620472591388,3739013,1606987019268972454,imu_link,-0.002443562028929591,0.006758680567145348,-0.36195042729377747,0.9321696758270264,0.0,0.0,0.0,0.0,0.0,0.0,0.0,0.0,0.0,-42.44413375854492,0.6206157803535461,-0.5413841605186462,0.0,0.0,0.0,0.0,0.0,0.0,0.0,0.0,0.0,0.0007761349552311003,0.012427198700606823,0.05306786298751831,0.0,0.0,0.0,0.0,0.0,0.0,0.0,0.0,0.0
1606990620472613275,3739014,1606987019269107722,imu_link,-0.002443562028929591,0.006758680567145348,-0.36195042729377747,0.9321696758270264,0.0,0.0,0.0,0.0,0.0,0.0,0.0,0.0,0.0,-42.44413375854492,0.6206157803535461,-0.5413841605186462,0.0,0.0,0.0,0.0,0.0,0.0,0.0,0.0,0.0,0.0007761349552311003,0.012427198700606823,0.05306786298751831,0.0,0.0,0.0,0.0,0.0,0.0,0.0,0.0,0.0
1606990620479481471,3739015,1606987019269193595,imu_link,-0.002443636767566204,0.006762220524251461,-0.3619498908519745,0.9321698546409607,0.0,0.0,0.0,0.0,0.0,0.0,0.0,0.0,0.0,-42.444068908691406,0.6209911108016968,-0.5415387153625488,0.0,0.0,0.0,0.0,0.0,0.0,0.0,0.0,0.0,-0.007511179894208908,-0.007788865827023983,0.0756479799747467,0.0,0.0,0.0,0.0,0.0,0.0,0.0,0.0,0.0
1606990620479524347,3739016,1606987019269279750,imu_link,-0.002443636767566204,0.006762220524251461,-0.3619498908519745,0.9321698546409607,0.0,0.0,0.0,0.0,0.0,0.0,0.0,0.0,0.0,-42.444068908691406,0.6209911108016968,-0.5415387153625488,0.0,0.0,0.0,0.0,0.0,0.0,0.0,0.0,0.0,-0.007511179894208908,-0.007788865827023983,0.0756479799747467,0.0,0.0,0.0,0.0,0.0,0.0,0.0,0.0,0.0
1606990620479532950,3739017,1606987019281990586,imu_link,-0.0024451485369354486,0.006761068012565374,-0.36194902658462524,0.9321701526641846,0.0,0.0,0.0,0.0,0.0,0.0,0.0,0.0,0.0,-42.443965911865234,0.6208057999610901,-0.5416519045829773,0.0,0.0,0.0,0.0,0.0,0.0,0.0,0.0,0.0,-0.0018584353383630514,-0.003949013538658619,0.0638682022690773,0.0,0.0,0.0,0.0,0.0,0.0,0.0,0.0,0.0
1606990620479556641,3739018,1606987019282129979,imu_link,-0.0024451485369354486,0.006761068012565374,-0.36194902658462524,0.9321701526641846,0.0,0.0,0.0,0.0,0.0,0.0,0.0,0.0,0.0,-42.443965911865234,0.6208057999610901,-0.5416519045829773,0.0,0.0,0.0,0.0,0.0,0.0,0.0,0.0,0.0,-0.0018584353383630514,-0.003949013538658619,0.0638682022690773,0.0,0.0,0.0,0.0,0.0,0.0,0.0,0.0,0.0
1606990620479565658,3739019,1606987019282311905,imu_link,-0.002445253310725093,0.006761061958968639,-0.3619503080844879,0.9321696758270264,0.0,0.0,0.0,0.0,0.0,0.0,0.0,0.0,0.0,-42.44412612915039,0.6208000779151917,-0.541663646697998,0.0,0.0,0.0,0.0,0.0,0.0,0.0,0.0,0.0,-0.005362793803215027,-0.0030768171418458223,0.051184773445129395,0.0,0.0,0.0,0.0,0.0,0.0,0.0,0.0,0.0
1606990620492388293,3739020,1606987019282415570,imu_link,-0.002445253310725093,0.006761061958968639,-0.3619503080844879,0.9321696758270264,0.0,0.0,0.0,0.0,0.0,0.0,0.0,0.0,0.0,-42.44412612915039,0.6208000779151917,-0.541663646697998,0.0,0.0,0.0,0.0,0.0,0.0,0.0,0.0,0.0,-0.005362793803215027,-0.0030768171418458223,0.051184773445129395,0.0,0.0,0.0,0.0,0.0,0.0,0.0,0.0,0.0
1606990620492428182,3739021,1606987019282583699,imu_link,-0.0024445366580039263,0.006760930176824331,-0.3619512617588043,0.9321693181991577,0.0,0.0,0.0,0.0,0.0,0.0,0.0,0.0,0.0,-42.44424057006836,0.6208151578903198,-0.5415822863578796,0.0,0.0,0.0,0.0,0.0,0.0,0.0,0.0,0.0,-0.011401169933378696,-0.0007671512430533767,0.06026877835392952,0.0,0.0,0.0,0.0,0.0,0.0,0.0,0.0,0.0
1606990620492447209,3739022,1606987019282670891,imu_link,-0.0024445366580039263,0.006760930176824331,-0.3619512617588043,0.9321693181991577,0.0,0.0,0.0,0.0,0.0,0.0,0.0,0.0,0.0,-42.44424057006836,0.6208151578903198,-0.5415822863578796,0.0,0.0,0.0,0.0,0.0,0.0,0.0,0.0,0.0,-0.011401169933378696,-0.0007671512430533767,0.06026877835392952,0.0,0.0,0.0,0.0,0.0,0.0,0.0,0.0,0.0
1606990620492457221,3739023,1606987019282770702,imu_link,-0.0024435764644294977,0.00676313741132617,-0.3619496822357178,0.9321699142456055,0.0,0.0,0.0,0.0,0.0,0.0,0.0,0.0,0.0,-42.44404602050781,0.6210916638374329,-0.5415701866149902,0.0,0.0,0.0,0.0,0.0,0.0,0.0,0.0,0.0,-0.0033806758001446724,-0.013034259900450706,0.05654767528176308,0.0,0.0,0.0,0.0,0.0,0.0,0.0,0.0,0.0
1606990620504916911,3739024,1606987019282854786,imu_link,-0.0024435764644294977,0.00676313741132617,-0.3619496822357178,0.9321699142456055,0.0,0.0,0.0,0.0,0.0,0.0,0.0,0.0,0.0,-42.44404602050781,0.6210916638374329,-0.5415701866149902,0.0,0.0,0.0,0.0,0.0,0.0,0.0,0.0,0.0,-0.0033806758001446724,-0.013034259900450706,0.05654767528176308,0.0,0.0,0.0,0.0,0.0,0.0,0.0,0.0,0.0
1606990620504940468,3739025,1606987019283068421,imu_link,-0.0024409284815192223,0.006761644501239061,-0.36194920539855957,0.9321700930595398,0.0,0.0,0.0,0.0,0.0,0.0,0.0,0.0,0.0,-42.44398498535156,0.6210422515869141,-0.541225016117096,0.0,0.0,0.0,0.0,0.0,0.0,0.0,0.0,0.0,-0.0016813401598483324,-0.01930876076221466,0.052935969084501266,0.0,0.0,0.0,0.0,0.0,0.0,0.0,0.0,0.0
1606990620504971191,3739026,1606987019283157938,imu_link,-0.0024409284815192223,0.006761644501239061,-0.36194920539855957,0.9321700930595398,0.0,0.0,0.0,0.0,0.0,0.0,0.0,0.0,0.0,-42.44398498535156,0.6210422515869141,-0.541225016117096,0.0,0.0,0.0,0.0,0.0,0.0,0.0,0.0,0.0,-0.0016813401598483324,-0.01930876076221466,0.052935969084501266,0.0,0.0,0.0,0.0,0.0,0.0,0.0,0.0,0.0
1606990620504981096,3739027,1606987019283321582,imu_link,-0.002442528260871768,0.0067631253041327,-0.3619484305381775,0.9321703910827637,0.0,0.0,0.0,0.0,0.0,0.0,0.0,0.0,0.0,-42.443885803222656,0.6211345791816711,-0.5414568781852722,0.0,0.0,0.0,0.0,0.0,0.0,0.0,0.0,0.0,0.005379663314670324,-0.007579996716231108,0.047100216150283813,0.0,0.0,0.0,0.0,0.0,0.0,0.0,0.0,0.0
1606990620505011617,3739028,1606987019295800797,imu_link,-0.002442528260871768,0.0067631253041327,-0.3619484305381775,0.9321703910827637,0.0,0.0,0.0,0.0,0.0,0.0,0.0,0.0,0.0,-42.443885803222656,0.6211345791816711,-0.5414568781852722,0.0,0.0,0.0,0.0,0.0,0.0,0.0,0.0,0.0,0.005379663314670324,-0.007579996716231108,0.047100216150283813,0.0,0.0,0.0,0.0,0.0,0.0,0.0,0.0,0.0
1606990620556287227,3739029,1606987019295947587,imu_link,-0.0024422782007604837,0.006764136720448732,-0.36195048689842224,0.9321696162223816,0.0,0.0,0.0,0.0,0.0,0.0,0.0,0.0,0.0,-42.44414520263672,0.6212517619132996,-0.5414735078811646,0.0,0.0,0.0,0.0,0.0,0.0,0.0,0.0,0.0,-0.0007089524297043681,-0.005613268818706274,0.0518760159611702,0.0,0.0,0.0,0.0,0.0,0.0,0.0,0.0,0.0
1606990620556306336,3739030,1606987019296093309,imu_link,-0.0024422782007604837,0.006764136720448732,-0.36195048689842224,0.9321696162223816,0.0,0.0,0.0,0.0,0.0,0.0,0.0,0.0,0.0,-42.44414520263672,0.6212517619132996,-0.5414735078811646,0.0,0.0,0.0,0.0,0.0,0.0,0.0,0.0,0.0,-0.0007089524297043681,-0.005613268818706274,0.0518760159611702,0.0,0.0,0.0,0.0,0.0,0.0,0.0,0.0,0.0
1606990620556312828,3739031,1606987019296196513,imu_link,-0.0024424283765256405,0.006763774901628494,-0.3619500696659088,0.9321697950363159,0.0,0.0,0.0,0.0,0.0,0.0,0.0,0.0,0.0,-42.444091796875,0.6212072372436523,-0.5414742827415466,0.0,0.0,0.0,0.0,0.0,0.0,0.0,0.0,0.0,-0.0077639734372496605,-0.0004252264625392854,0.05536225438117981,0.0,0.0,0.0,0.0,0.0,0.0,0.0,0.0,0.0
1606990620556322279,3739032,1606987019296285204,imu_link,-0.0024424283765256405,0.006763774901628494,-0.3619500696659088,0.9321697950363159,0.0,0.0,0.0,0.0,0.0,0.0,0.0,0.0,0.0,-42.444091796875,0.6212072372436523,-0.5414742827415466,0.0,0.0,0.0,0.0,0.0,0.0,0.0,0.0,0.0,-0.0077639734372496605,-0.0004252264625392854,0.05536225438117981,0.0,0.0,0.0,0.0,0.0,0.0,0.0,0.0,0.0
1606990620608948135,3739033,1606987019296367689,imu_link,-0.002441883785650134,0.006762064062058926,-0.36194971203804016,0.9321699142456055,0.0,0.0,0.0,0.0,0.0,0.0,0.0,0.0,0.0,-42.44404220581055,0.6210472583770752,-0.541344940662384,0.0,0.0,0.0,0.0,0.0,0.0,0.0,0.0,0.0,0.003062770003452897,0.0030094613321125507,0.0448603518307209,0.0,0.0,0.0,0.0,0.0,0.0,0.0,0.0,0.0
1606990620608977059,3739034,1606987019296467646,imu_link,-0.002441883785650134,0.006762064062058926,-0.36194971203804016,0.9321699142456055,0.0,0.0,0.0,0.0,0.0,0.0,0.0,0.0,0.0,-42.44404220581055,0.6210472583770752,-0.541344940662384,0.0,0.0,0.0,0.0,0.0,0.0,0.0,0.0,0.0,0.003062770003452897,0.0030094613321125507,0.0448603518307209,0.0,0.0,0.0,0.0,0.0,0.0,0.0,0.0,0.0
1606990620609010511,3739035,1606987019296551680,imu_link,-0.0024408050812780857,0.006759758573025465,-0.3619506359100342,0.9321696162223816,0.0,0.0,0.0,0.0,0.0,0.0,0.0,0.0,0.0,-42.44416046142578,0.6208451390266418,-0.5411345958709717,0.0,0.0,0.0,0.0,0.0,0.0,0.0,0.0,0.0,0.0067186192609369755,0.008646898902952671,0.035831306129693985,0.0,0.0,0.0,0.0,0.0,0.0,0.0,0.0,0.0
1606990620609020250,3739036,1606987019296633029,imu_link,-0.0024408050812780857,0.006759758573025465,-0.3619506359100342,0.9321696162223816,0.0,0.0,0.0,0.0,0.0,0.0,0.0,0.0,0.0,-42.44416046142578,0.6208451390266418,-0.5411345958709717,0.0,0.0,0.0,0.0,0.0,0.0,0.0,0.0,0.0,0.0067186192609369755,0.008646898902952671,0.035831306129693985,0.0,0.0,0.0,0.0,0.0,0.0,0.0,0.0,0.0
1606990620609049475,3739037,1606987019296714226,imu_link,-0.0024411615449935198,0.006760274060070515,-0.3619500696659088,0.9321697950363159,0.0,0.0,0.0,0.0,0.0,0.0,0.0,0.0,0.0,-42.444091796875,0.6208857893943787,-0.5411936640739441,0.0,0.0,0.0,0.0,0.0,0.0,0.0,0.0,0.0,0.007079167291522026,0.01203184388577938,0.0300968736410141,0.0,0.0,0.0,0.0,0.0,0.0,0.0,0.0,0.0
1606990620615714544,3739038,1606987019296798963,imu_link,-0.0024411615449935198,0.006760274060070515,-0.3619500696659088,0.9321697950363159,0.0,0.0,0.0,0.0,0.0,0.0,0.0,0.0,0.0,-42.444091796875,0.6208857893943787,-0.5411936640739441,0.0,0.0,0.0,0.0,0.0,0.0,0.0,0.0,0.0,0.007079167291522026,0.01203184388577938,0.0300968736410141,0.0,0.0,0.0,0.0,0.0,0.0,0.0,0.0,0.0
1606990620615744201,3739039,1606987019309185243,imu_link,-0.0024429417680948973,0.0067600468173623085,-0.3619486391544342,0.9321703314781189,0.0,0.0,0.0,0.0,0.0,0.0,0.0,0.0,0.0,-42.443912506103516,0.6207885146141052,-0.5413734912872314,0.0,0.0,0.0,0.0,0.0,0.0,0.0,0.0,0.0,0.007285000756382942,0.015933431684970856,0.03669700026512146,0.0,0.0,0.0,0.0,0.0,0.0,0.0,0.0,0.0
1606990620615755100,3739040,1606987019309323167,imu_link,-0.0024429417680948973,0.0067600468173623085,-0.3619486391544342,0.9321703314781189,0.0,0.0,0.0,0.0,0.0,0.0,0.0,0.0,0.0,-42.443912506103516,0.6207885146141052,-0.5413734912872314,0.0,0.0,0.0,0.0,0.0,0.0,0.0,0.0,0.0,0.007285000756382942,0.015933431684970856,0.03669700026512146,0.0,0.0,0.0,0.0,0.0,0.0,0.0,0.0,0.0
1606990620615775748,3739041,1606987019309504913,imu_link,-0.002444635843858123,0.006764438468962908,-0.3619479537010193,0.932170569896698,0.0,0.0,0.0,0.0,0.0,0.0,0.0,0.0,0.0,-42.44383239746094,0.621187686920166,-0.5417361855506897,0.0,0.0,0.0,0.0,0.0,0.0,0.0,0.0,0.0,-0.008035262115299702,-0.0037358012050390244,0.04084019362926483,0.0,0.0,0.0,0.0,0.0,0.0,0.0,0.0,0.0
1606990620625415629,3739042,1606987019309591253,imu_link,-0.002444635843858123,0.006764438468962908,-0.3619479537010193,0.932170569896698,0.0,0.0,0.0,0.0,0.0,0.0,0.0,0.0,0.0,-42.44383239746094,0.621187686920166,-0.5417361855506897,0.0,0.0,0.0,0.0,0.0,0.0,0.0,0.0,0.0,-0.008035262115299702,-0.0037358012050390244,0.04084019362926483,0.0,0.0,0.0,0.0,0.0,0.0,0.0,0.0,0.0
1606990620625454182,3739043,1606987019309668777,imu_link,-0.002445091726258397,0.006765141151845455,-0.36194682121276855,0.9321710467338562,0.0,0.0,0.0,0.0,0.0,0.0,0.0,0.0,0.0,-42.443695068359375,0.6212445497512817,-0.5418132543563843,0.0,0.0,0.0,0.0,0.0,0.0,0.0,0.0,0.0,-0.009683039970695972,-0.01537519134581089,0.05179795250296593,0.0,0.0,0.0,0.0,0.0,0.0,0.0,0.0,0.0
1606990620625470302,3739044,1606987019309748552,imu_link,-0.002445091726258397,0.006765141151845455,-0.36194682121276855,0.9321710467338562,0.0,0.0,0.0,0.0,0.0,0.0,0.0,0.0,0.0,-42.443695068359375,0.6212445497512817,-0.5418132543563843,0.0,0.0,0.0,0.0,0.0,0.0,0.0,0.0,0.0,-0.009683039970695972,-0.01537519134581089,0.05179795250296593,0.0,0.0,0.0,0.0,0.0,0.0,0.0,0.0,0.0
1606990620625521571,3739045,1606987019309855905,imu_link,-0.002443146426230669,0.006760924123227596,-0.36194825172424316,0.9321705102920532,0.0,0.0,0.0,0.0,0.0,0.0,0.0,0.0,0.0,-42.44386672973633,0.6208739280700684,-0.5414314866065979,0.0,0.0,0.0,0.0,0.0,0.0,0.0,0.0,0.0,-0.009932467713952065,0.010122496634721756,0.06678932160139084,0.0,0.0,0.0,0.0,0.0,0.0,0.0,0.0,0.0
1606990620625544708,3739046,1606987019309940050,imu_link,-0.002443146426230669,0.006760924123227596,-0.36194825172424316,0.9321705102920532,0.0,0.0,0.0,0.0,0.0,0.0,0.0,0.0,0.0,-42.44386672973633,0.6208739280700684,-0.5414314866065979,0.0,0.0,0.0,0.0,0.0,0.0,0.0,0.0,0.0,-0.009932467713952065,0.010122496634721756,0.06678932160139084,0.0,0.0,0.0,0.0,0.0,0.0,0.0,0.0,0.0
1606990620712085085,3739047,1606987019310064162,imu_link,-0.0024425312876701355,0.0067604961805045605,-0.3619498908519745,0.9321699142456055,0.0,0.0,0.0,0.0,0.0,0.0,0.0,0.0,0.0,-42.44406509399414,0.6208528280258179,-0.5413490533828735,0.0,0.0,0.0,0.0,0.0,0.0,0.0,0.0,0.0,-0.01034631673246622,0.013746056705713272,0.07400384545326233,0.0,0.0,0.0,0.0,0.0,0.0,0.0,0.0,0.0
1606990620712116649,3739048,1606987019310148989,imu_link,-0.0024425312876701355,0.0067604961805045605,-0.3619498908519745,0.9321699142456055,0.0,0.0,0.0,0.0,0.0,0.0,0.0,0.0,0.0,-42.44406509399414,0.6208528280258179,-0.5413490533828735,0.0,0.0,0.0,0.0,0.0,0.0,0.0,0.0,0.0,-0.01034631673246622,0.013746056705713272,0.07400384545326233,0.0,0.0,0.0,0.0,0.0,0.0,0.0,0.0,0.0
1606990620712131403,3739049,1606987019310231905,imu_link,-0.0024437615647912025,0.006762486416846514,-0.3619496822357178,0.9321699142456055,0.0,0.0,0.0,0.0,0.0,0.0,0.0,0.0,0.0,-42.44404602050781,0.621014416217804,-0.5415629744529724,0.0,0.0,0.0,0.0,0.0,0.0,0.0,0.0,0.0,-0.0017393841408193111,0.004713334608823061,0.05666741728782654,0.0,0.0,0.0,0.0,0.0,0.0,0.0,0.0,0.0
1606990620712141031,3739050,1606987019323118759,imu_link,-0.0024437615647912025,0.006762486416846514,-0.3619496822357178,0.9321699142456055,0.0,0.0,0.0,0.0,0.0,0.0,0.0,0.0,0.0,-42.44404602050781,0.621014416217804,-0.5415629744529724,0.0,0.0,0.0,0.0,0.0,0.0,0.0,0.0,0.0,-0.0017393841408193111,0.004713334608823061,0.05666741728782654,0.0,0.0,0.0,0.0,0.0,0.0,0.0,0.0,0.0
1606990620716416059,3739051,1606987019323263088,imu_link,-0.002445666352286935,0.006761021446436644,-0.36194849014282227,0.9321703910827637,0.0,0.0,0.0,0.0,0.0,0.0,0.0,0.0,0.0,-42.44390106201172,0.6207796335220337,-0.5417048931121826,0.0,0.0,0.0,0.0,0.0,0.0,0.0,0.0,0.0,-0.016255978494882584,-0.0033669727854430676,0.04262310639023781,0.0,0.0,0.0,0.0,0.0,0.0,0.0,0.0,0.0
1606990620716447138,3739052,1606987019323405278,imu_link,-0.002445666352286935,0.006761021446436644,-0.36194849014282227,0.9321703910827637,0.0,0.0,0.0,0.0,0.0,0.0,0.0,0.0,0.0,-42.44390106201172,0.6207796335220337,-0.5417048931121826,0.0,0.0,0.0,0.0,0.0,0.0,0.0,0.0,0.0,-0.016255978494882584,-0.0033669727854430676,0.04262310639023781,0.0,0.0,0.0,0.0,0.0,0.0,0.0,0.0,0.0
1606990620716498980,3739053,1606987019323510997,imu_link,-0.002446552040055394,0.006760078482329845,-0.36194947361946106,0.932170033454895,0.0,0.0,0.0,0.0,0.0,0.0,0.0,0.0,0.0,-42.44401550292969,0.6206416487693787,-0.5417609810829163,0.0,0.0,0.0,0.0,0.0,0.0,0.0,0.0,0.0,-0.015686020255088806,7.976737106218934e-05,0.03571748733520508,0.0,0.0,0.0,0.0,0.0,0.0,0.0,0.0,0.0
1606990620716506862,3739054,1606987019323598249,imu_link,-0.002446552040055394,0.006760078482329845,-0.36194947361946106,0.932170033454895,0.0,0.0,0.0,0.0,0.0,0.0,0.0,0.0,0.0,-42.44401550292969,0.6206416487693787,-0.5417609810829163,0.0,0.0,0.0,0.0,0.0,0.0,0.0,0.0,0.0,-0.015686020255088806,7.976737106218934e-05,0.03571748733520508,0.0,0.0,0.0,0.0,0.0,0.0,0.0,0.0,0.0
1606990620716515241,3739055,1606987019323695685,imu_link,-0.002444429323077202,0.0067619821056723595,-0.3619486391544342,0.9321703314781189,0.0,0.0,0.0,0.0,0.0,0.0,0.0,0.0,0.0,-42.44391632080078,0.6209335327148438,-0.5416126847267151,0.0,0.0,0.0,0.0,0.0,0.0,0.0,0.0,0.0,-0.007977957837283611,-0.01340100634843111,0.009045124985277653,0.0,0.0,0.0,0.0,0.0,0.0,0.0,0.0,0.0
1606990620726654302,3739056,1606987019323776687,imu_link,-0.002444429323077202,0.0067619821056723595,-0.3619486391544342,0.9321703314781189,0.0,0.0,0.0,0.0,0.0,0.0,0.0,0.0,0.0,-42.44391632080078,0.6209335327148438,-0.5416126847267151,0.0,0.0,0.0,0.0,0.0,0.0,0.0,0.0,0.0,-0.007977957837283611,-0.01340100634843111,0.009045124985277653,0.0,0.0,0.0,0.0,0.0,0.0,0.0,0.0,0.0
1606990620726676460,3739057,1606987019323906944,imu_link,-0.0024457427207380533,0.006761831697076559,-0.36194899678230286,0.9321701526641846,0.0,0.0,0.0,0.0,0.0,0.0,0.0,0.0,0.0,-42.44396209716797,0.6208627223968506,-0.541746973991394,0.0,0.0,0.0,0.0,0.0,0.0,0.0,0.0,0.0,-0.013866805471479893,-0.018029402941465378,0.03220194950699806,0.0,0.0,0.0,0.0,0.0,0.0,0.0,0.0,0.0
1606990620726688049,3739058,1606987019323991760,imu_link,-0.0024457427207380533,0.006761831697076559,-0.36194899678230286,0.9321701526641846,0.0,0.0,0.0,0.0,0.0,0.0,0.0,0.0,0.0,-42.44396209716797,0.6208627223968506,-0.541746973991394,0.0,0.0,0.0,0.0,0.0,0.0,0.0,0.0,0.0,-0.013866805471479893,-0.018029402941465378,0.03220194950699806,0.0,0.0,0.0,0.0,0.0,0.0,0.0,0.0,0.0
1606990620726706377,3739059,1606987019324077614,imu_link,-0.002445738296955824,0.0067619034089148045,-0.3619499206542969,0.9321698546409607,0.0,0.0,0.0,0.0,0.0,0.0,0.0,0.0,0.0,-42.444068908691406,0.6208701133728027,-0.5417500138282776,0.0,0.0,0.0,0.0,0.0,0.0,0.0,0.0,0.0,-0.01720595732331276,-0.005623051431030035,0.06896137446165085,0.0,0.0,0.0,0.0,0.0,0.0,0.0,0.0,0.0
1606990620736164204,3739060,1606987019324157679,imu_link,-0.002445738296955824,0.0067619034089148045,-0.3619499206542969,0.9321698546409607,0.0,0.0,0.0,0.0,0.0,0.0,0.0,0.0,0.0,-42.444068908691406,0.6208701133728027,-0.5417500138282776,0.0,0.0,0.0,0.0,0.0,0.0,0.0,0.0,0.0,-0.01720595732331276,-0.005623051431030035,0.06896137446165085,0.0,0.0,0.0,0.0,0.0,0.0,0.0,0.0,0.0
1606990620736196539,3739061,1606987019335970025,imu_link,-0.0024448055773973465,0.00675914017483592,-0.3619496822357178,0.9321699142456055,0.0,0.0,0.0,0.0,0.0,0.0,0.0,0.0,0.0,-42.44403839111328,0.620613694190979,-0.5415357351303101,0.0,0.0,0.0,0.0,0.0,0.0,0.0,0.0,0.0,-0.010770434513688087,-0.001856865594163537,0.05996491014957428,0.0,0.0,0.0,0.0,0.0,0.0,0.0,0.0,0.0
1606990620736214850,3739062,1606987019336095066,imu_link,-0.0024448055773973465,0.00675914017483592,-0.3619496822357178,0.9321699142456055,0.0,0.0,0.0,0.0,0.0,0.0,0.0,0.0,0.0,-42.44403839111328,0.620613694190979,-0.5415357351303101,0.0,0.0,0.0,0.0,0.0,0.0,0.0,0.0,0.0,-0.010770434513688087,-0.001856865594163537,0.05996491014957428,0.0,0.0,0.0,0.0,0.0,0.0,0.0,0.0,0.0
1606990620736227031,3739063,1606987019336245876,imu_link,-0.0024460626300424337,0.006758400239050388,-0.361947238445282,0.9321708679199219,0.0,0.0,0.0,0.0,0.0,0.0,0.0,0.0,0.0,-42.44374084472656,0.620483934879303,-0.541637659072876,0.0,0.0,0.0,0.0,0.0,0.0,0.0,0.0,0.0,-0.010313057340681553,-0.006397944409400225,0.04687171429395676,0.0,0.0,0.0,0.0,0.0,0.0,0.0,0.0,0.0
1606990620736240043,3739064,1606987019336335042,imu_link,-0.0024460626300424337,0.006758400239050388,-0.361947238445282,0.9321708679199219,0.0,0.0,0.0,0.0,0.0,0.0,0.0,0.0,0.0,-42.44374084472656,0.620483934879303,-0.541637659072876,0.0,0.0,0.0,0.0,0.0,0.0,0.0,0.0,0.0,-0.010313057340681553,-0.006397944409400225,0.04687171429395676,0.0,0.0,0.0,0.0,0.0,0.0,0.0,0.0,0.0
1606990620801150885,3739065,1606987019336484246,imu_link,-0.002445865422487259,0.00675537995994091,-0.3619467616081238,0.932171106338501,0.0,0.0,0.0,0.0,0.0,0.0,0.0,0.0,0.0,-42.44367599487305,0.6201697587966919,-0.541490912437439,0.0,0.0,0.0,0.0,0.0,0.0,0.0,0.0,0.0,-0.0007822257466614246,0.007549487054347992,0.03207531198859215,0.0,0.0,0.0,0.0,0.0,0.0,0.0,0.0,0.0
1606990620801189116,3739066,1606987019336579047,imu_link,-0.002445865422487259,0.00675537995994091,-0.3619467616081238,0.932171106338501,0.0,0.0,0.0,0.0,0.0,0.0,0.0,0.0,0.0,-42.44367599487305,0.6201697587966919,-0.541490912437439,0.0,0.0,0.0,0.0,0.0,0.0,0.0,0.0,0.0,-0.0007822257466614246,0.007549487054347992,0.03207531198859215,0.0,0.0,0.0,0.0,0.0,0.0,0.0,0.0,0.0
1606990620801212350,3739067,1606987019336648787,imu_link,-0.0024463431909680367,0.006755593698471785,-0.3619460165500641,0.9321714043617249,0.0,0.0,0.0,0.0,0.0,0.0,0.0,0.0,0.0,-42.44358825683594,0.6201732158660889,-0.5415502786636353,0.0,0.0,0.0,0.0,0.0,0.0,0.0,0.0,0.0,-0.020135998725891113,0.026376238092780113,0.027025973424315453,0.0,0.0,0.0,0.0,0.0,0.0,0.0,0.0,0.0
1606990620801228499,3739068,1606987019336730460,imu_link,-0.0024463431909680367,0.006755593698471785,-0.3619460165500641,0.9321714043617249,0.0,0.0,0.0,0.0,0.0,0.0,0.0,0.0,0.0,-42.44358825683594,0.6201732158660889,-0.5415502786636353,0.0,0.0,0.0,0.0,0.0,0.0,0.0,0.0,0.0,-0.020135998725891113,0.026376238092780113,0.027025973424315453,0.0,0.0,0.0,0.0,0.0,0.0,0.0,0.0,0.0
1606990620838655522,3739069,1606987019336801220,imu_link,-0.0024528447538614273,0.006753676105290651,-0.36194780468940735,0.9321707487106323,0.0,0.0,0.0,0.0,0.0,0.0,0.0,0.0,0.0,-42.44380569458008,0.6196976900100708,-0.5421664714813232,0.0,0.0,0.0,0.0,0.0,0.0,0.0,0.0,0.0,-0.03461422771215439,0.005746982526034117,0.05837325379252434,0.0,0.0,0.0,0.0,0.0,0.0,0.0,0.0,0.0
1606990620838695871,3739070,1606987019336877101,imu_link,-0.0024528447538614273,0.006753676105290651,-0.36194780468940735,0.9321707487106323,0.0,0.0,0.0,0.0,0.0,0.0,0.0,0.0,0.0,-42.44380569458008,0.6196976900100708,-0.5421664714813232,0.0,0.0,0.0,0.0,0.0,0.0,0.0,0.0,0.0,-0.03461422771215439,0.005746982526034117,0.05837325379252434,0.0,0.0,0.0,0.0,0.0,0.0,0.0,0.0,0.0
1606990620838742018,3739071,1606987019349414646,imu_link,-0.0024534291587769985,0.006750138942152262,-0.3619478642940521,0.9321707487106323,0.0,0.0,0.0,0.0,0.0,0.0,0.0,0.0,0.0,-42.443809509277344,0.619295597076416,-0.5420821309089661,0.0,0.0,0.0,0.0,0.0,0.0,0.0,0.0,0.0,-0.004947291687130928,-0.01717967540025711,0.06959538161754608,0.0,0.0,0.0,0.0,0.0,0.0,0.0,0.0,0.0
1606990620838757273,3739072,1606987019349552946,imu_link,-0.0024534291587769985,0.006750138942152262,-0.3619478642940521,0.9321707487106323,0.0,0.0,0.0,0.0,0.0,0.0,0.0,0.0,0.0,-42.443809509277344,0.619295597076416,-0.5420821309089661,0.0,0.0,0.0,0.0,0.0,0.0,0.0,0.0,0.0,-0.004947291687130928,-0.01717967540025711,0.06959538161754608,0.0,0.0,0.0,0.0,0.0,0.0,0.0,0.0,0.0
1606990620838779745,3739073,1606987019349703038,imu_link,-0.0024523979518562555,0.006748580373823643,-0.36194998025894165,0.9321699142456055,0.0,0.0,0.0,0.0,0.0,0.0,0.0,0.0,0.0,-42.444068908691406,0.6191706657409668,-0.5419087409973145,0.0,0.0,0.0,0.0,0.0,0.0,0.0,0.0,0.0,0.00707196444272995,-0.018549250438809395,0.04207872226834297,0.0,0.0,0.0,0.0,0.0,0.0,0.0,0.0,0.0
1606990620852378944,3739074,1606987019349802158,imu_link,-0.0024523979518562555,0.006748580373823643,-0.36194998025894165,0.9321699142456055,0.0,0.0,0.0,0.0,0.0,0.0,0.0,0.0,0.0,-42.444068908691406,0.6191706657409668,-0.5419087409973145,0.0,0.0,0.0,0.0,0.0,0.0,0.0,0.0,0.0,0.00707196444272995,-0.018549250438809395,0.04207872226834297,0.0,0.0,0.0,0.0,0.0,0.0,0.0,0.0,0.0
1606990620852425608,3739075,1606987019349897453,imu_link,-0.002451939508318901,0.006747404579073191,-0.36195066571235657,0.9321696758270264,0.0,0.0,0.0,0.0,0.0,0.0,0.0,0.0,0.0,-42.44415283203125,0.6190637350082397,-0.5418115258216858,0.0,0.0,0.0,0.0,0.0,0.0,0.0,0.0,0.0,0.011360649950802326,-0.006520251743495464,0.02160014770925045,0.0,0.0,0.0,0.0,0.0,0.0,0.0,0.0,0.0
1606990620852470095,3739076,1606987019349979368,imu_link,-0.002451939508318901,0.006747404579073191,-0.36195066571235657,0.9321696758270264,0.0,0.0,0.0,0.0,0.0,0.0,0.0,0.0,0.0,-42.44415283203125,0.6190637350082397,-0.5418115258216858,0.0,0.0,0.0,0.0,0.0,0.0,0.0,0.0,0.0,0.011360649950802326,-0.006520251743495464,0.02160014770925045,0.0,0.0,0.0,0.0,0.0,0.0,0.0,0.0,0.0
1606990620852488084,3739077,1606987019350072168,imu_link,-0.00245096068829298,0.006747968960553408,-0.36195114254951477,0.9321693778038025,0.0,0.0,0.0,0.0,0.0,0.0,0.0,0.0,0.0,-42.4442138671875,0.6191641688346863,-0.5417306423187256,0.0,0.0,0.0,0.0,0.0,0.0,0.0,0.0,0.0,0.012480314821004868,-0.0004664481966756284,0.039845556020736694,0.0,0.0,0.0,0.0,0.0,0.0,0.0,0.0,0.0
1606990620859913805,3739078,1606987019350155887,imu_link,-0.00245096068829298,0.006747968960553408,-0.36195114254951477,0.9321693778038025,0.0,0.0,0.0,0.0,0.0,0.0,0.0,0.0,0.0,-42.4442138671875,0.6191641688346863,-0.5417306423187256,0.0,0.0,0.0,0.0,0.0,0.0,0.0,0.0,0.0,0.012480314821004868,-0.0004664481966756284,0.039845556020736694,0.0,0.0,0.0,0.0,0.0,0.0,0.0,0.0,0.0
1606990620859957451,3739079,1606987019350316042,imu_link,-0.0024531125091016293,0.006748604122549295,-0.3619496822357178,0.932170033454895,0.0,0.0,0.0,0.0,0.0,0.0,0.0,0.0,0.0,-42.444034576416016,0.6191437244415283,-0.5419859290122986,0.0,0.0,0.0,0.0,0.0,0.0,0.0,0.0,0.0,0.01733393222093582,-0.002134159207344055,0.05939165875315666,0.0,0.0,0.0,0.0,0.0,0.0,0.0,0.0,0.0
1606990620859985431,3739080,1606987019350399916,imu_link,-0.0024531125091016293,0.006748604122549295,-0.3619496822357178,0.932170033454895,0.0,0.0,0.0,0.0,0.0,0.0,0.0,0.0,0.0,-42.444034576416016,0.6191437244415283,-0.5419859290122986,0.0,0.0,0.0,0.0,0.0,0.0,0.0,0.0,0.0,0.01733393222093582,-0.002134159207344055,0.05939165875315666,0.0,0.0,0.0,0.0,0.0,0.0,0.0,0.0,0.0
1606990620860014796,3739081,1606987019350557225,imu_link,-0.0024523965548723936,0.006749900057911873,-0.3619478642940521,0.9321707487106323,0.0,0.0,0.0,0.0,0.0,0.0,0.0,0.0,0.0,-42.44380569458008,0.6193128824234009,-0.5419619083404541,0.0,0.0,0.0,0.0,0.0,0.0,0.0,0.0,0.0,0.027519945055246353,0.00036659662146121264,0.06075489521026611,0.0,0.0,0.0,0.0,0.0,0.0,0.0,0.0,0.0
1606990620905272339,3739082,1606987019362007871,imu_link,-0.0024523965548723936,0.006749900057911873,-0.3619478642940521,0.9321707487106323,0.0,0.0,0.0,0.0,0.0,0.0,0.0,0.0,0.0,-42.44380569458008,0.6193128824234009,-0.5419619083404541,0.0,0.0,0.0,0.0,0.0,0.0,0.0,0.0,0.0,0.027519945055246353,0.00036659662146121264,0.06075489521026611,0.0,0.0,0.0,0.0,0.0,0.0,0.0,0.0,0.0
1606990620905303763,3739083,1606987019362150686,imu_link,-0.002452458953484893,0.006748307030647993,-0.3619473874568939,0.9321709275245667,0.0,0.0,0.0,0.0,0.0,0.0,0.0,0.0,0.0,-42.443748474121094,0.6191403865814209,-0.5419022440910339,0.0,0.0,0.0,0.0,0.0,0.0,0.0,0.0,0.0,0.015573477372527122,-0.01103421114385128,0.07185536623001099,0.0,0.0,0.0,0.0,0.0,0.0,0.0,0.0,0.0
1606990620905319892,3739084,1606987019362317938,imu_link,-0.002452458953484893,0.006748307030647993,-0.3619473874568939,0.9321709275245667,0.0,0.0,0.0,0.0,0.0,0.0,0.0,0.0,0.0,-42.443748474121094,0.6191403865814209,-0.5419022440910339,0.0,0.0,0.0,0.0,0.0,0.0,0.0,0.0,0.0,0.015573477372527122,-0.01103421114385128,0.07185536623001099,0.0,0.0,0.0,0.0,0.0,0.0,0.0,0.0,0.0
1606990620905337303,3739085,1606987019362423252,imu_link,-0.002450618427246809,0.006747760809957981,-0.3619462549686432,0.9321713447570801,0.0,0.0,0.0,0.0,0.0,0.0,0.0,0.0,0.0,-42.44361114501953,0.6191590428352356,-0.5416821837425232,0.0,0.0,0.0,0.0,0.0,0.0,0.0,0.0,0.0,-0.002693174872547388,-0.009982827119529247,0.06005479767918587,0.0,0.0,0.0,0.0,0.0,0.0,0.0,0.0,0.0
1606990620905355225,3739086,1606987019362566533,imu_link,-0.002450618427246809,0.006747760809957981,-0.3619462549686432,0.9321713447570801,0.0,0.0,0.0,0.0,0.0,0.0,0.0,0.0,0.0,-42.44361114501953,0.6191590428352356,-0.5416821837425232,0.0,0.0,0.0,0.0,0.0,0.0,0.0,0.0,0.0,-0.002693174872547388,-0.009982827119529247,0.06005479767918587,0.0,0.0,0.0,0.0,0.0,0.0,0.0,0.0,0.0
1606990620921197061,3739087,1606987019362653780,imu_link,-0.0024510486982762814,0.006749891676008701,-0.36194488406181335,0.9321718811988831,0.0,0.0,0.0,0.0,0.0,0.0,0.0,0.0,0.0,-42.443443298339844,0.619369626045227,-0.5418156385421753,0.0,0.0,0.0,0.0,0.0,0.0,0.0,0.0,0.0,-0.008091960102319717,0.004579577594995499,0.047737933695316315,0.0,0.0,0.0,0.0,0.0,0.0,0.0,0.0,0.0
1606990620921264962,3739088,1606987019362752704,imu_link,-0.0024510486982762814,0.006749891676008701,-0.36194488406181335,0.9321718811988831,0.0,0.0,0.0,0.0,0.0,0.0,0.0,0.0,0.0,-42.443443298339844,0.619369626045227,-0.5418156385421753,0.0,0.0,0.0,0.0,0.0,0.0,0.0,0.0,0.0,-0.008091960102319717,0.004579577594995499,0.047737933695316315,0.0,0.0,0.0,0.0,0.0,0.0,0.0,0.0,0.0
1606990620921287317,3739089,1606987019362835561,imu_link,-0.0024522526655346155,0.006749043706804514,-0.3619457483291626,0.9321715235710144,0.0,0.0,0.0,0.0,0.0,0.0,0.0,0.0,0.0,-42.44355010986328,0.6192286014556885,-0.5419096350669861,0.0,0.0,0.0,0.0,0.0,0.0,0.0,0.0,0.0,-0.016422459855675697,-0.005868284497410059,0.04346218332648277,0.0,0.0,0.0,0.0,0.0,0.0,0.0,0.0,0.0
1606990620921312576,3739090,1606987019362923164,imu_link,-0.0024522526655346155,0.006749043706804514,-0.3619457483291626,0.9321715235710144,0.0,0.0,0.0,0.0,0.0,0.0,0.0,0.0,0.0,-42.44355010986328,0.6192286014556885,-0.5419096350669861,0.0,0.0,0.0,0.0,0.0,0.0,0.0,0.0,0.0,-0.016422459855675697,-0.005868284497410059,0.04346218332648277,0.0,0.0,0.0,0.0,0.0,0.0,0.0,0.0,0.0
1606990620926373144,3739091,1606987019363036727,imu_link,-0.002451894339174032,0.006750804837793112,-0.36194705963134766,0.9321709871292114,0.0,0.0,0.0,0.0,0.0,0.0,0.0,0.0,0.0,-42.4437141418457,0.6194307804107666,-0.5419453382492065,0.0,0.0,0.0,0.0,0.0,0.0,0.0,0.0,0.0,-0.009212382137775421,-0.01124217826873064,0.04191075265407562,0.0,0.0,0.0,0.0,0.0,0.0,0.0,0.0,0.0
1606990620926451337,3739092,1606987019373257826,imu_link,-0.002451894339174032,0.006750804837793112,-0.36194705963134766,0.9321709871292114,0.0,0.0,0.0,0.0,0.0,0.0,0.0,0.0,0.0,-42.4437141418457,0.6194307804107666,-0.5419453382492065,0.0,0.0,0.0,0.0,0.0,0.0,0.0,0.0,0.0,-0.009212382137775421,-0.01124217826873064,0.04191075265407562,0.0,0.0,0.0,0.0,0.0,0.0,0.0,0.0,0.0
1606990620926542114,3739093,1606987019373392353,imu_link,-0.002452302724123001,0.006748256739228964,-0.36194705963134766,0.9321709871292114,0.0,0.0,0.0,0.0,0.0,0.0,0.0,0.0,0.0,-42.44371032714844,0.619141697883606,-0.5418832898139954,0.0,0.0,0.0,0.0,0.0,0.0,0.0,0.0,0.0,0.0005376478075049818,-8.349795825779438e-05,0.04184512048959732,0.0,0.0,0.0,0.0,0.0,0.0,0.0,0.0,0.0
1606990620926575077,3739094,1606987019373600339,imu_link,-0.002452302724123001,0.006748256739228964,-0.36194705963134766,0.9321709871292114,0.0,0.0,0.0,0.0,0.0,0.0,0.0,0.0,0.0,-42.44371032714844,0.619141697883606,-0.5418832898139954,0.0,0.0,0.0,0.0,0.0,0.0,0.0,0.0,0.0,0.0005376478075049818,-8.349795825779438e-05,0.04184512048959732,0.0,0.0,0.0,0.0,0.0,0.0,0.0,0.0,0.0
1606990620926600708,3739095,1606987019373710489,imu_link,-0.002452671527862549,0.006749581545591354,-0.36194542050361633,0.932171642780304,0.0,0.0,0.0,0.0,0.0,0.0,0.0,0.0,0.0,-42.443511962890625,0.6192688345909119,-0.5419765114784241,0.0,0.0,0.0,0.0,0.0,0.0,0.0,0.0,0.0,-0.015628114342689514,-0.0058813816867768764,0.04977315664291382,0.0,0.0,0.0,0.0,0.0,0.0,0.0,0.0,0.0
1606990620934050259,3739096,1606987019373788825,imu_link,-0.002452671527862549,0.006749581545591354,-0.36194542050361633,0.932171642780304,0.0,0.0,0.0,0.0,0.0,0.0,0.0,0.0,0.0,-42.443511962890625,0.6192688345909119,-0.5419765114784241,0.0,0.0,0.0,0.0,0.0,0.0,0.0,0.0,0.0,-0.015628114342689514,-0.0058813816867768764,0.04977315664291382,0.0,0.0,0.0,0.0,0.0,0.0,0.0,0.0,0.0
1606990620934096735,3739097,1606987019373872599,imu_link,-0.0024532154202461243,0.0067466506734490395,-0.36194223165512085,0.9321728944778442,0.0,0.0,0.0,0.0,0.0,0.0,0.0,0.0,0.0,-42.443119049072266,0.6189350485801697,-0.5419108867645264,0.0,0.0,0.0,0.0,0.0,0.0,0.0,0.0,0.0,-0.010078425519168377,-0.014550511725246906,0.0696459487080574,0.0,0.0,0.0,0.0,0.0,0.0,0.0,0.0,0.0
1606990620934169659,3739098,1606987019373954594,imu_link,-0.0024532154202461243,0.0067466506734490395,-0.36194223165512085,0.9321728944778442,0.0,0.0,0.0,0.0,0.0,0.0,0.0,0.0,0.0,-42.443119049072266,0.6189350485801697,-0.5419108867645264,0.0,0.0,0.0,0.0,0.0,0.0,0.0,0.0,0.0,-0.010078425519168377,-0.014550511725246906,0.0696459487080574,0.0,0.0,0.0,0.0,0.0,0.0,0.0,0.0,0.0
1606990620934192155,3739099,1606987019374038328,imu_link,-0.002453769091516733,0.0067479354329407215,-0.36194130778312683,0.9321732521057129,0.0,0.0,0.0,0.0,0.0,0.0,0.0,0.0,0.0,-42.4430046081543,0.6190499067306519,-0.5420227646827698,0.0,0.0,0.0,0.0,0.0,0.0,0.0,0.0,0.0,0.008241478353738785,-0.013151096180081367,0.0710826963186264,0.0,0.0,0.0,0.0,0.0,0.0,0.0,0.0,0.0
1606990620987739364,3739100,1606987019374118188,imu_link,-0.002453769091516733,0.0067479354329407215,-0.36194130778312683,0.9321732521057129,0.0,0.0,0.0,0.0,0.0,0.0,0.0,0.0,0.0,-42.4430046081543,0.6190499067306519,-0.5420227646827698,0.0,0.0,0.0,0.0,0.0,0.0,0.0,0.0,0.0,0.008241478353738785,-0.013151096180081367,0.0710826963186264,0.0,0.0,0.0,0.0,0.0,0.0,0.0,0.0,0.0
1606990620987762604,3739101,1606987019386032265,imu_link,-0.0024497597478330135,0.006747608073055744,-0.3619404435157776,0.9321736097335815,0.0,0.0,0.0,0.0,0.0,0.0,0.0,0.0,0.0,-42.442893981933594,0.619181752204895,-0.5415802597999573,0.0,0.0,0.0,0.0,0.0,0.0,0.0,0.0,0.0,0.005427591037005186,-0.008052006363868713,0.06182898208498955,0.0,0.0,0.0,0.0,0.0,0.0,0.0,0.0,0.0
1606990620987773771,3739102,1606987019386172595,imu_link,-0.0024497597478330135,0.006747608073055744,-0.3619404435157776,0.9321736097335815,0.0,0.0,0.0,0.0,0.0,0.0,0.0,0.0,0.0,-42.442893981933594,0.619181752204895,-0.5415802597999573,0.0,0.0,0.0,0.0,0.0,0.0,0.0,0.0,0.0,0.005427591037005186,-0.008052006363868713,0.06182898208498955,0.0,0.0,0.0,0.0,0.0,0.0,0.0,0.0,0.0
1606990620987789292,3739103,1606987019386316062,imu_link,-0.002450209576636553,0.006746566854417324,-0.36193931102752686,0.932174026966095,0.0,0.0,0.0,0.0,0.0,0.0,0.0,0.0,0.0,-42.4427604675293,0.619052529335022,-0.5415844321250916,0.0,0.0,0.0,0.0,0.0,0.0,0.0,0.0,0.0,-0.0052393595688045025,-0.0005455120117403567,0.06682439148426056,0.0,0.0,0.0,0.0,0.0,0.0,0.0,0.0,0.0
1606990620987798177,3739104,1606987019386411668,imu_link,-0.002450209576636553,0.006746566854417324,-0.36193931102752686,0.932174026966095,0.0,0.0,0.0,0.0,0.0,0.0,0.0,0.0,0.0,-42.4427604675293,0.619052529335022,-0.5415844321250916,0.0,0.0,0.0,0.0,0.0,0.0,0.0,0.0,0.0,-0.0052393595688045025,-0.0005455120117403567,0.06682439148426056,0.0,0.0,0.0,0.0,0.0,0.0,0.0,0.0,0.0
1606990620994477143,3739105,1606987019386505469,imu_link,-0.0024488712660968304,0.006748423911631107,-0.3619363307952881,0.9321751594543457,0.0,0.0,0.0,0.0,0.0,0.0,0.0,0.0,0.0,-42.44239044189453,0.6193081140518188,-0.5415164828300476,0.0,0.0,0.0,0.0,0.0,0.0,0.0,0.0,0.0,-0.0014593078522011638,-0.004634298384189606,0.04496421292424202,0.0,0.0,0.0,0.0,0.0,0.0,0.0,0.0,0.0
1606990620994496629,3739106,1606987019386590866,imu_link,-0.0024488712660968304,0.006748423911631107,-0.3619363307952881,0.9321751594543457,0.0,0.0,0.0,0.0,0.0,0.0,0.0,0.0,0.0,-42.44239044189453,0.6193081140518188,-0.5415164828300476,0.0,0.0,0.0,0.0,0.0,0.0,0.0,0.0,0.0,-0.0014593078522011638,-0.004634298384189606,0.04496421292424202,0.0,0.0,0.0,0.0,0.0,0.0,0.0,0.0,0.0
1606990620994507898,3739107,1606987019386660756,imu_link,-0.002447187900543213,0.006749171297997236,-0.36193856596946716,0.9321743249893188,0.0,0.0,0.0,0.0,0.0,0.0,0.0,0.0,0.0,-42.442665100097656,0.6194565296173096,-0.5413691401481628,0.0,0.0,0.0,0.0,0.0,0.0,0.0,0.0,0.0,0.024860545992851257,-0.013801968656480312,0.02340281382203102,0.0,0.0,0.0,0.0,0.0,0.0,0.0,0.0,0.0
1606990620994513757,3739108,1606987019386729912,imu_link,-0.002447187900543213,0.006749171297997236,-0.36193856596946716,0.9321743249893188,0.0,0.0,0.0,0.0,0.0,0.0,0.0,0.0,0.0,-42.442665100097656,0.6194565296173096,-0.5413691401481628,0.0,0.0,0.0,0.0,0.0,0.0,0.0,0.0,0.0,0.024860545992851257,-0.013801968656480312,0.02340281382203102,0.0,0.0,0.0,0.0,0.0,0.0,0.0,0.0,0.0
1606990621023435144,3739109,1606987019386793291,imu_link,-0.002444205339998007,0.006751115899533033,-0.36194077134132385,0.9321734309196472,0.0,0.0,0.0,0.0,0.0,0.0,0.0,0.0,0.0,-42.442935943603516,0.6197866201400757,-0.5411326885223389,0.0,0.0,0.0,0.0,0.0,0.0,0.0,0.0,0.0,0.022528642788529396,-0.009542431682348251,0.0412287637591362,0.0,0.0,0.0,0.0,0.0,0.0,0.0,0.0,0.0
1606990621023461144,3739110,1606987019386861994,imu_link,-0.002444205339998007,0.006751115899533033,-0.36194077134132385,0.9321734309196472,0.0,0.0,0.0,0.0,0.0,0.0,0.0,0.0,0.0,-42.442935943603516,0.6197866201400757,-0.5411326885223389,0.0,0.0,0.0,0.0,0.0,0.0,0.0,0.0,0.0,0.022528642788529396,-0.009542431682348251,0.0412287637591362,0.0,0.0,0.0,0.0,0.0,0.0,0.0,0.0,0.0
1606990621023483536,3739111,1606987019399487505,imu_link,-0.0024432155769318342,0.0067519196309149265,-0.3619406223297119,0.9321735501289368,0.0,0.0,0.0,0.0,0.0,0.0,0.0,0.0,0.0,-42.44291687011719,0.619913637638092,-0.541060209274292,0.0,0.0,0.0,0.0,0.0,0.0,0.0,0.0,0.0,-0.007545624393969774,0.009290700778365135,0.058141399174928665,0.0,0.0,0.0,0.0,0.0,0.0,0.0,0.0,0.0
1606990621023527992,3739112,1606987019399602768,imu_link,-0.0024432155769318342,0.0067519196309149265,-0.3619406223297119,0.9321735501289368,0.0,0.0,0.0,0.0,0.0,0.0,0.0,0.0,0.0,-42.44291687011719,0.619913637638092,-0.541060209274292,0.0,0.0,0.0,0.0,0.0,0.0,0.0,0.0,0.0,-0.007545624393969774,0.009290700778365135,0.058141399174928665,0.0,0.0,0.0,0.0,0.0,0.0,0.0,0.0,0.0
1606990621023539096,3739113,1606987019399723419,imu_link,-0.0024454330559819937,0.006750443484634161,-0.36194172501564026,0.9321730732917786,0.0,0.0,0.0,0.0,0.0,0.0,0.0,0.0,0.0,-42.443058013916016,0.6196632981300354,-0.5412365794181824,0.0,0.0,0.0,0.0,0.0,0.0,0.0,0.0,0.0,-0.022647863253951073,0.013941653072834015,0.04493723809719086,0.0,0.0,0.0,0.0,0.0,0.0,0.0,0.0,0.0
1606990621032123580,3739114,1606987019399795033,imu_link,-0.0024454330559819937,0.006750443484634161,-0.36194172501564026,0.9321730732917786,0.0,0.0,0.0,0.0,0.0,0.0,0.0,0.0,0.0,-42.443058013916016,0.6196632981300354,-0.5412365794181824,0.0,0.0,0.0,0.0,0.0,0.0,0.0,0.0,0.0,-0.022647863253951073,0.013941653072834015,0.04493723809719086,0.0,0.0,0.0,0.0,0.0,0.0,0.0,0.0,0.0
1606990621032144325,3739115,1606987019399860532,imu_link,-0.002445721533149481,0.006752292159944773,-0.3619413673877716,0.9321731925010681,0.0,0.0,0.0,0.0,0.0,0.0,0.0,0.0,0.0,-42.44301223754883,0.6198490858078003,-0.5413438677787781,0.0,0.0,0.0,0.0,0.0,0.0,0.0,0.0,0.0,-0.014404721558094025,-0.002204972319304943,0.016035545617341995,0.0,0.0,0.0,0.0,0.0,0.0,0.0,0.0,0.0
1606990621032166902,3739116,1606987019399925342,imu_link,-0.002445721533149481,0.006752292159944773,-0.3619413673877716,0.9321731925010681,0.0,0.0,0.0,0.0,0.0,0.0,0.0,0.0,0.0,-42.44301223754883,0.6198490858078003,-0.5413438677787781,0.0,0.0,0.0,0.0,0.0,0.0,0.0,0.0,0.0,-0.014404721558094025,-0.002204972319304943,0.016035545617341995,0.0,0.0,0.0,0.0,0.0,0.0,0.0,0.0,0.0
1606990621032172965,3739117,1606987019400003776,imu_link,-0.002447100356221199,0.006746582221239805,-0.361941933631897,0.9321730732917786,0.0,0.0,0.0,0.0,0.0,0.0,0.0,0.0,0.0,-42.443077087402344,0.6191816329956055,-0.5412545800209045,0.0,0.0,0.0,0.0,0.0,0.0,0.0,0.0,0.0,-0.014236601069569588,-0.01703066937625408,0.03192657604813576,0.0,0.0,0.0,0.0,0.0,0.0,0.0,0.0,0.0
1606990621138286014,3739118,1606987019400070570,imu_link,-0.002447100356221199,0.006746582221239805,-0.361941933631897,0.9321730732917786,0.0,0.0,0.0,0.0,0.0,0.0,0.0,0.0,0.0,-42.443077087402344,0.6191816329956055,-0.5412545800209045,0.0,0.0,0.0,0.0,0.0,0.0,0.0,0.0,0.0,-0.014236601069569588,-0.01703066937625408,0.03192657604813576,0.0,0.0,0.0,0.0,0.0,0.0,0.0,0.0,0.0
1606990621138342553,3739119,1606987019400205937,imu_link,-0.0024497013073414564,0.006746577098965645,-0.361942857503891,0.9321727156639099,0.0,0.0,0.0,0.0,0.0,0.0,0.0,0.0,0.0,-42.44319152832031,0.6190726161003113,-0.5415328741073608,0.0,0.0,0.0,0.0,0.0,0.0,0.0,0.0,0.0,0.008736788295209408,-0.015139980241656303,0.05870847404003143,0.0,0.0,0.0,0.0,0.0,0.0,0.0,0.0,0.0
1606990621138360060,3739120,1606987019400292803,imu_link,-0.0024497013073414564,0.006746577098965645,-0.361942857503891,0.9321727156639099,0.0,0.0,0.0,0.0,0.0,0.0,0.0,0.0,0.0,-42.44319152832031,0.6190726161003113,-0.5415328741073608,0.0,0.0,0.0,0.0,0.0,0.0,0.0,0.0,0.0,0.008736788295209408,-0.015139980241656303,0.05870847404003143,0.0,0.0,0.0,0.0,0.0,0.0,0.0,0.0,0.0
1606990621138378479,3739121,1606987019400383859,imu_link,-0.0024476356338709593,0.006748533342033625,-0.3619447648525238,0.9321719408035278,0.0,0.0,0.0,0.0,0.0,0.0,0.0,0.0,0.0,-42.443424224853516,0.6193661689758301,-0.5413946509361267,0.0,0.0,0.0,0.0,0.0,0.0,0.0,0.0,0.0,0.024295693263411522,-0.012761128135025501,0.030764853581786156,0.0,0.0,0.0,0.0,0.0,0.0,0.0,0.0,0.0
1606990621138401563,3739122,1606987019413378859,imu_link,-0.0024476356338709593,0.006748533342033625,-0.3619447648525238,0.9321719408035278,0.0,0.0,0.0,0.0,0.0,0.0,0.0,0.0,0.0,-42.443424224853516,0.6193661689758301,-0.5413946509361267,0.0,0.0,0.0,0.0,0.0,0.0,0.0,0.0,0.0,0.024295693263411522,-0.012761128135025501,0.030764853581786156,0.0,0.0,0.0,0.0,0.0,0.0,0.0,0.0,0.0
1606990621146361072,3739123,1606987019413523644,imu_link,-0.0024477695114910603,0.006745696533471346,-0.36194440722465515,0.9321721196174622,0.0,0.0,0.0,0.0,0.0,0.0,0.0,0.0,0.0,-42.44337844848633,0.619057834148407,-0.5412909388542175,0.0,0.0,0.0,0.0,0.0,0.0,0.0,0.0,0.0,0.015426156111061573,-0.011521260254085064,0.011112064123153687,0.0,0.0,0.0,0.0,0.0,0.0,0.0,0.0,0.0
1606990621146389058,3739124,1606987019413627910,imu_link,-0.0024477695114910603,0.006745696533471346,-0.36194440722465515,0.9321721196174622,0.0,0.0,0.0,0.0,0.0,0.0,0.0,0.0,0.0,-42.44337844848633,0.619057834148407,-0.5412909388542175,0.0,0.0,0.0,0.0,0.0,0.0,0.0,0.0,0.0,0.015426156111061573,-0.011521260254085064,0.011112064123153687,0.0,0.0,0.0,0.0,0.0,0.0,0.0,0.0,0.0
1606990621146426777,3739125,1606987019413717086,imu_link,-0.0024434744846075773,0.0067484998144209385,-0.3619431257247925,0.9321725964546204,0.0,0.0,0.0,0.0,0.0,0.0,0.0,0.0,0.0,-42.44322204589844,0.6195361018180847,-0.5409476161003113,0.0,0.0,0.0,0.0,0.0,0.0,0.0,0.0,0.0,0.010640389285981655,-0.006312141660600901,0.04127752408385277,0.0,0.0,0.0,0.0,0.0,0.0,0.0,0.0,0.0
1606990621146470965,3739126,1606987019413815208,imu_link,-0.0024434744846075773,0.0067484998144209385,-0.3619431257247925,0.9321725964546204,0.0,0.0,0.0,0.0,0.0,0.0,0.0,0.0,0.0,-42.44322204589844,0.6195361018180847,-0.5409476161003113,0.0,0.0,0.0,0.0,0.0,0.0,0.0,0.0,0.0,0.010640389285981655,-0.006312141660600901,0.04127752408385277,0.0,0.0,0.0,0.0,0.0,0.0,0.0,0.0,0.0
1606990621153574761,3739127,1606987019413898907,imu_link,-0.002445788821205497,0.0067496825940907,-0.36194270849227905,0.9321727752685547,0.0,0.0,0.0,0.0,0.0,0.0,0.0,0.0,0.0,-42.443172454833984,0.6195667386054993,-0.5412436127662659,0.0,0.0,0.0,0.0,0.0,0.0,0.0,0.0,0.0,0.0024424020666629076,0.004592223092913628,0.058179352432489395,0.0,0.0,0.0,0.0,0.0,0.0,0.0,0.0,0.0
1606990621153608066,3739128,1606987019414008441,imu_link,-0.002445788821205497,0.0067496825940907,-0.36194270849227905,0.9321727752685547,0.0,0.0,0.0,0.0,0.0,0.0,0.0,0.0,0.0,-42.443172454833984,0.6195667386054993,-0.5412436127662659,0.0,0.0,0.0,0.0,0.0,0.0,0.0,0.0,0.0,0.0024424020666629076,0.004592223092913628,0.058179352432489395,0.0,0.0,0.0,0.0,0.0,0.0,0.0,0.0,0.0
1606990621153617749,3739129,1606987019414092124,imu_link,-0.0024458575062453747,0.00675275968387723,-0.3619407117366791,0.9321734309196472,0.0,0.0,0.0,0.0,0.0,0.0,0.0,0.0,0.0,-42.442935943603516,0.6198936700820923,-0.5413773655891418,0.0,0.0,0.0,0.0,0.0,0.0,0.0,0.0,0.0,0.0012193608563393354,0.012668862007558346,0.04552580788731575,0.0,0.0,0.0,0.0,0.0,0.0,0.0,0.0,0.0
1606990621153648388,3739130,1606987019414181742,imu_link,-0.0024458575062453747,0.00675275968387723,-0.3619407117366791,0.9321734309196472,0.0,0.0,0.0,0.0,0.0,0.0,0.0,0.0,0.0,-42.442935943603516,0.6198936700820923,-0.5413773655891418,0.0,0.0,0.0,0.0,0.0,0.0,0.0,0.0,0.0,0.0012193608563393354,0.012668862007558346,0.04552580788731575,0.0,0.0,0.0,0.0,0.0,0.0,0.0,0.0,0.0
1606990621153666985,3739131,1606987019414259436,imu_link,-0.002444790443405509,0.0067535401321947575,-0.3619428277015686,0.9321726560592651,0.0,0.0,0.0,0.0,0.0,0.0,0.0,0.0,0.0,-42.44319152832031,0.6200201511383057,-0.5412970781326294,0.0,0.0,0.0,0.0,0.0,0.0,0.0,0.0,0.0,-0.021251874044537544,0.00997227057814598,0.040327075868844986,0.0,0.0,0.0,0.0,0.0,0.0,0.0,0.0,0.0
1606990621162143845,3739132,1606987019414345300,imu_link,-0.002444790443405509,0.0067535401321947575,-0.3619428277015686,0.9321726560592651,0.0,0.0,0.0,0.0,0.0,0.0,0.0,0.0,0.0,-42.44319152832031,0.6200201511383057,-0.5412970781326294,0.0,0.0,0.0,0.0,0.0,0.0,0.0,0.0,0.0,-0.021251874044537544,0.00997227057814598,0.040327075868844986,0.0,0.0,0.0,0.0,0.0,0.0,0.0,0.0,0.0
1606990621162175017,3739133,1606987019426837005,imu_link,-0.0024464204907417297,0.0067503307946026325,-0.36194130778312683,0.9321732521057129,0.0,0.0,0.0,0.0,0.0,0.0,0.0,0.0,0.0,-42.4430046081543,0.6196105480194092,-0.5413370728492737,0.0,0.0,0.0,0.0,0.0,0.0,0.0,0.0,0.0,-0.030377592891454697,-0.013198630884289742,0.034961286932229996,0.0,0.0,0.0,0.0,0.0,0.0,0.0,0.0,0.0
1606990621162242715,3739134,1606987019427036702,imu_link,-0.0024464204907417297,0.0067503307946026325,-0.36194130778312683,0.9321732521057129,0.0,0.0,0.0,0.0,0.0,0.0,0.0,0.0,0.0,-42.4430046081543,0.6196105480194092,-0.5413370728492737,0.0,0.0,0.0,0.0,0.0,0.0,0.0,0.0,0.0,-0.030377592891454697,-0.013198630884289742,0.034961286932229996,0.0,0.0,0.0,0.0,0.0,0.0,0.0,0.0,0.0
1606990621162257091,3739135,1606987019427140206,imu_link,-0.002446300582960248,0.006751681677997112,-0.3619419038295746,0.9321730136871338,0.0,0.0,0.0,0.0,0.0,0.0,0.0,0.0,0.0,-42.443077087402344,0.6197595000267029,-0.5413807034492493,0.0,0.0,0.0,0.0,0.0,0.0,0.0,0.0,0.0,-0.02499968558549881,-0.030323931947350502,0.04178576171398163,0.0,0.0,0.0,0.0,0.0,0.0,0.0,0.0,0.0
1606990621219871518,3739136,1606987019427224807,imu_link,-0.002446300582960248,0.006751681677997112,-0.3619419038295746,0.9321730136871338,0.0,0.0,0.0,0.0,0.0,0.0,0.0,0.0,0.0,-42.443077087402344,0.6197595000267029,-0.5413807034492493,0.0,0.0,0.0,0.0,0.0,0.0,0.0,0.0,0.0,-0.02499968558549881,-0.030323931947350502,0.04178576171398163,0.0,0.0,0.0,0.0,0.0,0.0,0.0,0.0,0.0
1606990621219891925,3739137,1606987019427303940,imu_link,-0.0024427766911685467,0.006746814586222172,-0.36194297671318054,0.9321726560592651,0.0,0.0,0.0,0.0,0.0,0.0,0.0,0.0,0.0,-42.44320297241211,0.6193851828575134,-0.540803074836731,0.0,0.0,0.0,0.0,0.0,0.0,0.0,0.0,0.0,-0.006679372861981392,-0.010687210597097874,0.05537080764770508,0.0,0.0,0.0,0.0,0.0,0.0,0.0,0.0,0.0
1606990621219901551,3739138,1606987019427384727,imu_link,-0.0024427766911685467,0.006746814586222172,-0.36194297671318054,0.9321726560592651,0.0,0.0,0.0,0.0,0.0,0.0,0.0,0.0,0.0,-42.44320297241211,0.6193851828575134,-0.540803074836731,0.0,0.0,0.0,0.0,0.0,0.0,0.0,0.0,0.0,-0.006679372861981392,-0.010687210597097874,0.05537080764770508,0.0,0.0,0.0,0.0,0.0,0.0,0.0,0.0,0.0
1606990621219913454,3739139,1606987019427487440,imu_link,-0.002441992051899433,0.006748855579644442,-0.3619445562362671,0.9321720600128174,0.0,0.0,0.0,0.0,0.0,0.0,0.0,0.0,0.0,-42.44339370727539,0.6196348071098328,-0.5408049821853638,0.0,0.0,0.0,0.0,0.0,0.0,0.0,0.0,0.0,0.004234457854181528,-0.01165955699980259,0.04533436894416809,0.0,0.0,0.0,0.0,0.0,0.0,0.0,0.0,0.0
1606990621219919714,3739140,1606987019427570036,imu_link,-0.002441992051899433,0.006748855579644442,-0.3619445562362671,0.9321720600128174,0.0,0.0,0.0,0.0,0.0,0.0,0.0,0.0,0.0,-42.44339370727539,0.6196348071098328,-0.5408049821853638,0.0,0.0,0.0,0.0,0.0,0.0,0.0,0.0,0.0,0.004234457854181528,-0.01165955699980259,0.04533436894416809,0.0,0.0,0.0,0.0,0.0,0.0,0.0,0.0,0.0
1606990621223283614,3739141,1606987019427651715,imu_link,-0.002439171774312854,0.006750630680471659,-0.36194324493408203,0.9321724772453308,0.0,0.0,0.0,0.0,0.0,0.0,0.0,0.0,0.0,-42.443241119384766,0.6199421286582947,-0.5405765175819397,0.0,0.0,0.0,0.0,0.0,0.0,0.0,0.0,0.0,-0.015885209664702415,-0.01410139910876751,0.036871206015348434,0.0,0.0,0.0,0.0,0.0,0.0,0.0,0.0,0.0
1606990621223304552,3739142,1606987019427733805,imu_link,-0.002439171774312854,0.006750630680471659,-0.36194324493408203,0.9321724772453308,0.0,0.0,0.0,0.0,0.0,0.0,0.0,0.0,0.0,-42.443241119384766,0.6199421286582947,-0.5405765175819397,0.0,0.0,0.0,0.0,0.0,0.0,0.0,0.0,0.0,-0.015885209664702415,-0.01410139910876751,0.036871206015348434,0.0,0.0,0.0,0.0,0.0,0.0,0.0,0.0,0.0
1606990621223314038,3739143,1606987019427816231,imu_link,-0.0024376760702580214,0.006751724518835545,-0.3619439899921417,0.9321721792221069,0.0,0.0,0.0,0.0,0.0,0.0,0.0,0.0,0.0,-42.44333267211914,0.6201205849647522,-0.5404626131057739,0.0,0.0,0.0,0.0,0.0,0.0,0.0,0.0,0.0,-0.004921499639749527,-0.0077080861665308475,0.02753819152712822,0.0,0.0,0.0,0.0,0.0,0.0,0.0,0.0,0.0
1606990621223328854,3739144,1606987019440671667,imu_link,-0.0024376760702580214,0.006751724518835545,-0.3619439899921417,0.9321721792221069,0.0,0.0,0.0,0.0,0.0,0.0,0.0,0.0,0.0,-42.44333267211914,0.6201205849647522,-0.5404626131057739,0.0,0.0,0.0,0.0,0.0,0.0,0.0,0.0,0.0,-0.004921499639749527,-0.0077080861665308475,0.02753819152712822,0.0,0.0,0.0,0.0,0.0,0.0,0.0,0.0,0.0
1606990621265051346,3739145,1606987019440811195,imu_link,-0.0024352450855076313,0.006751942913979292,-0.36194542050361633,0.932171642780304,0.0,0.0,0.0,0.0,0.0,0.0,0.0,0.0,0.0,-42.44350814819336,0.6202439665794373,-0.5402129292488098,0.0,0.0,0.0,0.0,0.0,0.0,0.0,0.0,0.0,-0.005522083956748247,-0.022065704688429832,0.009308994747698307,0.0,0.0,0.0,0.0,0.0,0.0,0.0,0.0,0.0
1606990621265077117,3739146,1606987019440914705,imu_link,-0.0024352450855076313,0.006751942913979292,-0.36194542050361633,0.932171642780304,0.0,0.0,0.0,0.0,0.0,0.0,0.0,0.0,0.0,-42.44350814819336,0.6202439665794373,-0.5402129292488098,0.0,0.0,0.0,0.0,0.0,0.0,0.0,0.0,0.0,-0.005522083956748247,-0.022065704688429832,0.009308994747698307,0.0,0.0,0.0,0.0,0.0,0.0,0.0,0.0,0.0
1606990621265088733,3739147,1606987019441008377,imu_link,-0.0024369568563997746,0.006750769447535276,-0.361943781375885,0.9321722984313965,0.0,0.0,0.0,0.0,0.0,0.0,0.0,0.0,0.0,-42.44330596923828,0.6200485229492188,-0.5403460264205933,0.0,0.0,0.0,0.0,0.0,0.0,0.0,0.0,0.0,-0.017365025356411934,-0.01494284812361002,0.01745327189564705,0.0,0.0,0.0,0.0,0.0,0.0,0.0,0.0,0.0
1606990621265097054,3739148,1606987019441105682,imu_link,-0.0024369568563997746,0.006750769447535276,-0.361943781375885,0.9321722984313965,0.0,0.0,0.0,0.0,0.0,0.0,0.0,0.0,0.0,-42.44330596923828,0.6200485229492188,-0.5403460264205933,0.0,0.0,0.0,0.0,0.0,0.0,0.0,0.0,0.0,-0.017365025356411934,-0.01494284812361002,0.01745327189564705,0.0,0.0,0.0,0.0,0.0,0.0,0.0,0.0,0.0
1606990621270921011,3739149,1606987019441225068,imu_link,-0.002436524722725153,0.006749505642801523,-0.3619445860385895,0.9321720004081726,0.0,0.0,0.0,0.0,0.0,0.0,0.0,0.0,0.0,-42.44340133666992,0.6199309825897217,-0.5402479767799377,0.0,0.0,0.0,0.0,0.0,0.0,0.0,0.0,0.0,-0.0026834539603441954,-0.00421283021569252,0.055602941662073135,0.0,0.0,0.0,0.0,0.0,0.0,0.0,0.0,0.0
1606990621270951252,3739150,1606987019441318935,imu_link,-0.002436524722725153,0.006749505642801523,-0.3619445860385895,0.9321720004081726,0.0,0.0,0.0,0.0,0.0,0.0,0.0,0.0,0.0,-42.44340133666992,0.6199309825897217,-0.5402479767799377,0.0,0.0,0.0,0.0,0.0,0.0,0.0,0.0,0.0,-0.0026834539603441954,-0.00421283021569252,0.055602941662073135,0.0,0.0,0.0,0.0,0.0,0.0,0.0,0.0,0.0
1606990621270966140,3739151,1606987019441401035,imu_link,-0.002436782233417034,0.006750607863068581,-0.3619457185268402,0.9321715831756592,0.0,0.0,0.0,0.0,0.0,0.0,0.0,0.0,0.0,-42.443538665771484,0.6200374364852905,-0.540321946144104,0.0,0.0,0.0,0.0,0.0,0.0,0.0,0.0,0.0,-0.000634868280030787,-0.012936960905790329,0.032690439373254776,0.0,0.0,0.0,0.0,0.0,0.0,0.0,0.0,0.0
1606990621271009726,3739152,1606987019441482489,imu_link,-0.002436782233417034,0.006750607863068581,-0.3619457185268402,0.9321715831756592,0.0,0.0,0.0,0.0,0.0,0.0,0.0,0.0,0.0,-42.443538665771484,0.6200374364852905,-0.540321946144104,0.0,0.0,0.0,0.0,0.0,0.0,0.0,0.0,0.0,-0.000634868280030787,-0.012936960905790329,0.032690439373254776,0.0,0.0,0.0,0.0,0.0,0.0,0.0,0.0,0.0
1606990621271027993,3739153,1606987019441563040,imu_link,-0.002434385707601905,0.0067521072924137115,-0.36194470524787903,0.9321719408035278,0.0,0.0,0.0,0.0,0.0,0.0,0.0,0.0,0.0,-42.443416595458984,0.6202975511550903,-0.5401274561882019,0.0,0.0,0.0,0.0,0.0,0.0,0.0,0.0,0.0,-0.006935580167919397,-0.018026234582066536,0.013505508191883564,0.0,0.0,0.0,0.0,0.0,0.0,0.0,0.0,0.0
1606990621313127502,3739154,1606987019441645576,imu_link,-0.002434385707601905,0.0067521072924137115,-0.36194470524787903,0.9321719408035278,0.0,0.0,0.0,0.0,0.0,0.0,0.0,0.0,0.0,-42.443416595458984,0.6202975511550903,-0.5401274561882019,0.0,0.0,0.0,0.0,0.0,0.0,0.0,0.0,0.0,-0.006935580167919397,-0.018026234582066536,0.013505508191883564,0.0,0.0,0.0,0.0,0.0,0.0,0.0,0.0,0.0
1606990621313173800,3739155,1606987019453580407,imu_link,-0.0024327365681529045,0.006750644650310278,-0.3619453012943268,0.9321717619895935,0.0,0.0,0.0,0.0,0.0,0.0,0.0,0.0,0.0,-42.44348907470703,0.6202093958854675,-0.5398910045623779,0.0,0.0,0.0,0.0,0.0,0.0,0.0,0.0,0.0,-0.013783308677375317,-0.011602512560784817,0.030561663210392,0.0,0.0,0.0,0.0,0.0,0.0,0.0,0.0,0.0
1606990621313194468,3739156,1606987019453722406,imu_link,-0.0024327365681529045,0.006750644650310278,-0.3619453012943268,0.9321717619895935,0.0,0.0,0.0,0.0,0.0,0.0,0.0,0.0,0.0,-42.44348907470703,0.6202093958854675,-0.5398910045623779,0.0,0.0,0.0,0.0,0.0,0.0,0.0,0.0,0.0,-0.013783308677375317,-0.011602512560784817,0.030561663210392,0.0,0.0,0.0,0.0,0.0,0.0,0.0,0.0,0.0
1606990621313216009,3739157,1606987019453832360,imu_link,-0.002432117471471429,0.006746701430529356,-0.36194363236427307,0.932172417640686,0.0,0.0,0.0,0.0,0.0,0.0,0.0,0.0,0.0,-42.44327926635742,0.6198148727416992,-0.5396601557731628,0.0,0.0,0.0,0.0,0.0,0.0,0.0,0.0,0.0,-0.006083132233470678,-0.015191181562840939,0.041815269738435745,0.0,0.0,0.0,0.0,0.0,0.0,0.0,0.0,0.0
1606990621324601218,3739158,1606987019453928432,imu_link,-0.002432117471471429,0.006746701430529356,-0.36194363236427307,0.932172417640686,0.0,0.0,0.0,0.0,0.0,0.0,0.0,0.0,0.0,-42.44327926635742,0.6198148727416992,-0.5396601557731628,0.0,0.0,0.0,0.0,0.0,0.0,0.0,0.0,0.0,-0.006083132233470678,-0.015191181562840939,0.041815269738435745,0.0,0.0,0.0,0.0,0.0,0.0,0.0,0.0,0.0
1606990621324684507,3739159,1606987019454046095,imu_link,-0.002429644577205181,0.006746155209839344,-0.36194491386413574,0.9321719408035278,0.0,0.0,0.0,0.0,0.0,0.0,0.0,0.0,0.0,-42.44343566894531,0.6198583245277405,-0.5393741130828857,0.0,0.0,0.0,0.0,0.0,0.0,0.0,0.0,0.0,0.011747839860618114,-0.028771409764885902,0.051940806210041046,0.0,0.0,0.0,0.0,0.0,0.0,0.0,0.0,0.0
1606990621324700404,3739160,1606987019454157648,imu_link,-0.002429644577205181,0.006746155209839344,-0.36194491386413574,0.9321719408035278,0.0,0.0,0.0,0.0,0.0,0.0,0.0,0.0,0.0,-42.44343566894531,0.6198583245277405,-0.5393741130828857,0.0,0.0,0.0,0.0,0.0,0.0,0.0,0.0,0.0,0.011747839860618114,-0.028771409764885902,0.051940806210041046,0.0,0.0,0.0,0.0,0.0,0.0,0.0,0.0,0.0
1606990621324726815,3739161,1606987019454240840,imu_link,-0.002426290884613991,0.006746326573193073,-0.36194509267807007,0.9321718811988831,0.0,0.0,0.0,0.0,0.0,0.0,0.0,0.0,0.0,-42.44345474243164,0.6200156807899475,-0.5390231609344482,0.0,0.0,0.0,0.0,0.0,0.0,0.0,0.0,0.0,-0.0037658854853361845,-0.023165833204984665,0.04627585783600807,0.0,0.0,0.0,0.0,0.0,0.0,0.0,0.0,0.0
1606990621324751224,3739162,1606987019454320866,imu_link,-0.002426290884613991,0.006746326573193073,-0.36194509267807007,0.9321718811988831,0.0,0.0,0.0,0.0,0.0,0.0,0.0,0.0,0.0,-42.44345474243164,0.6200156807899475,-0.5390231609344482,0.0,0.0,0.0,0.0,0.0,0.0,0.0,0.0,0.0,-0.0037658854853361845,-0.023165833204984665,0.04627585783600807,0.0,0.0,0.0,0.0,0.0,0.0,0.0,0.0,0.0
1606990621327142825,3739163,1606987019454399342,imu_link,-0.0024253674782812595,0.006744189653545618,-0.36194533109664917,0.9321718215942383,0.0,0.0,0.0,0.0,0.0,0.0,0.0,0.0,0.0,-42.4434814453125,0.6198256015777588,-0.5388359427452087,0.0,0.0,0.0,0.0,0.0,0.0,0.0,0.0,0.0,-0.01843312941491604,-0.005759024992585182,0.046444062143564224,0.0,0.0,0.0,0.0,0.0,0.0,0.0,0.0,0.0
1606990621327190445,3739164,1606987019454487381,imu_link,-0.0024253674782812595,0.006744189653545618,-0.36194533109664917,0.9321718215942383,0.0,0.0,0.0,0.0,0.0,0.0,0.0,0.0,0.0,-42.4434814453125,0.6198256015777588,-0.5388359427452087,0.0,0.0,0.0,0.0,0.0,0.0,0.0,0.0,0.0,-0.01843312941491604,-0.005759024992585182,0.046444062143564224,0.0,0.0,0.0,0.0,0.0,0.0,0.0,0.0,0.0
1606990621327219009,3739165,1606987019466972034,imu_link,-0.00242369482293725,0.006741255987435579,-0.3619440793991089,0.9321723580360413,0.0,0.0,0.0,0.0,0.0,0.0,0.0,0.0,0.0,-42.44331741333008,0.6195822954177856,-0.5385347604751587,0.0,0.0,0.0,0.0,0.0,0.0,0.0,0.0,0.0,-0.009864861145615578,-0.005862766411155462,0.04176890105009079,0.0,0.0,0.0,0.0,0.0,0.0,0.0,0.0,0.0
1606990621327271639,3739166,1606987019467119666,imu_link,-0.00242369482293725,0.006741255987435579,-0.3619440793991089,0.9321723580360413,0.0,0.0,0.0,0.0,0.0,0.0,0.0,0.0,0.0,-42.44331741333008,0.6195822954177856,-0.5385347604751587,0.0,0.0,0.0,0.0,0.0,0.0,0.0,0.0,0.0,-0.009864861145615578,-0.005862766411155462,0.04176890105009079,0.0,0.0,0.0,0.0,0.0,0.0,0.0,0.0,0.0
1606990621334050495,3739167,1606987019467217758,imu_link,-0.002422607969492674,0.006742308847606182,-0.3619436025619507,0.932172417640686,0.0,0.0,0.0,0.0,0.0,0.0,0.0,0.0,0.0,-42.44327163696289,0.6197400093078613,-0.5384621024131775,0.0,0.0,0.0,0.0,0.0,0.0,0.0,0.0,0.0,-0.008390245959162712,-0.005274586845189333,0.03163554146885872,0.0,0.0,0.0,0.0,0.0,0.0,0.0,0.0,0.0
1606990621334130610,3739168,1606987019467307125,imu_link,-0.002422607969492674,0.006742308847606182,-0.3619436025619507,0.932172417640686,0.0,0.0,0.0,0.0,0.0,0.0,0.0,0.0,0.0,-42.44327163696289,0.6197400093078613,-0.5384621024131775,0.0,0.0,0.0,0.0,0.0,0.0,0.0,0.0,0.0,-0.008390245959162712,-0.005274586845189333,0.03163554146885872,0.0,0.0,0.0,0.0,0.0,0.0,0.0,0.0,0.0
1606990621334153729,3739169,1606987019467401608,imu_link,-0.002423410303890705,0.0067388382740318775,-0.3619442880153656,0.9321722984313965,0.0,0.0,0.0,0.0,0.0,0.0,0.0,0.0,0.0,-42.4433479309082,0.6193357110023499,-0.5384042263031006,0.0,0.0,0.0,0.0,0.0,0.0,0.0,0.0,0.0,-0.013454290106892586,0.0017138303956016898,0.04800659045577049,0.0,0.0,0.0,0.0,0.0,0.0,0.0,0.0,0.0
1606990621334174228,3739170,1606987019467481077,imu_link,-0.002423410303890705,0.0067388382740318775,-0.3619442880153656,0.9321722984313965,0.0,0.0,0.0,0.0,0.0,0.0,0.0,0.0,0.0,-42.4433479309082,0.6193357110023499,-0.5384042263031006,0.0,0.0,0.0,0.0,0.0,0.0,0.0,0.0,0.0,-0.013454290106892586,0.0017138303956016898,0.04800659045577049,0.0,0.0,0.0,0.0,0.0,0.0,0.0,0.0,0.0
1606990621334199625,3739171,1606987019467600023,imu_link,-0.0024218368344008923,0.006738603580743074,-0.3619458079338074,0.9321717023849487,0.0,0.0,0.0,0.0,0.0,0.0,0.0,0.0,0.0,-42.44353103637695,0.6193749904632568,-0.5382273197174072,0.0,0.0,0.0,0.0,0.0,0.0,0.0,0.0,0.0,-0.004925105720758438,0.006120660342276096,0.04997047409415245,0.0,0.0,0.0,0.0,0.0,0.0,0.0,0.0,0.0
1606990621359396967,3739172,1606987019467681115,imu_link,-0.0024218368344008923,0.006738603580743074,-0.3619458079338074,0.9321717023849487,0.0,0.0,0.0,0.0,0.0,0.0,0.0,0.0,0.0,-42.44353103637695,0.6193749904632568,-0.5382273197174072,0.0,0.0,0.0,0.0,0.0,0.0,0.0,0.0,0.0,-0.004925105720758438,0.006120660342276096,0.04997047409415245,0.0,0.0,0.0,0.0,0.0,0.0,0.0,0.0,0.0
1606990621359442090,3739173,1606987019467762073,imu_link,-0.0024214433506131172,0.00674055889248848,-0.36194655299186707,0.9321714043617249,0.0,0.0,0.0,0.0,0.0,0.0,0.0,0.0,0.0,-42.443626403808594,0.6195997595787048,-0.5382669568061829,0.0,0.0,0.0,0.0,0.0,0.0,0.0,0.0,0.0,-0.003077766625210643,0.0020771236158907413,0.047876086086034775,0.0,0.0,0.0,0.0,0.0,0.0,0.0,0.0,0.0
1606990621359495479,3739174,1606987019467842133,imu_link,-0.0024214433506131172,0.00674055889248848,-0.36194655299186707,0.9321714043617249,0.0,0.0,0.0,0.0,0.0,0.0,0.0,0.0,0.0,-42.443626403808594,0.6195997595787048,-0.5382669568061829,0.0,0.0,0.0,0.0,0.0,0.0,0.0,0.0,0.0,-0.003077766625210643,0.0020771236158907413,0.047876086086034775,0.0,0.0,0.0,0.0,0.0,0.0,0.0,0.0,0.0
1606990621359640147,3739175,1606987019467965308,imu_link,-0.0024208975955843925,0.006739981472492218,-0.3619455099105835,0.9321718215942383,0.0,0.0,0.0,0.0,0.0,0.0,0.0,0.0,0.0,-42.44349670410156,0.6195613741874695,-0.5381839871406555,0.0,0.0,0.0,0.0,0.0,0.0,0.0,0.0,0.0,-0.017879623919725418,-0.002601773478090763,0.05580297112464905,0.0,0.0,0.0,0.0,0.0,0.0,0.0,0.0,0.0
1606990621359677559,3739176,1606987019480748066,imu_link,-0.0024208975955843925,0.006739981472492218,-0.3619455099105835,0.9321718215942383,0.0,0.0,0.0,0.0,0.0,0.0,0.0,0.0,0.0,-42.44349670410156,0.6195613741874695,-0.5381839871406555,0.0,0.0,0.0,0.0,0.0,0.0,0.0,0.0,0.0,-0.017879623919725418,-0.002601773478090763,0.05580297112464905,0.0,0.0,0.0,0.0,0.0,0.0,0.0,0.0,0.0
1606990621359701148,3739177,1606987019480881480,imu_link,-0.002421875949949026,0.006739530712366104,-0.3619458079338074,0.9321717023849487,0.0,0.0,0.0,0.0,0.0,0.0,0.0,0.0,0.0,-42.44353103637695,0.6194724440574646,-0.5382699966430664,0.0,0.0,0.0,0.0,0.0,0.0,0.0,0.0,0.0,-0.011938022449612617,-0.0073629929684102535,0.049037378281354904,0.0,0.0,0.0,0.0,0.0,0.0,0.0,0.0,0.0
1606990621359814600,3739178,1606987019480982393,imu_link,-0.002421875949949026,0.006739530712366104,-0.3619458079338074,0.9321717023849487,0.0,0.0,0.0,0.0,0.0,0.0,0.0,0.0,0.0,-42.44353103637695,0.6194724440574646,-0.5382699966430664,0.0,0.0,0.0,0.0,0.0,0.0,0.0,0.0,0.0,-0.011938022449612617,-0.0073629929684102535,0.049037378281354904,0.0,0.0,0.0,0.0,0.0,0.0,0.0,0.0,0.0
1606990621359854167,3739179,1606987019481062985,imu_link,-0.002423918806016445,0.006738694384694099,-0.36194661259651184,0.9321712851524353,0.0,0.0,0.0,0.0,0.0,0.0,0.0,0.0,0.0,-42.443634033203125,0.6192978620529175,-0.5384541153907776,0.0,0.0,0.0,0.0,0.0,0.0,0.0,0.0,0.0,-0.01209258008748293,-0.001039373455569148,0.06329775601625443,0.0,0.0,0.0,0.0,0.0,0.0,0.0,0.0,0.0
1606990621359893933,3739180,1606987019481151881,imu_link,-0.002423918806016445,0.006738694384694099,-0.36194661259651184,0.9321712851524353,0.0,0.0,0.0,0.0,0.0,0.0,0.0,0.0,0.0,-42.443634033203125,0.6192978620529175,-0.5384541153907776,0.0,0.0,0.0,0.0,0.0,0.0,0.0,0.0,0.0,-0.01209258008748293,-0.001039373455569148,0.06329775601625443,0.0,0.0,0.0,0.0,0.0,0.0,0.0,0.0,0.0
1606990621373756385,3739181,1606987019481233389,imu_link,-0.0024247837718576193,0.006739138159900904,-0.36194705963134766,0.9321711659431458,0.0,0.0,0.0,0.0,0.0,0.0,0.0,0.0,0.0,-42.44368362426758,0.61930912733078,-0.5385652184486389,0.0,0.0,0.0,0.0,0.0,0.0,0.0,0.0,0.0,-0.01878826506435871,0.0006865187897346914,0.0466669499874115,0.0,0.0,0.0,0.0,0.0,0.0,0.0,0.0,0.0
1606990621373770105,3739182,1606987019481335115,imu_link,-0.0024247837718576193,0.006739138159900904,-0.36194705963134766,0.9321711659431458,0.0,0.0,0.0,0.0,0.0,0.0,0.0,0.0,0.0,-42.44368362426758,0.61930912733078,-0.5385652184486389,0.0,0.0,0.0,0.0,0.0,0.0,0.0,0.0,0.0,-0.01878826506435871,0.0006865187897346914,0.0466669499874115,0.0,0.0,0.0,0.0,0.0,0.0,0.0,0.0,0.0
1606990621373779968,3739183,1606987019481418207,imu_link,-0.00242391019128263,0.0067395782098174095,-0.3619455397129059,0.9321717023849487,0.0,0.0,0.0,0.0,0.0,0.0,0.0,0.0,0.0,-42.443504333496094,0.6193932294845581,-0.5384892225265503,0.0,0.0,0.0,0.0,0.0,0.0,0.0,0.0,0.0,-0.007391141261905432,0.005286297295242548,0.001305056968703866,0.0,0.0,0.0,0.0,0.0,0.0,0.0,0.0,0.0
1606990621373791317,3739184,1606987019481500252,imu_link,-0.00242391019128263,0.0067395782098174095,-0.3619455397129059,0.9321717023849487,0.0,0.0,0.0,0.0,0.0,0.0,0.0,0.0,0.0,-42.443504333496094,0.6193932294845581,-0.5384892225265503,0.0,0.0,0.0,0.0,0.0,0.0,0.0,0.0,0.0,-0.007391141261905432,0.005286297295242548,0.001305056968703866,0.0,0.0,0.0,0.0,0.0,0.0,0.0,0.0,0.0
1606990621376704534,3739185,1606987019481583540,imu_link,-0.00242591998539865,0.006738366559147835,-0.361946702003479,0.9321712851524353,0.0,0.0,0.0,0.0,0.0,0.0,0.0,0.0,0.0,-42.44364547729492,0.6191797852516174,-0.5386543273925781,0.0,0.0,0.0,0.0,0.0,0.0,0.0,0.0,0.0,-0.0035006534308195114,0.011383473873138428,0.005283461418002844,0.0,0.0,0.0,0.0,0.0,0.0,0.0,0.0,0.0
1606990621376724904,3739186,1606987019481664136,imu_link,-0.00242591998539865,0.006738366559147835,-0.361946702003479,0.9321712851524353,0.0,0.0,0.0,0.0,0.0,0.0,0.0,0.0,0.0,-42.44364547729492,0.6191797852516174,-0.5386543273925781,0.0,0.0,0.0,0.0,0.0,0.0,0.0,0.0,0.0,-0.0035006534308195114,0.011383473873138428,0.005283461418002844,0.0,0.0,0.0,0.0,0.0,0.0,0.0,0.0,0.0
1606990621376734616,3739187,1606987019494256298,imu_link,-0.0024251933209598064,0.0067382813431322575,-0.36194881796836853,0.9321705102920532,0.0,0.0,0.0,0.0,0.0,0.0,0.0,0.0,0.0,-42.443904876708984,0.6191996932029724,-0.5385745763778687,0.0,0.0,0.0,0.0,0.0,0.0,0.0,0.0,0.0,-0.011676858179271221,-0.00904941838234663,0.04015236720442772,0.0,0.0,0.0,0.0,0.0,0.0,0.0,0.0,0.0
1606990621376745330,3739188,1606987019494402311,imu_link,-0.0024251933209598064,0.0067382813431322575,-0.36194881796836853,0.9321705102920532,0.0,0.0,0.0,0.0,0.0,0.0,0.0,0.0,0.0,-42.443904876708984,0.6191996932029724,-0.5385745763778687,0.0,0.0,0.0,0.0,0.0,0.0,0.0,0.0,0.0,-0.011676858179271221,-0.00904941838234663,0.04015236720442772,0.0,0.0,0.0,0.0,0.0,0.0,0.0,0.0,0.0
1606990621376798740,3739189,1606987019494492941,imu_link,-0.0024235453456640244,0.006736979819834232,-0.3619491159915924,0.9321703314781189,0.0,0.0,0.0,0.0,0.0,0.0,0.0,0.0,0.0,-42.443939208984375,0.6191287636756897,-0.5383447408676147,0.0,0.0,0.0,0.0,0.0,0.0,0.0,0.0,0.0,-0.023360781371593475,-0.010856048204004765,0.04340079054236412,0.0,0.0,0.0,0.0,0.0,0.0,0.0,0.0,0.0
1606990621402860464,3739190,1606987019494586788,imu_link,-0.0024235453456640244,0.006736979819834232,-0.3619491159915924,0.9321703314781189,0.0,0.0,0.0,0.0,0.0,0.0,0.0,0.0,0.0,-42.443939208984375,0.6191287636756897,-0.5383447408676147,0.0,0.0,0.0,0.0,0.0,0.0,0.0,0.0,0.0,-0.023360781371593475,-0.010856048204004765,0.04340079054236412,0.0,0.0,0.0,0.0,0.0,0.0,0.0,0.0,0.0
1606990621402886747,3739191,1606987019494674281,imu_link,-0.0024248200934380293,0.006736118812114,-0.36195069551467896,0.9321697950363159,0.0,0.0,0.0,0.0,0.0,0.0,0.0,0.0,0.0,-42.44413375854492,0.6189830303192139,-0.5384461879730225,0.0,0.0,0.0,0.0,0.0,0.0,0.0,0.0,0.0,-0.010654590092599392,-0.001415328704752028,0.0289139486849308,0.0,0.0,0.0,0.0,0.0,0.0,0.0,0.0,0.0
1606990621402920776,3739192,1606987019494775420,imu_link,-0.0024248200934380293,0.006736118812114,-0.36195069551467896,0.9321697950363159,0.0,0.0,0.0,0.0,0.0,0.0,0.0,0.0,0.0,-42.44413375854492,0.6189830303192139,-0.5384461879730225,0.0,0.0,0.0,0.0,0.0,0.0,0.0,0.0,0.0,-0.010654590092599392,-0.001415328704752028,0.0289139486849308,0.0,0.0,0.0,0.0,0.0,0.0,0.0,0.0,0.0
1606990621402930739,3739193,1606987019494859755,imu_link,-0.002425948390737176,0.006735257804393768,-0.3619484007358551,0.9321706295013428,0.0,0.0,0.0,0.0,0.0,0.0,0.0,0.0,0.0,-42.44384765625,0.618845522403717,-0.5385295152664185,0.0,0.0,0.0,0.0,0.0,0.0,0.0,0.0,0.0,-0.002565045841038227,-0.007579124066978693,0.033382270485162735,0.0,0.0,0.0,0.0,0.0,0.0,0.0,0.0,0.0
1606990621415955163,3739194,1606987019494971919,imu_link,-0.002425948390737176,0.006735257804393768,-0.3619484007358551,0.9321706295013428,0.0,0.0,0.0,0.0,0.0,0.0,0.0,0.0,0.0,-42.44384765625,0.618845522403717,-0.5385295152664185,0.0,0.0,0.0,0.0,0.0,0.0,0.0,0.0,0.0,-0.002565045841038227,-0.007579124066978693,0.033382270485162735,0.0,0.0,0.0,0.0,0.0,0.0,0.0,0.0,0.0
1606990621415975336,3739195,1606987019495073510,imu_link,-0.0024270007852464914,0.0067364550195634365,-0.3619462549686432,0.9321714639663696,0.0,0.0,0.0,0.0,0.0,0.0,0.0,0.0,0.0,-42.4435920715332,0.618930995464325,-0.5386902093887329,0.0,0.0,0.0,0.0,0.0,0.0,0.0,0.0,0.0,-0.012976173311471939,-0.02330132946372032,0.05505775287747383,0.0,0.0,0.0,0.0,0.0,0.0,0.0,0.0,0.0
1606990621415986324,3739196,1606987019495152447,imu_link,-0.0024270007852464914,0.0067364550195634365,-0.3619462549686432,0.9321714639663696,0.0,0.0,0.0,0.0,0.0,0.0,0.0,0.0,0.0,-42.4435920715332,0.618930995464325,-0.5386902093887329,0.0,0.0,0.0,0.0,0.0,0.0,0.0,0.0,0.0,-0.012976173311471939,-0.02330132946372032,0.05505775287747383,0.0,0.0,0.0,0.0,0.0,0.0,0.0,0.0,0.0
1606990621415998355,3739197,1606987019495273788,imu_link,-0.002424358855932951,0.00673447223380208,-0.361947625875473,0.9321709871292114,0.0,0.0,0.0,0.0,0.0,0.0,0.0,0.0,0.0,-42.443748474121094,0.6188279986381531,-0.5383265614509583,0.0,0.0,0.0,0.0,0.0,0.0,0.0,0.0,0.0,-0.0154632069170475,-0.0057609775103628635,0.05783781409263611,0.0,0.0,0.0,0.0,0.0,0.0,0.0,0.0,0.0
1606990621416010327,3739198,1606987019507026242,imu_link,-0.002424358855932951,0.00673447223380208,-0.361947625875473,0.9321709871292114,0.0,0.0,0.0,0.0,0.0,0.0,0.0,0.0,0.0,-42.443748474121094,0.6188279986381531,-0.5383265614509583,0.0,0.0,0.0,0.0,0.0,0.0,0.0,0.0,0.0,-0.0154632069170475,-0.0057609775103628635,0.05783781409263611,0.0,0.0,0.0,0.0,0.0,0.0,0.0,0.0,0.0
1606990621426143844,3739199,1606987019507141754,imu_link,-0.0024231174029409885,0.006734018214046955,-0.36194875836372375,0.932170569896698,0.0,0.0,0.0,0.0,0.0,0.0,0.0,0.0,0.0,-42.44388961791992,0.6188303828239441,-0.5381758213043213,0.0,0.0,0.0,0.0,0.0,0.0,0.0,0.0,0.0,-0.021096965298056602,0.004368489608168602,0.03191712498664856,0.0,0.0,0.0,0.0,0.0,0.0,0.0,0.0,0.0
1606990621426159715,3739200,1606987019507250045,imu_link,-0.0024231174029409885,0.006734018214046955,-0.36194875836372375,0.932170569896698,0.0,0.0,0.0,0.0,0.0,0.0,0.0,0.0,0.0,-42.44388961791992,0.6188303828239441,-0.5381758213043213,0.0,0.0,0.0,0.0,0.0,0.0,0.0,0.0,0.0,-0.021096965298056602,0.004368489608168602,0.03191712498664856,0.0,0.0,0.0,0.0,0.0,0.0,0.0,0.0,0.0
1606990621426165364,3739201,1606987019507334420,imu_link,-0.0024240047205239534,0.006730298977345228,-0.3619488775730133,0.9321705102920532,0.0,0.0,0.0,0.0,0.0,0.0,0.0,0.0,0.0,-42.443904876708984,0.6183961629867554,-0.538116455078125,0.0,0.0,0.0,0.0,0.0,0.0,0.0,0.0,0.0,-0.0007989527657628059,-0.006632746197283268,0.0338604710996151,0.0,0.0,0.0,0.0,0.0,0.0,0.0,0.0,0.0
1606990621426212895,3739202,1606987019507432011,imu_link,-0.0024240047205239534,0.006730298977345228,-0.3619488775730133,0.9321705102920532,0.0,0.0,0.0,0.0,0.0,0.0,0.0,0.0,0.0,-42.443904876708984,0.6183961629867554,-0.538116455078125,0.0,0.0,0.0,0.0,0.0,0.0,0.0,0.0,0.0,-0.0007989527657628059,-0.006632746197283268,0.0338604710996151,0.0,0.0,0.0,0.0,0.0,0.0,0.0,0.0,0.0
1606990621445744626,3739203,1606987019507528624,imu_link,-0.00242510624229908,0.006730024702847004,-0.36194708943367004,0.9321712255477905,0.0,0.0,0.0,0.0,0.0,0.0,0.0,0.0,0.0,-42.44367980957031,0.6183223128318787,-0.538221538066864,0.0,0.0,0.0,0.0,0.0,0.0,0.0,0.0,0.0,0.013122253119945526,0.0005692972335964441,0.05190340802073479,0.0,0.0,0.0,0.0,0.0,0.0,0.0,0.0,0.0
1606990621445767238,3739204,1606987019507611827,imu_link,-0.00242510624229908,0.006730024702847004,-0.36194708943367004,0.9321712255477905,0.0,0.0,0.0,0.0,0.0,0.0,0.0,0.0,0.0,-42.44367980957031,0.6183223128318787,-0.538221538066864,0.0,0.0,0.0,0.0,0.0,0.0,0.0,0.0,0.0,0.013122253119945526,0.0005692972335964441,0.05190340802073479,0.0,0.0,0.0,0.0,0.0,0.0,0.0,0.0,0.0
1606990621445798047,3739205,1606987019507691351,imu_link,-0.0024237821344286203,0.006730982568114996,-0.3619447350502014,0.9321721196174622,0.0,0.0,0.0,0.0,0.0,0.0,0.0,0.0,0.0,-42.44339370727539,0.6184808611869812,-0.5381182432174683,0.0,0.0,0.0,0.0,0.0,0.0,0.0,0.0,0.0,-0.009079383686184883,0.004020117223262787,0.050674691796302795,0.0,0.0,0.0,0.0,0.0,0.0,0.0,0.0,0.0
1606990621445849684,3739206,1606987019507782081,imu_link,-0.0024237821344286203,0.006730982568114996,-0.3619447350502014,0.9321721196174622,0.0,0.0,0.0,0.0,0.0,0.0,0.0,0.0,0.0,-42.44339370727539,0.6184808611869812,-0.5381182432174683,0.0,0.0,0.0,0.0,0.0,0.0,0.0,0.0,0.0,-0.009079383686184883,0.004020117223262787,0.050674691796302795,0.0,0.0,0.0,0.0,0.0,0.0,0.0,0.0,0.0
1606990621445875324,3739207,1606987019507860062,imu_link,-0.002423403086140752,0.00673076743260026,-0.3619452118873596,0.9321719408035278,0.0,0.0,0.0,0.0,0.0,0.0,0.0,0.0,0.0,-42.443450927734375,0.6184733510017395,-0.5380691885948181,0.0,0.0,0.0,0.0,0.0,0.0,0.0,0.0,0.0,-0.0014275022549554706,0.009459425695240498,0.04436850547790527,0.0,0.0,0.0,0.0,0.0,0.0,0.0,0.0,0.0
1606990621629303306,3739208,1606987019520976061,imu_link,-0.002423403086140752,0.00673076743260026,-0.3619452118873596,0.9321719408035278,0.0,0.0,0.0,0.0,0.0,0.0,0.0,0.0,0.0,-42.443450927734375,0.6184733510017395,-0.5380691885948181,0.0,0.0,0.0,0.0,0.0,0.0,0.0,0.0,0.0,-0.0014275022549554706,0.009459425695240498,0.04436850547790527,0.0,0.0,0.0,0.0,0.0,0.0,0.0,0.0,0.0
1606990621629373849,3739209,1606987019521117007,imu_link,-0.002423532772809267,0.006729824934154749,-0.36194443702697754,0.9321722388267517,0.0,0.0,0.0,0.0,0.0,0.0,0.0,0.0,0.0,-42.443359375,0.6183676719665527,-0.5380434989929199,0.0,0.0,0.0,0.0,0.0,0.0,0.0,0.0,0.0,0.013062647543847561,-0.004087111447006464,0.033429309725761414,0.0,0.0,0.0,0.0,0.0,0.0,0.0,0.0,0.0
1606990621629395915,3739210,1606987019521216106,imu_link,-0.002423532772809267,0.006729824934154749,-0.36194443702697754,0.9321722388267517,0.0,0.0,0.0,0.0,0.0,0.0,0.0,0.0,0.0,-42.443359375,0.6183676719665527,-0.5380434989929199,0.0,0.0,0.0,0.0,0.0,0.0,0.0,0.0,0.0,0.013062647543847561,-0.004087111447006464,0.033429309725761414,0.0,0.0,0.0,0.0,0.0,0.0,0.0,0.0,0.0
1606990621629417053,3739211,1606987019521305839,imu_link,-0.0024236824829131365,0.006730130407959223,-0.36194586753845215,0.9321717023849487,0.0,0.0,0.0,0.0,0.0,0.0,0.0,0.0,0.0,-42.44353103637695,0.6183933019638062,-0.5380730628967285,0.0,0.0,0.0,0.0,0.0,0.0,0.0,0.0,0.0,-0.0022774003446102142,-0.01609489880502224,0.030599623918533325,0.0,0.0,0.0,0.0,0.0,0.0,0.0,0.0,0.0
1606990621680857266,3739212,1606987019521400423,imu_link,-0.0024236824829131365,0.006730130407959223,-0.36194586753845215,0.9321717023849487,0.0,0.0,0.0,0.0,0.0,0.0,0.0,0.0,0.0,-42.44353103637695,0.6183933019638062,-0.5380730628967285,0.0,0.0,0.0,0.0,0.0,0.0,0.0,0.0,0.0,-0.0022774003446102142,-0.01609489880502224,0.030599623918533325,0.0,0.0,0.0,0.0,0.0,0.0,0.0,0.0,0.0
1606990621680903480,3739213,1606987019521487109,imu_link,-0.002423818688839674,0.006729033309966326,-0.36194804310798645,0.9321708083152771,0.0,0.0,0.0,0.0,0.0,0.0,0.0,0.0,0.0,-42.44379806518555,0.618269145488739,-0.5380435585975647,0.0,0.0,0.0,0.0,0.0,0.0,0.0,0.0,0.0,-0.012299176305532455,-0.015078878961503506,0.025349700823426247,0.0,0.0,0.0,0.0,0.0,0.0,0.0,0.0,0.0
1606990621680931369,3739214,1606987019521591806,imu_link,-0.002423818688839674,0.006729033309966326,-0.36194804310798645,0.9321708083152771,0.0,0.0,0.0,0.0,0.0,0.0,0.0,0.0,0.0,-42.44379806518555,0.618269145488739,-0.5380435585975647,0.0,0.0,0.0,0.0,0.0,0.0,0.0,0.0,0.0,-0.012299176305532455,-0.015078878961503506,0.025349700823426247,0.0,0.0,0.0,0.0,0.0,0.0,0.0,0.0,0.0
1606990621680953869,3739215,1606987019521675264,imu_link,-0.002425236627459526,0.006728064268827438,-0.36194688081741333,0.9321712851524353,0.0,0.0,0.0,0.0,0.0,0.0,0.0,0.0,0.0,-42.44365692138672,0.6181075572967529,-0.5381540656089783,0.0,0.0,0.0,0.0,0.0,0.0,0.0,0.0,0.0,0.013959085568785667,-0.022519834339618683,0.02341712825000286,0.0,0.0,0.0,0.0,0.0,0.0,0.0,0.0,0.0
1606990621680984361,3739216,1606987019521756397,imu_link,-0.002425236627459526,0.006728064268827438,-0.36194688081741333,0.9321712851524353,0.0,0.0,0.0,0.0,0.0,0.0,0.0,0.0,0.0,-42.44365692138672,0.6181075572967529,-0.5381540656089783,0.0,0.0,0.0,0.0,0.0,0.0,0.0,0.0,0.0,0.013959085568785667,-0.022519834339618683,0.02341712825000286,0.0,0.0,0.0,0.0,0.0,0.0,0.0,0.0,0.0
1606990621705195894,3739217,1606987019521837925,imu_link,-0.002422646153718233,0.00673019839450717,-0.3619493246078491,0.9321703314781189,0.0,0.0,0.0,0.0,0.0,0.0,0.0,0.0,0.0,-42.44395446777344,0.6184415221214294,-0.5379675030708313,0.0,0.0,0.0,0.0,0.0,0.0,0.0,0.0,0.0,0.015193438157439232,-0.015191012062132359,0.047208286821842194,0.0,0.0,0.0,0.0,0.0,0.0,0.0,0.0,0.0
1606990621705282992,3739218,1606987019521918682,imu_link,-0.002422646153718233,0.00673019839450717,-0.3619493246078491,0.9321703314781189,0.0,0.0,0.0,0.0,0.0,0.0,0.0,0.0,0.0,-42.44395446777344,0.6184415221214294,-0.5379675030708313,0.0,0.0,0.0,0.0,0.0,0.0,0.0,0.0,0.0,0.015193438157439232,-0.015191012062132359,0.047208286821842194,0.0,0.0,0.0,0.0,0.0,0.0,0.0,0.0,0.0
1606990621705314688,3739219,1606987019534283428,imu_link,-0.002422576304525137,0.006730413995683193,-0.3619498610496521,0.9321701526641846,0.0,0.0,0.0,0.0,0.0,0.0,0.0,0.0,0.0,-42.44402313232422,0.6184671521186829,-0.5379692912101746,0.0,0.0,0.0,0.0,0.0,0.0,0.0,0.0,0.0,-0.0073926313780248165,-0.004206100013107061,0.0476246178150177,0.0,0.0,0.0,0.0,0.0,0.0,0.0,0.0,0.0
1606990621705340128,3739220,1606987019534402940,imu_link,-0.002422576304525137,0.006730413995683193,-0.3619498610496521,0.9321701526641846,0.0,0.0,0.0,0.0,0.0,0.0,0.0,0.0,0.0,-42.44402313232422,0.6184671521186829,-0.5379692912101746,0.0,0.0,0.0,0.0,0.0,0.0,0.0,0.0,0.0,-0.0073926313780248165,-0.004206100013107061,0.0476246178150177,0.0,0.0,0.0,0.0,0.0,0.0,0.0,0.0,0.0
1606990621906516935,3739221,1606987019534530410,imu_link,-0.002420312026515603,0.006728536449372768,-0.3619513511657715,0.9321696162223816,0.0,0.0,0.0,0.0,0.0,0.0,0.0,0.0,0.0,-42.44419860839844,0.6183597445487976,-0.5376504063606262,0.0,0.0,0.0,0.0,0.0,0.0,0.0,0.0,0.0,-0.0018895161338150501,-0.000825142371468246,0.04680778831243515,0.0,0.0,0.0,0.0,0.0,0.0,0.0,0.0,0.0
1606990621906558165,3739222,1606987019534612675,imu_link,-0.002420312026515603,0.006728536449372768,-0.3619513511657715,0.9321696162223816,0.0,0.0,0.0,0.0,0.0,0.0,0.0,0.0,0.0,-42.44419860839844,0.6183597445487976,-0.5376504063606262,0.0,0.0,0.0,0.0,0.0,0.0,0.0,0.0,0.0,-0.0018895161338150501,-0.000825142371468246,0.04680778831243515,0.0,0.0,0.0,0.0,0.0,0.0,0.0,0.0,0.0
1606990621906592434,3739223,1606987019534709539,imu_link,-0.0024209117982536554,0.006727838423103094,-0.3619506359100342,0.9321699142456055,0.0,0.0,0.0,0.0,0.0,0.0,0.0,0.0,0.0,-42.44411087036133,0.6182606816291809,-0.5376850962638855,0.0,0.0,0.0,0.0,0.0,0.0,0.0,0.0,0.0,-0.0006435454124584794,0.005673976149410009,0.04298034682869911,0.0,0.0,0.0,0.0,0.0,0.0,0.0,0.0,0.0
1606990621906650724,3739224,1606987019534788632,imu_link,-0.0024209117982536554,0.006727838423103094,-0.3619506359100342,0.9321699142456055,0.0,0.0,0.0,0.0,0.0,0.0,0.0,0.0,0.0,-42.44411087036133,0.6182606816291809,-0.5376850962638855,0.0,0.0,0.0,0.0,0.0,0.0,0.0,0.0,0.0,-0.0006435454124584794,0.005673976149410009,0.04298034682869911,0.0,0.0,0.0,0.0,0.0,0.0,0.0,0.0,0.0
1606990621906670180,3739225,1606987019534884700,imu_link,-0.002423799131065607,0.006726767867803574,-0.3619488775730133,0.9321705102920532,0.0,0.0,0.0,0.0,0.0,0.0,0.0,0.0,0.0,-42.443904876708984,0.6180275678634644,-0.5379480719566345,0.0,0.0,0.0,0.0,0.0,0.0,0.0,0.0,0.0,0.0031524701043963432,0.005996836349368095,0.02647736296057701,0.0,0.0,0.0,0.0,0.0,0.0,0.0,0.0,0.0
1606990621906694689,3739226,1606987019534995251,imu_link,-0.002423799131065607,0.006726767867803574,-0.3619488775730133,0.9321705102920532,0.0,0.0,0.0,0.0,0.0,0.0,0.0,0.0,0.0,-42.443904876708984,0.6180275678634644,-0.5379480719566345,0.0,0.0,0.0,0.0,0.0,0.0,0.0,0.0,0.0,0.0031524701043963432,0.005996836349368095,0.02647736296057701,0.0,0.0,0.0,0.0,0.0,0.0,0.0,0.0,0.0
1606990621906711922,3739227,1606987019535080503,imu_link,-0.002424069447442889,0.006726100109517574,-0.3619460463523865,0.9321715831756592,0.0,0.0,0.0,0.0,0.0,0.0,0.0,0.0,0.0,-42.44355010986328,0.6179466247558594,-0.5379472970962524,0.0,0.0,0.0,0.0,0.0,0.0,0.0,0.0,0.0,-0.01459193229675293,0.003014282789081335,0.057272713631391525,0.0,0.0,0.0,0.0,0.0,0.0,0.0,0.0,0.0
1606990621906735499,3739228,1606987019535169514,imu_link,-0.002424069447442889,0.006726100109517574,-0.3619460463523865,0.9321715831756592,0.0,0.0,0.0,0.0,0.0,0.0,0.0,0.0,0.0,-42.44355010986328,0.6179466247558594,-0.5379472970962524,0.0,0.0,0.0,0.0,0.0,0.0,0.0,0.0,0.0,-0.01459193229675293,0.003014282789081335,0.057272713631391525,0.0,0.0,0.0,0.0,0.0,0.0,0.0,0.0,0.0
1606990621906771411,3739229,1606987019535247389,imu_link,-0.0024250850547105074,0.006724102422595024,-0.3619445860385895,0.9321722984313965,0.0,0.0,0.0,0.0,0.0,0.0,0.0,0.0,0.0,-42.44336700439453,0.6176919937133789,-0.5379719138145447,0.0,0.0,0.0,0.0,0.0,0.0,0.0,0.0,0.0,-0.015633637085556984,0.0022401073947548866,0.07473120838403702,0.0,0.0,0.0,0.0,0.0,0.0,0.0,0.0,0.0
1606990621906793396,3739230,1606987019548156596,imu_link,-0.0024250850547105074,0.006724102422595024,-0.3619445860385895,0.9321722984313965,0.0,0.0,0.0,0.0,0.0,0.0,0.0,0.0,0.0,-42.44336700439453,0.6176919937133789,-0.5379719138145447,0.0,0.0,0.0,0.0,0.0,0.0,0.0,0.0,0.0,-0.015633637085556984,0.0022401073947548866,0.07473120838403702,0.0,0.0,0.0,0.0,0.0,0.0,0.0,0.0,0.0
1606990621906814285,3739231,1606987019548201867,imu_link,-0.00242352276109159,0.0067244949750602245,-0.36194440722465515,0.9321722388267517,0.0,0.0,0.0,0.0,0.0,0.0,0.0,0.0,0.0,-42.4433479309082,0.6177987456321716,-0.5378212928771973,0.0,0.0,0.0,0.0,0.0,0.0,0.0,0.0,0.0,0.010820857249200344,-1.184362918138504e-05,0.055312298238277435,0.0,0.0,0.0,0.0,0.0,0.0,0.0,0.0,0.0
1606990621906827152,3739232,1606987019548225054,imu_link,-0.00242352276109159,0.0067244949750602245,-0.36194440722465515,0.9321722388267517,0.0,0.0,0.0,0.0,0.0,0.0,0.0,0.0,0.0,-42.4433479309082,0.6177987456321716,-0.5378212928771973,0.0,0.0,0.0,0.0,0.0,0.0,0.0,0.0,0.0,0.010820857249200344,-1.184362918138504e-05,0.055312298238277435,0.0,0.0,0.0,0.0,0.0,0.0,0.0,0.0,0.0
1606990621906838765,3739233,1606987019548248404,imu_link,-0.002423639642074704,0.006724277511239052,-0.36194533109664917,0.9321718811988831,0.0,0.0,0.0,0.0,0.0,0.0,0.0,0.0,0.0,-42.44346237182617,0.6177700757980347,-0.537825345993042,0.0,0.0,0.0,0.0,0.0,0.0,0.0,0.0,0.0,0.01008897926658392,0.0005453628255054355,0.05068574473261833,0.0,0.0,0.0,0.0,0.0,0.0,0.0,0.0,0.0
1606990621906875237,3739234,1606987019548272285,imu_link,-0.002423639642074704,0.006724277511239052,-0.36194533109664917,0.9321718811988831,0.0,0.0,0.0,0.0,0.0,0.0,0.0,0.0,0.0,-42.44346237182617,0.6177700757980347,-0.537825345993042,0.0,0.0,0.0,0.0,0.0,0.0,0.0,0.0,0.0,0.01008897926658392,0.0005453628255054355,0.05068574473261833,0.0,0.0,0.0,0.0,0.0,0.0,0.0,0.0,0.0
1606990621906902233,3739235,1606987019548294645,imu_link,-0.002424212172627449,0.006725763436406851,-0.3619455397129059,0.9321718215942383,0.0,0.0,0.0,0.0,0.0,0.0,0.0,0.0,0.0,-42.44348907470703,0.6179049611091614,-0.5379483103752136,0.0,0.0,0.0,0.0,0.0,0.0,0.0,0.0,0.0,0.002398498822003603,-0.00673289829865098,0.06083999574184418,0.0,0.0,0.0,0.0,0.0,0.0,0.0,0.0,0.0
1606990621906965544,3739236,1606987019548322952,imu_link,-0.002424212172627449,0.006725763436406851,-0.3619455397129059,0.9321718215942383,0.0,0.0,0.0,0.0,0.0,0.0,0.0,0.0,0.0,-42.44348907470703,0.6179049611091614,-0.5379483103752136,0.0,0.0,0.0,0.0,0.0,0.0,0.0,0.0,0.0,0.002398498822003603,-0.00673289829865098,0.06083999574184418,0.0,0.0,0.0,0.0,0.0,0.0,0.0,0.0,0.0
1606990621906995067,3739237,1606987019548346150,imu_link,-0.0024233313743025064,0.006726413499563932,-0.36194440722465515,0.9321722984313965,0.0,0.0,0.0,0.0,0.0,0.0,0.0,0.0,0.0,-42.4433479309082,0.6180117130279541,-0.5378803610801697,0.0,0.0,0.0,0.0,0.0,0.0,0.0,0.0,0.0,0.00038257037522271276,-0.0053144292905926704,0.06630814075469971,0.0,0.0,0.0,0.0,0.0,0.0,0.0,0.0,0.0
1606990621907044421,3739238,1606987019548368898,imu_link,-0.0024233313743025064,0.006726413499563932,-0.36194440722465515,0.9321722984313965,0.0,0.0,0.0,0.0,0.0,0.0,0.0,0.0,0.0,-42.4433479309082,0.6180117130279541,-0.5378803610801697,0.0,0.0,0.0,0.0,0.0,0.0,0.0,0.0,0.0,0.00038257037522271276,-0.0053144292905926704,0.06630814075469971,0.0,0.0,0.0,0.0,0.0,0.0,0.0,0.0,0.0
1606990621907060354,3739239,1606987019548391317,imu_link,-0.0024240296334028244,0.00672610430046916,-0.36194419860839844,0.9321723580360413,0.0,0.0,0.0,0.0,0.0,0.0,0.0,0.0,0.0,-42.443321228027344,0.6179497838020325,-0.5379420518875122,0.0,0.0,0.0,0.0,0.0,0.0,0.0,0.0,0.0,-0.006255059503018856,0.02659246325492859,0.04090350121259689,0.0,0.0,0.0,0.0,0.0,0.0,0.0,0.0,0.0
1606990621907082893,3739240,1606987019548412851,imu_link,-0.0024240296334028244,0.00672610430046916,-0.36194419860839844,0.9321723580360413,0.0,0.0,0.0,0.0,0.0,0.0,0.0,0.0,0.0,-42.443321228027344,0.6179497838020325,-0.5379420518875122,0.0,0.0,0.0,0.0,0.0,0.0,0.0,0.0,0.0,-0.006255059503018856,0.02659246325492859,0.04090350121259689,0.0,0.0,0.0,0.0,0.0,0.0,0.0,0.0,0.0
1606990621907092042,3739241,1606987019561680108,imu_link,-0.0024280392099171877,0.006724879145622253,-0.36194366216659546,0.9321725964546204,0.0,0.0,0.0,0.0,0.0,0.0,0.0,0.0,0.0,-42.44325637817383,0.617652952671051,-0.5383191108703613,0.0,0.0,0.0,0.0,0.0,0.0,0.0,0.0,0.0,-0.014614175073802471,0.027045806869864464,0.03682154789566994,0.0,0.0,0.0,0.0,0.0,0.0,0.0,0.0,0.0
1606990621907114317,3739242,1606987019561750295,imu_link,-0.0024280392099171877,0.006724879145622253,-0.36194366216659546,0.9321725964546204,0.0,0.0,0.0,0.0,0.0,0.0,0.0,0.0,0.0,-42.44325637817383,0.617652952671051,-0.5383191108703613,0.0,0.0,0.0,0.0,0.0,0.0,0.0,0.0,0.0,-0.014614175073802471,0.027045806869864464,0.03682154789566994,0.0,0.0,0.0,0.0,0.0,0.0,0.0,0.0,0.0
1606990621913805212,3739243,1606987019561801589,imu_link,-0.002429395681247115,0.006724572274833918,-0.3619441092014313,0.932172417640686,0.0,0.0,0.0,0.0,0.0,0.0,0.0,0.0,0.0,-42.44331359863281,0.6175636053085327,-0.538451611995697,0.0,0.0,0.0,0.0,0.0,0.0,0.0,0.0,0.0,-0.005550713278353214,-0.004291730932891369,0.06104901060461998,0.0,0.0,0.0,0.0,0.0,0.0,0.0,0.0,0.0
1606990621913841830,3739244,1606987019561841146,imu_link,-0.002429395681247115,0.006724572274833918,-0.3619441092014313,0.932172417640686,0.0,0.0,0.0,0.0,0.0,0.0,0.0,0.0,0.0,-42.44331359863281,0.6175636053085327,-0.538451611995697,0.0,0.0,0.0,0.0,0.0,0.0,0.0,0.0,0.0,-0.005550713278353214,-0.004291730932891369,0.06104901060461998,0.0,0.0,0.0,0.0,0.0,0.0,0.0,0.0,0.0
1606990621913855831,3739245,1606987019561879329,imu_link,-0.002430698834359646,0.006721527315676212,-0.361945778131485,0.9321718215942383,0.0,0.0,0.0,0.0,0.0,0.0,0.0,0.0,0.0,-42.44351577758789,0.6171833872795105,-0.5384655594825745,0.0,0.0,0.0,0.0,0.0,0.0,0.0,0.0,0.0,0.00048272620188072324,-0.012316037900745869,0.050467975437641144,0.0,0.0,0.0,0.0,0.0,0.0,0.0,0.0,0.0
1606990621913870812,3739246,1606987019561927002,imu_link,-0.002430698834359646,0.006721527315676212,-0.361945778131485,0.9321718215942383,0.0,0.0,0.0,0.0,0.0,0.0,0.0,0.0,0.0,-42.44351577758789,0.6171833872795105,-0.5384655594825745,0.0,0.0,0.0,0.0,0.0,0.0,0.0,0.0,0.0,0.00048272620188072324,-0.012316037900745869,0.050467975437641144,0.0,0.0,0.0,0.0,0.0,0.0,0.0,0.0,0.0
1606990621913883593,3739247,1606987019561964900,imu_link,-0.002431034343317151,0.006720066536217928,-0.36194324493408203,0.9321727752685547,0.0,0.0,0.0,0.0,0.0,0.0,0.0,0.0,0.0,-42.44320297241211,0.6170148849487305,-0.5384390950202942,0.0,0.0,0.0,0.0,0.0,0.0,0.0,0.0,0.0,-0.0038138101808726788,-0.0070294770412147045,0.04294135421514511,0.0,0.0,0.0,0.0,0.0,0.0,0.0,0.0,0.0
1606990621949319069,3739248,1606987019562008706,imu_link,-0.002431034343317151,0.006720066536217928,-0.36194324493408203,0.9321727752685547,0.0,0.0,0.0,0.0,0.0,0.0,0.0,0.0,0.0,-42.44320297241211,0.6170148849487305,-0.5384390950202942,0.0,0.0,0.0,0.0,0.0,0.0,0.0,0.0,0.0,-0.0038138101808726788,-0.0070294770412147045,0.04294135421514511,0.0,0.0,0.0,0.0,0.0,0.0,0.0,0.0,0.0
1606990621949335459,3739249,1606987019562046012,imu_link,-0.002430352848023176,0.00671931728720665,-0.3619437515735626,0.9321725964546204,0.0,0.0,0.0,0.0,0.0,0.0,0.0,0.0,0.0,-42.443260192871094,0.6169627904891968,-0.5383355021476746,0.0,0.0,0.0,0.0,0.0,0.0,0.0,0.0,0.0,0.003580688498914242,9.038083953782916e-05,0.027451764792203903,0.0,0.0,0.0,0.0,0.0,0.0,0.0,0.0,0.0
1606990621949343711,3739250,1606987019562081614,imu_link,-0.002430352848023176,0.00671931728720665,-0.3619437515735626,0.9321725964546204,0.0,0.0,0.0,0.0,0.0,0.0,0.0,0.0,0.0,-42.443260192871094,0.6169627904891968,-0.5383355021476746,0.0,0.0,0.0,0.0,0.0,0.0,0.0,0.0,0.0,0.003580688498914242,9.038083953782916e-05,0.027451764792203903,0.0,0.0,0.0,0.0,0.0,0.0,0.0,0.0,0.0
1606990621949348515,3739251,1606987019562118229,imu_link,-0.0024312776513397694,0.0067176553420722485,-0.36194291710853577,0.932172954082489,0.0,0.0,0.0,0.0,0.0,0.0,0.0,0.0,0.0,-42.443153381347656,0.6167473793029785,-0.538364827632904,0.0,0.0,0.0,0.0,0.0,0.0,0.0,0.0,0.0,-0.0006452150992117822,-0.007003051228821278,0.030258147045969963,0.0,0.0,0.0,0.0,0.0,0.0,0.0,0.0,0.0
