%time,field.header.seq,field.header.stamp,field.header.frame_id,field.orientation.x,field.orientation.y,field.orientation.z,field.orientation.w,field.orientation_covariance0,field.orientation_covariance1,field.orientation_covariance2,field.orientation_covariance3,field.orientation_covariance4,field.orientation_covariance5,field.orientation_covariance6,field.orientation_covariance7,field.orientation_covariance8,field.angular_velocity.x,field.angular_velocity.y,field.angular_velocity.z,field.angular_velocity_covariance0,field.angular_velocity_covariance1,field.angular_velocity_covariance2,field.angular_velocity_covariance3,field.angular_velocity_covariance4,field.angular_velocity_covariance5,field.angular_velocity_covariance6,field.angular_velocity_covariance7,field.angular_velocity_covariance8,field.linear_acceleration.x,field.linear_acceleration.y,field.linear_acceleration.z,field.linear_acceleration_covariance0,field.linear_acceleration_covariance1,field.linear_acceleration_covariance2,field.linear_acceleration_covariance3,field.linear_acceleration_covariance4,field.linear_acceleration_covariance5,field.linear_acceleration_covariance6,field.linear_acceleration_covariance7,field.linear_acceleration_covariance8
1606990754353246067,3846553,1606987153701484843,imu_link,-0.004881918430328369,0.0046828375197947025,-0.3231225907802582,0.9463329315185547,0.0,0.0,0.0,0.0,0.0,0.0,0.0,0.0,0.0,-37.706642150878906,0.3270535469055176,-0.7028248906135559,0.0,0.0,0.0,0.0,0.0,0.0,0.0,0.0,0.0,0.006761502008885145,0.004847571719437838,0.07132593542337418,0.0,0.0,0.0,0.0,0.0,0.0,0.0,0.0,0.0
1606990754353263396,3846554,1606987153701615415,imu_link,-0.004881918430328369,0.0046828375197947025,-0.3231225907802582,0.9463329315185547,0.0,0.0,0.0,0.0,0.0,0.0,0.0,0.0,0.0,-37.706642150878906,0.3270535469055176,-0.7028248906135559,0.0,0.0,0.0,0.0,0.0,0.0,0.0,0.0,0.0,0.006761502008885145,0.004847571719437838,0.07132593542337418,0.0,0.0,0.0,0.0,0.0,0.0,0.0,0.0,0.0
1606990754353269599,3846555,1606987153701698312,imu_link,-0.0048808809369802475,0.0046813697554171085,-0.32312315702438354,0.9463327527046204,0.0,0.0,0.0,0.0,0.0,0.0,0.0,0.0,0.0,-37.70671081542969,0.3269323408603668,-0.7026582956314087,0.0,0.0,0.0,0.0,0.0,0.0,0.0,0.0,0.0,-0.0008373534074053168,0.006198722403496504,0.05197208374738693,0.0,0.0,0.0,0.0,0.0,0.0,0.0,0.0,0.0
1606990754353278356,3846556,1606987153701776754,imu_link,-0.0048808809369802475,0.0046813697554171085,-0.32312315702438354,0.9463327527046204,0.0,0.0,0.0,0.0,0.0,0.0,0.0,0.0,0.0,-37.70671081542969,0.3269323408603668,-0.7026582956314087,0.0,0.0,0.0,0.0,0.0,0.0,0.0,0.0,0.0,-0.0008373534074053168,0.006198722403496504,0.05197208374738693,0.0,0.0,0.0,0.0,0.0,0.0,0.0,0.0,0.0
1606990754359905824,3846557,1606987153701876489,imu_link,-0.00488247349858284,0.004684016574174166,-0.3231264650821686,0.9463316202163696,0.0,0.0,0.0,0.0,0.0,0.0,0.0,0.0,0.0,-37.70710754394531,0.32715800404548645,-0.7029300332069397,0.0,0.0,0.0,0.0,0.0,0.0,0.0,0.0,0.0,-0.013774827122688293,0.022244855761528015,0.06279059499502182,0.0,0.0,0.0,0.0,0.0,0.0,0.0,0.0,0.0
1606990754359921505,3846558,1606987153701956189,imu_link,-0.00488247349858284,0.004684016574174166,-0.3231264650821686,0.9463316202163696,0.0,0.0,0.0,0.0,0.0,0.0,0.0,0.0,0.0,-37.70710754394531,0.32715800404548645,-0.7029300332069397,0.0,0.0,0.0,0.0,0.0,0.0,0.0,0.0,0.0,-0.013774827122688293,0.022244855761528015,0.06279059499502182,0.0,0.0,0.0,0.0,0.0,0.0,0.0,0.0,0.0
1606990754359927100,3846559,1606987153702040930,imu_link,-0.00488334009423852,0.004684667102992535,-0.32312390208244324,0.9463325142860413,0.0,0.0,0.0,0.0,0.0,0.0,0.0,0.0,0.0,-37.70680236816406,0.3271983563899994,-0.7030472755432129,0.0,0.0,0.0,0.0,0.0,0.0,0.0,0.0,0.0,-0.004078265279531479,0.014314541593194008,0.07622058689594269,0.0,0.0,0.0,0.0,0.0,0.0,0.0,0.0,0.0
1606990754359966965,3846560,1606987153702122018,imu_link,-0.00488334009423852,0.004684667102992535,-0.32312390208244324,0.9463325142860413,0.0,0.0,0.0,0.0,0.0,0.0,0.0,0.0,0.0,-37.70680236816406,0.3271983563899994,-0.7030472755432129,0.0,0.0,0.0,0.0,0.0,0.0,0.0,0.0,0.0,-0.004078265279531479,0.014314541593194008,0.07622058689594269,0.0,0.0,0.0,0.0,0.0,0.0,0.0,0.0,0.0
1606990754404231668,3846561,1606987153702216667,imu_link,-0.0048846956342458725,0.0046845912002027035,-0.32313019037246704,0.9463303685188293,0.0,0.0,0.0,0.0,0.0,0.0,0.0,0.0,0.0,-37.70756149291992,0.327135294675827,-0.7031935453414917,0.0,0.0,0.0,0.0,0.0,0.0,0.0,0.0,0.0,-0.006486004684120417,-0.0029481954406946898,0.07758492231369019,0.0,0.0,0.0,0.0,0.0,0.0,0.0,0.0,0.0
1606990754404265606,3846562,1606987153715057614,imu_link,-0.0048846956342458725,0.0046845912002027035,-0.32313019037246704,0.9463303685188293,0.0,0.0,0.0,0.0,0.0,0.0,0.0,0.0,0.0,-37.70756149291992,0.327135294675827,-0.7031935453414917,0.0,0.0,0.0,0.0,0.0,0.0,0.0,0.0,0.0,-0.006486004684120417,-0.0029481954406946898,0.07758492231369019,0.0,0.0,0.0,0.0,0.0,0.0,0.0,0.0,0.0
1606990754404281521,3846563,1606987153715118211,imu_link,-0.004884936846792698,0.004683478735387325,-0.3231300413608551,0.9463304281234741,0.0,0.0,0.0,0.0,0.0,0.0,0.0,0.0,0.0,-37.70754623413086,0.3270058333873749,-0.7031785845756531,0.0,0.0,0.0,0.0,0.0,0.0,0.0,0.0,0.0,-0.0009816242381930351,-0.006970901507884264,0.04859265312552452,0.0,0.0,0.0,0.0,0.0,0.0,0.0,0.0,0.0
1606990754404322997,3846564,1606987153715151016,imu_link,-0.004884936846792698,0.004683478735387325,-0.3231300413608551,0.9463304281234741,0.0,0.0,0.0,0.0,0.0,0.0,0.0,0.0,0.0,-37.70754623413086,0.3270058333873749,-0.7031785845756531,0.0,0.0,0.0,0.0,0.0,0.0,0.0,0.0,0.0,-0.0009816242381930351,-0.006970901507884264,0.04859265312552452,0.0,0.0,0.0,0.0,0.0,0.0,0.0,0.0,0.0
1606990754404340210,3846565,1606987153715181748,imu_link,-0.004883739165961742,0.004683040082454681,-0.3231278657913208,0.9463312029838562,0.0,0.0,0.0,0.0,0.0,0.0,0.0,0.0,0.0,-37.707275390625,0.32700422406196594,-0.7030316591262817,0.0,0.0,0.0,0.0,0.0,0.0,0.0,0.0,0.0,0.01845662109553814,-0.013434034772217274,0.026955801993608475,0.0,0.0,0.0,0.0,0.0,0.0,0.0,0.0,0.0
1606990754404384466,3846566,1606987153715211226,imu_link,-0.004883739165961742,0.004683040082454681,-0.3231278657913208,0.9463312029838562,0.0,0.0,0.0,0.0,0.0,0.0,0.0,0.0,0.0,-37.707275390625,0.32700422406196594,-0.7030316591262817,0.0,0.0,0.0,0.0,0.0,0.0,0.0,0.0,0.0,0.01845662109553814,-0.013434034772217274,0.026955801993608475,0.0,0.0,0.0,0.0,0.0,0.0,0.0,0.0,0.0
1606990754404402764,3846567,1606987153715240406,imu_link,-0.004883973393589258,0.00468083843588829,-0.32312721014022827,0.9463313221931458,0.0,0.0,0.0,0.0,0.0,0.0,0.0,0.0,0.0,-37.70719909667969,0.32675719261169434,-0.702975332736969,0.0,0.0,0.0,0.0,0.0,0.0,0.0,0.0,0.0,0.009492071345448494,-0.019372891634702682,0.04934336245059967,0.0,0.0,0.0,0.0,0.0,0.0,0.0,0.0,0.0
1606990754404412928,3846568,1606987153715276788,imu_link,-0.004883973393589258,0.00468083843588829,-0.32312721014022827,0.9463313221931458,0.0,0.0,0.0,0.0,0.0,0.0,0.0,0.0,0.0,-37.70719909667969,0.32675719261169434,-0.702975332736969,0.0,0.0,0.0,0.0,0.0,0.0,0.0,0.0,0.0,0.009492071345448494,-0.019372891634702682,0.04934336245059967,0.0,0.0,0.0,0.0,0.0,0.0,0.0,0.0,0.0
1606990754404443634,3846569,1606987153715314966,imu_link,-0.004881370812654495,0.004681907128542662,-0.32312554121017456,0.9463319182395935,0.0,0.0,0.0,0.0,0.0,0.0,0.0,0.0,0.0,-37.707000732421875,0.32697075605392456,-0.7027321457862854,0.0,0.0,0.0,0.0,0.0,0.0,0.0,0.0,0.0,-0.00667550228536129,-0.0021254161838442087,0.0485767163336277,0.0,0.0,0.0,0.0,0.0,0.0,0.0,0.0,0.0
1606990754404469552,3846570,1606987153715347941,imu_link,-0.004881370812654495,0.004681907128542662,-0.32312554121017456,0.9463319182395935,0.0,0.0,0.0,0.0,0.0,0.0,0.0,0.0,0.0,-37.707000732421875,0.32697075605392456,-0.7027321457862854,0.0,0.0,0.0,0.0,0.0,0.0,0.0,0.0,0.0,-0.00667550228536129,-0.0021254161838442087,0.0485767163336277,0.0,0.0,0.0,0.0,0.0,0.0,0.0,0.0,0.0
1606990754404485973,3846571,1606987153715380383,imu_link,-0.004882729146629572,0.004680970683693886,-0.32312533259391785,0.9463320374488831,0.0,0.0,0.0,0.0,0.0,0.0,0.0,0.0,0.0,-37.706974029541016,0.3268190324306488,-0.702844500541687,0.0,0.0,0.0,0.0,0.0,0.0,0.0,0.0,0.0,-0.008466960862278938,0.017743248492479324,0.038308385759592056,0.0,0.0,0.0,0.0,0.0,0.0,0.0,0.0,0.0
1606990754404496802,3846572,1606987153715412552,imu_link,-0.004882729146629572,0.004680970683693886,-0.32312533259391785,0.9463320374488831,0.0,0.0,0.0,0.0,0.0,0.0,0.0,0.0,0.0,-37.706974029541016,0.3268190324306488,-0.702844500541687,0.0,0.0,0.0,0.0,0.0,0.0,0.0,0.0,0.0,-0.008466960862278938,0.017743248492479324,0.038308385759592056,0.0,0.0,0.0,0.0,0.0,0.0,0.0,0.0,0.0
1606990754404505136,3846573,1606987153728355905,imu_link,-0.004887938033789396,0.004681185819208622,-0.32312795519828796,0.9463310837745667,0.0,0.0,0.0,0.0,0.0,0.0,0.0,0.0,0.0,-37.70729446411133,0.32664754986763,-0.7034184336662292,0.0,0.0,0.0,0.0,0.0,0.0,0.0,0.0,0.0,-0.006718848366290331,0.019877955317497253,0.02385617420077324,0.0,0.0,0.0,0.0,0.0,0.0,0.0,0.0,0.0
1606990754404516752,3846574,1606987153728417272,imu_link,-0.004887938033789396,0.004681185819208622,-0.32312795519828796,0.9463310837745667,0.0,0.0,0.0,0.0,0.0,0.0,0.0,0.0,0.0,-37.70729446411133,0.32664754986763,-0.7034184336662292,0.0,0.0,0.0,0.0,0.0,0.0,0.0,0.0,0.0,-0.006718848366290331,0.019877955317497253,0.02385617420077324,0.0,0.0,0.0,0.0,0.0,0.0,0.0,0.0,0.0
1606990754404525883,3846575,1606987153728451048,imu_link,-0.004890094511210918,0.004681425169110298,-0.32312873005867004,0.9463307857513428,0.0,0.0,0.0,0.0,0.0,0.0,0.0,0.0,0.0,-37.7073860168457,0.3265930414199829,-0.7036613821983337,0.0,0.0,0.0,0.0,0.0,0.0,0.0,0.0,0.0,0.009471188299357891,0.0017549785552546382,0.019184162840247154,0.0,0.0,0.0,0.0,0.0,0.0,0.0,0.0,0.0
1606990754404542159,3846576,1606987153728481158,imu_link,-0.004890094511210918,0.004681425169110298,-0.32312873005867004,0.9463307857513428,0.0,0.0,0.0,0.0,0.0,0.0,0.0,0.0,0.0,-37.7073860168457,0.3265930414199829,-0.7036613821983337,0.0,0.0,0.0,0.0,0.0,0.0,0.0,0.0,0.0,0.009471188299357891,0.0017549785552546382,0.019184162840247154,0.0,0.0,0.0,0.0,0.0,0.0,0.0,0.0,0.0
1606990754404559264,3846577,1606987153728528568,imu_link,-0.0048881215043365955,0.0046838438138365746,-0.3231349289417267,0.9463286995887756,0.0,0.0,0.0,0.0,0.0,0.0,0.0,0.0,0.0,-37.708133697509766,0.32692378759384155,-0.7035390734672546,0.0,0.0,0.0,0.0,0.0,0.0,0.0,0.0,0.0,0.012406817637383938,-0.019998375326395035,0.021684490144252777,0.0,0.0,0.0,0.0,0.0,0.0,0.0,0.0,0.0
1606990754404568120,3846578,1606987153728566547,imu_link,-0.0048881215043365955,0.0046838438138365746,-0.3231349289417267,0.9463286995887756,0.0,0.0,0.0,0.0,0.0,0.0,0.0,0.0,0.0,-37.708133697509766,0.32692378759384155,-0.7035390734672546,0.0,0.0,0.0,0.0,0.0,0.0,0.0,0.0,0.0,0.012406817637383938,-0.019998375326395035,0.021684490144252777,0.0,0.0,0.0,0.0,0.0,0.0,0.0,0.0,0.0
1606990754417396253,3846579,1606987153728600431,imu_link,-0.0048865750432014465,0.004684401210397482,-0.3231343626976013,0.9463289380073547,0.0,0.0,0.0,0.0,0.0,0.0,0.0,0.0,0.0,-37.708072662353516,0.32704201340675354,-0.7033918499946594,0.0,0.0,0.0,0.0,0.0,0.0,0.0,0.0,0.0,0.00398613465949893,-0.011563601903617382,0.037676457315683365,0.0,0.0,0.0,0.0,0.0,0.0,0.0,0.0,0.0
1606990754417424077,3846580,1606987153728628197,imu_link,-0.0048865750432014465,0.004684401210397482,-0.3231343626976013,0.9463289380073547,0.0,0.0,0.0,0.0,0.0,0.0,0.0,0.0,0.0,-37.708072662353516,0.32704201340675354,-0.7033918499946594,0.0,0.0,0.0,0.0,0.0,0.0,0.0,0.0,0.0,0.00398613465949893,-0.011563601903617382,0.037676457315683365,0.0,0.0,0.0,0.0,0.0,0.0,0.0,0.0,0.0
1606990754420062821,3846581,1606987153728659243,imu_link,-0.004884469788521528,0.004684481769800186,-0.32313093543052673,0.9463300704956055,0.0,0.0,0.0,0.0,0.0,0.0,0.0,0.0,0.0,-37.70765686035156,0.3271312117576599,-0.7031652927398682,0.0,0.0,0.0,0.0,0.0,0.0,0.0,0.0,0.0,0.003320096293464303,-0.003928754478693008,0.055619873106479645,0.0,0.0,0.0,0.0,0.0,0.0,0.0,0.0,0.0
1606990754420087061,3846582,1606987153728691110,imu_link,-0.004884469788521528,0.004684481769800186,-0.32313093543052673,0.9463300704956055,0.0,0.0,0.0,0.0,0.0,0.0,0.0,0.0,0.0,-37.70765686035156,0.3271312117576599,-0.7031652927398682,0.0,0.0,0.0,0.0,0.0,0.0,0.0,0.0,0.0,0.003320096293464303,-0.003928754478693008,0.055619873106479645,0.0,0.0,0.0,0.0,0.0,0.0,0.0,0.0,0.0
1606990754420148166,3846583,1606987153728719358,imu_link,-0.004884819034487009,0.004685542080551386,-0.32313072681427,0.9463301301002502,0.0,0.0,0.0,0.0,0.0,0.0,0.0,0.0,0.0,-37.70762634277344,0.32723337411880493,-0.7032423615455627,0.0,0.0,0.0,0.0,0.0,0.0,0.0,0.0,0.0,0.014200618490576744,0.00765899708494544,0.041710492223501205,0.0,0.0,0.0,0.0,0.0,0.0,0.0,0.0,0.0
1606990754420164629,3846584,1606987153741300996,imu_link,-0.004884819034487009,0.004685542080551386,-0.32313072681427,0.9463301301002502,0.0,0.0,0.0,0.0,0.0,0.0,0.0,0.0,0.0,-37.70762634277344,0.32723337411880493,-0.7032423615455627,0.0,0.0,0.0,0.0,0.0,0.0,0.0,0.0,0.0,0.014200618490576744,0.00765899708494544,0.041710492223501205,0.0,0.0,0.0,0.0,0.0,0.0,0.0,0.0,0.0
1606990754425264282,3846585,1606987153741359258,imu_link,-0.004885336384177208,0.004687892273068428,-0.3231273293495178,0.946331262588501,0.0,0.0,0.0,0.0,0.0,0.0,0.0,0.0,0.0,-37.707218170166016,0.32747161388397217,-0.7033843994140625,0.0,0.0,0.0,0.0,0.0,0.0,0.0,0.0,0.0,0.02012832649052143,0.008255610242486,0.04178420454263687,0.0,0.0,0.0,0.0,0.0,0.0,0.0,0.0,0.0
1606990754425331978,3846586,1606987153741391887,imu_link,-0.004885336384177208,0.004687892273068428,-0.3231273293495178,0.946331262588501,0.0,0.0,0.0,0.0,0.0,0.0,0.0,0.0,0.0,-37.707218170166016,0.32747161388397217,-0.7033843994140625,0.0,0.0,0.0,0.0,0.0,0.0,0.0,0.0,0.0,0.02012832649052143,0.008255610242486,0.04178420454263687,0.0,0.0,0.0,0.0,0.0,0.0,0.0,0.0,0.0
1606990754425363952,3846587,1606987153741421548,imu_link,-0.004886169917881489,0.004689428955316544,-0.32312801480293274,0.9463310837745667,0.0,0.0,0.0,0.0,0.0,0.0,0.0,0.0,0.0,-37.70730209350586,0.3276069164276123,-0.7035319805145264,0.0,0.0,0.0,0.0,0.0,0.0,0.0,0.0,0.0,0.013483729213476181,-0.015936223790049553,0.05022286996245384,0.0,0.0,0.0,0.0,0.0,0.0,0.0,0.0,0.0
1606990754425378829,3846588,1606987153741450745,imu_link,-0.004886169917881489,0.004689428955316544,-0.32312801480293274,0.9463310837745667,0.0,0.0,0.0,0.0,0.0,0.0,0.0,0.0,0.0,-37.70730209350586,0.3276069164276123,-0.7035319805145264,0.0,0.0,0.0,0.0,0.0,0.0,0.0,0.0,0.0,0.013483729213476181,-0.015936223790049553,0.05022286996245384,0.0,0.0,0.0,0.0,0.0,0.0,0.0,0.0,0.0
1606990754425388838,3846589,1606987153741493820,imu_link,-0.004882946144789457,0.004689991008490324,-0.32313016057014465,0.9463303685188293,0.0,0.0,0.0,0.0,0.0,0.0,0.0,0.0,0.0,-37.70756149291992,0.3277856409549713,-0.7032038569450378,0.0,0.0,0.0,0.0,0.0,0.0,0.0,0.0,0.0,0.021687623113393784,-0.01551384199410677,0.05211016908288002,0.0,0.0,0.0,0.0,0.0,0.0,0.0,0.0,0.0
1606990754425407372,3846590,1606987153741525795,imu_link,-0.004882946144789457,0.004689991008490324,-0.32313016057014465,0.9463303685188293,0.0,0.0,0.0,0.0,0.0,0.0,0.0,0.0,0.0,-37.70756149291992,0.3277856409549713,-0.7032038569450378,0.0,0.0,0.0,0.0,0.0,0.0,0.0,0.0,0.0,0.021687623113393784,-0.01551384199410677,0.05211016908288002,0.0,0.0,0.0,0.0,0.0,0.0,0.0,0.0,0.0
1606990754425420311,3846591,1606987153741557388,imu_link,-0.004884006455540657,0.004689885303378105,-0.32313084602355957,0.9463301301002502,0.0,0.0,0.0,0.0,0.0,0.0,0.0,0.0,0.0,-37.70764923095703,0.3277343511581421,-0.7033151984214783,0.0,0.0,0.0,0.0,0.0,0.0,0.0,0.0,0.0,0.011346517130732536,-0.0013464258518069983,0.06036904826760292,0.0,0.0,0.0,0.0,0.0,0.0,0.0,0.0,0.0
1606990754425437344,3846592,1606987153741589373,imu_link,-0.004884006455540657,0.004689885303378105,-0.32313084602355957,0.9463301301002502,0.0,0.0,0.0,0.0,0.0,0.0,0.0,0.0,0.0,-37.70764923095703,0.3277343511581421,-0.7033151984214783,0.0,0.0,0.0,0.0,0.0,0.0,0.0,0.0,0.0,0.011346517130732536,-0.0013464258518069983,0.06036904826760292,0.0,0.0,0.0,0.0,0.0,0.0,0.0,0.0,0.0
1606990754425488356,3846593,1606987153741622356,imu_link,-0.00488313939422369,0.004691535606980324,-0.3231317400932312,0.9463298320770264,0.0,0.0,0.0,0.0,0.0,0.0,0.0,0.0,0.0,-37.70775604248047,0.3279447555541992,-0.7032825350761414,0.0,0.0,0.0,0.0,0.0,0.0,0.0,0.0,0.0,-0.0023901527747511864,0.001086721196770668,0.0641973689198494,0.0,0.0,0.0,0.0,0.0,0.0,0.0,0.0,0.0
1606990754463368548,3846594,1606987153755026853,imu_link,-0.00488313939422369,0.004691535606980324,-0.3231317400932312,0.9463298320770264,0.0,0.0,0.0,0.0,0.0,0.0,0.0,0.0,0.0,-37.70775604248047,0.3279447555541992,-0.7032825350761414,0.0,0.0,0.0,0.0,0.0,0.0,0.0,0.0,0.0,-0.0023901527747511864,0.001086721196770668,0.0641973689198494,0.0,0.0,0.0,0.0,0.0,0.0,0.0,0.0,0.0
1606990754463395652,3846595,1606987153755089487,imu_link,-0.004883178044110537,0.004692432936280966,-0.3231331706047058,0.9463293552398682,0.0,0.0,0.0,0.0,0.0,0.0,0.0,0.0,0.0,-37.70792770385742,0.32803961634635925,-0.7033205032348633,0.0,0.0,0.0,0.0,0.0,0.0,0.0,0.0,0.0,0.0005410309531725943,-0.00059815141139552,0.0460195355117321,0.0,0.0,0.0,0.0,0.0,0.0,0.0,0.0,0.0
1606990754463435148,3846596,1606987153755122620,imu_link,-0.004883178044110537,0.004692432936280966,-0.3231331706047058,0.9463293552398682,0.0,0.0,0.0,0.0,0.0,0.0,0.0,0.0,0.0,-37.70792770385742,0.32803961634635925,-0.7033205032348633,0.0,0.0,0.0,0.0,0.0,0.0,0.0,0.0,0.0,0.0005410309531725943,-0.00059815141139552,0.0460195355117321,0.0,0.0,0.0,0.0,0.0,0.0,0.0,0.0,0.0
1606990754463456032,3846597,1606987153755152576,imu_link,-0.00488321203738451,0.004690435249358416,-0.3231287896633148,0.9463308453559875,0.0,0.0,0.0,0.0,0.0,0.0,0.0,0.0,0.0,-37.7073974609375,0.32782498002052307,-0.7032486796379089,0.0,0.0,0.0,0.0,0.0,0.0,0.0,0.0,0.0,-0.005683178082108498,0.009274407289922237,0.04931832477450371,0.0,0.0,0.0,0.0,0.0,0.0,0.0,0.0,0.0
1606990754463473299,3846598,1606987153755182371,imu_link,-0.00488321203738451,0.004690435249358416,-0.3231287896633148,0.9463308453559875,0.0,0.0,0.0,0.0,0.0,0.0,0.0,0.0,0.0,-37.7073974609375,0.32782498002052307,-0.7032486796379089,0.0,0.0,0.0,0.0,0.0,0.0,0.0,0.0,0.0,-0.005683178082108498,0.009274407289922237,0.04931832477450371,0.0,0.0,0.0,0.0,0.0,0.0,0.0,0.0,0.0
1606990754463480100,3846599,1606987153755211799,imu_link,-0.004884019494056702,0.004693048074841499,-0.32312989234924316,0.9463304281234741,0.0,0.0,0.0,0.0,0.0,0.0,0.0,0.0,0.0,-37.70753479003906,0.3280775845050812,-0.7034334540367126,0.0,0.0,0.0,0.0,0.0,0.0,0.0,0.0,0.0,0.00010889794793911278,0.015342945232987404,0.059324149042367935,0.0,0.0,0.0,0.0,0.0,0.0,0.0,0.0,0.0
1606990754463492663,3846600,1606987153755258540,imu_link,-0.004884019494056702,0.004693048074841499,-0.32312989234924316,0.9463304281234741,0.0,0.0,0.0,0.0,0.0,0.0,0.0,0.0,0.0,-37.70753479003906,0.3280775845050812,-0.7034334540367126,0.0,0.0,0.0,0.0,0.0,0.0,0.0,0.0,0.0,0.00010889794793911278,0.015342945232987404,0.059324149042367935,0.0,0.0,0.0,0.0,0.0,0.0,0.0,0.0,0.0
1606990754463503507,3846601,1606987153755291834,imu_link,-0.004887602292001247,0.004693611059337854,-0.3231290578842163,0.9463306665420532,0.0,0.0,0.0,0.0,0.0,0.0,0.0,0.0,0.0,-37.707435607910156,0.3280065357685089,-0.7038424611091614,0.0,0.0,0.0,0.0,0.0,0.0,0.0,0.0,0.0,0.011648227460682392,0.029972463846206665,0.056525640189647675,0.0,0.0,0.0,0.0,0.0,0.0,0.0,0.0,0.0
1606990754463516014,3846602,1606987153755321110,imu_link,-0.004887602292001247,0.004693611059337854,-0.3231290578842163,0.9463306665420532,0.0,0.0,0.0,0.0,0.0,0.0,0.0,0.0,0.0,-37.707435607910156,0.3280065357685089,-0.7038424611091614,0.0,0.0,0.0,0.0,0.0,0.0,0.0,0.0,0.0,0.011648227460682392,0.029972463846206665,0.056525640189647675,0.0,0.0,0.0,0.0,0.0,0.0,0.0,0.0,0.0
1606990754463529408,3846603,1606987153755350850,imu_link,-0.00488869147375226,0.004692049231380224,-0.3231290578842163,0.9463306665420532,0.0,0.0,0.0,0.0,0.0,0.0,0.0,0.0,0.0,-37.707435607910156,0.3277968466281891,-0.7039027810096741,0.0,0.0,0.0,0.0,0.0,0.0,0.0,0.0,0.0,0.006198523100465536,0.030587151646614075,0.05697697401046753,0.0,0.0,0.0,0.0,0.0,0.0,0.0,0.0,0.0
1606990754463540130,3846604,1606987153755383057,imu_link,-0.00488869147375226,0.004692049231380224,-0.3231290578842163,0.9463306665420532,0.0,0.0,0.0,0.0,0.0,0.0,0.0,0.0,0.0,-37.707435607910156,0.3277968466281891,-0.7039027810096741,0.0,0.0,0.0,0.0,0.0,0.0,0.0,0.0,0.0,0.006198523100465536,0.030587151646614075,0.05697697401046753,0.0,0.0,0.0,0.0,0.0,0.0,0.0,0.0,0.0
1606990754463558680,3846605,1606987153768549743,imu_link,-0.004893962759524584,0.004694427363574505,-0.32312628626823425,0.9463315606117249,0.0,0.0,0.0,0.0,0.0,0.0,0.0,0.0,0.0,-37.70710754394531,0.32786157727241516,-0.7045615911483765,0.0,0.0,0.0,0.0,0.0,0.0,0.0,0.0,0.0,-0.0006504169432446361,-0.007333032786846161,0.050580430775880814,0.0,0.0,0.0,0.0,0.0,0.0,0.0,0.0,0.0
1606990754463566355,3846606,1606987153768634908,imu_link,-0.004893962759524584,0.004694427363574505,-0.32312628626823425,0.9463315606117249,0.0,0.0,0.0,0.0,0.0,0.0,0.0,0.0,0.0,-37.70710754394531,0.32786157727241516,-0.7045615911483765,0.0,0.0,0.0,0.0,0.0,0.0,0.0,0.0,0.0,-0.0006504169432446361,-0.007333032786846161,0.050580430775880814,0.0,0.0,0.0,0.0,0.0,0.0,0.0,0.0,0.0
1606990754463577375,3846607,1606987153768742386,imu_link,-0.004893243778496981,0.004692439921200275,-0.323126882314682,0.9463313817977905,0.0,0.0,0.0,0.0,0.0,0.0,0.0,0.0,0.0,-37.70717239379883,0.3276723027229309,-0.704410195350647,0.0,0.0,0.0,0.0,0.0,0.0,0.0,0.0,0.0,-0.007001133635640144,-0.017815446481108665,0.04789159446954727,0.0,0.0,0.0,0.0,0.0,0.0,0.0,0.0,0.0
1606990754472673714,3846608,1606987153768796654,imu_link,-0.004893243778496981,0.004692439921200275,-0.323126882314682,0.9463313817977905,0.0,0.0,0.0,0.0,0.0,0.0,0.0,0.0,0.0,-37.70717239379883,0.3276723027229309,-0.704410195350647,0.0,0.0,0.0,0.0,0.0,0.0,0.0,0.0,0.0,-0.007001133635640144,-0.017815446481108665,0.04789159446954727,0.0,0.0,0.0,0.0,0.0,0.0,0.0,0.0,0.0
1606990754472703646,3846609,1606987153768848311,imu_link,-0.004890557378530502,0.0046892110258340836,-0.32312360405921936,0.9463325142860413,0.0,0.0,0.0,0.0,0.0,0.0,0.0,0.0,0.0,-37.70677185058594,0.327424019575119,-0.7039981484413147,0.0,0.0,0.0,0.0,0.0,0.0,0.0,0.0,0.0,-0.003266973188146949,0.010103841312229633,0.062365151941776276,0.0,0.0,0.0,0.0,0.0,0.0,0.0,0.0,0.0
1606990754472719377,3846610,1606987153768897891,imu_link,-0.004890557378530502,0.0046892110258340836,-0.32312360405921936,0.9463325142860413,0.0,0.0,0.0,0.0,0.0,0.0,0.0,0.0,0.0,-37.70677185058594,0.327424019575119,-0.7039981484413147,0.0,0.0,0.0,0.0,0.0,0.0,0.0,0.0,0.0,-0.003266973188146949,0.010103841312229633,0.062365151941776276,0.0,0.0,0.0,0.0,0.0,0.0,0.0,0.0,0.0
1606990754472751594,3846611,1606987153768957773,imu_link,-0.004891129210591316,0.004690594971179962,-0.3231215476989746,0.9463332295417786,0.0,0.0,0.0,0.0,0.0,0.0,0.0,0.0,0.0,-37.70652389526367,0.32755449414253235,-0.7041107416152954,0.0,0.0,0.0,0.0,0.0,0.0,0.0,0.0,0.0,0.007326196879148483,0.02847232110798359,0.07715819031000137,0.0,0.0,0.0,0.0,0.0,0.0,0.0,0.0,0.0
1606990754472761751,3846612,1606987153769004192,imu_link,-0.004891129210591316,0.004690594971179962,-0.3231215476989746,0.9463332295417786,0.0,0.0,0.0,0.0,0.0,0.0,0.0,0.0,0.0,-37.70652389526367,0.32755449414253235,-0.7041107416152954,0.0,0.0,0.0,0.0,0.0,0.0,0.0,0.0,0.0,0.007326196879148483,0.02847232110798359,0.07715819031000137,0.0,0.0,0.0,0.0,0.0,0.0,0.0,0.0,0.0
1606990754474335294,3846613,1606987153769048322,imu_link,-0.004895776975899935,0.004691724199801683,-0.3231208026409149,0.9463334679603577,0.0,0.0,0.0,0.0,0.0,0.0,0.0,0.0,0.0,-37.70643615722656,0.3275053799152374,-0.7046563029289246,0.0,0.0,0.0,0.0,0.0,0.0,0.0,0.0,0.0,0.011961203068494797,0.009364611469209194,0.05851754918694496,0.0,0.0,0.0,0.0,0.0,0.0,0.0,0.0,0.0
1606990754474372452,3846614,1606987153769110672,imu_link,-0.004895776975899935,0.004691724199801683,-0.3231208026409149,0.9463334679603577,0.0,0.0,0.0,0.0,0.0,0.0,0.0,0.0,0.0,-37.70643615722656,0.3275053799152374,-0.7046563029289246,0.0,0.0,0.0,0.0,0.0,0.0,0.0,0.0,0.0,0.011961203068494797,0.009364611469209194,0.05851754918694496,0.0,0.0,0.0,0.0,0.0,0.0,0.0,0.0,0.0
1606990754474387907,3846615,1606987153769183876,imu_link,-0.004895254969596863,0.004690313711762428,-0.3231208026409149,0.9463334679603577,0.0,0.0,0.0,0.0,0.0,0.0,0.0,0.0,0.0,-37.7064323425293,0.3273717761039734,-0.7045474648475647,0.0,0.0,0.0,0.0,0.0,0.0,0.0,0.0,0.0,0.00795690156519413,-0.013883338309824467,0.03977060690522194,0.0,0.0,0.0,0.0,0.0,0.0,0.0,0.0,0.0
1606990754474404576,3846616,1606987153782434296,imu_link,-0.004895254969596863,0.004690313711762428,-0.3231208026409149,0.9463334679603577,0.0,0.0,0.0,0.0,0.0,0.0,0.0,0.0,0.0,-37.7064323425293,0.3273717761039734,-0.7045474648475647,0.0,0.0,0.0,0.0,0.0,0.0,0.0,0.0,0.0,0.00795690156519413,-0.013883338309824467,0.03977060690522194,0.0,0.0,0.0,0.0,0.0,0.0,0.0,0.0,0.0
1606990754516871123,3846617,1606987153782585483,imu_link,-0.00489306915551424,0.0046923537738621235,-0.3231196105480194,0.9463338851928711,0.0,0.0,0.0,0.0,0.0,0.0,0.0,0.0,0.0,-37.70629119873047,0.3276748061180115,-0.70438551902771,0.0,0.0,0.0,0.0,0.0,0.0,0.0,0.0,0.0,-0.005362042225897312,-0.01230162288993597,0.0459563322365284,0.0,0.0,0.0,0.0,0.0,0.0,0.0,0.0,0.0
1606990754516896693,3846618,1606987153782649434,imu_link,-0.00489306915551424,0.0046923537738621235,-0.3231196105480194,0.9463338851928711,0.0,0.0,0.0,0.0,0.0,0.0,0.0,0.0,0.0,-37.70629119873047,0.3276748061180115,-0.70438551902771,0.0,0.0,0.0,0.0,0.0,0.0,0.0,0.0,0.0,-0.005362042225897312,-0.01230162288993597,0.0459563322365284,0.0,0.0,0.0,0.0,0.0,0.0,0.0,0.0,0.0
1606990754516964202,3846619,1606987153782708035,imu_link,-0.00489202793687582,0.0046922629699110985,-0.3231223523616791,0.9463329911231995,0.0,0.0,0.0,0.0,0.0,0.0,0.0,0.0,0.0,-37.70662307739258,0.32770147919654846,-0.7042701840400696,0.0,0.0,0.0,0.0,0.0,0.0,0.0,0.0,0.0,-0.0016074846498668194,-0.003198683727532625,0.052733633667230606,0.0,0.0,0.0,0.0,0.0,0.0,0.0,0.0,0.0
1606990754516972650,3846620,1606987153782755989,imu_link,-0.00489202793687582,0.0046922629699110985,-0.3231223523616791,0.9463329911231995,0.0,0.0,0.0,0.0,0.0,0.0,0.0,0.0,0.0,-37.70662307739258,0.32770147919654846,-0.7042701840400696,0.0,0.0,0.0,0.0,0.0,0.0,0.0,0.0,0.0,-0.0016074846498668194,-0.003198683727532625,0.052733633667230606,0.0,0.0,0.0,0.0,0.0,0.0,0.0,0.0,0.0
1606990754516992569,3846621,1606987153782808559,imu_link,-0.0048935734666883945,0.004691189620643854,-0.32312506437301636,0.9463320374488831,0.0,0.0,0.0,0.0,0.0,0.0,0.0,0.0,0.0,-37.706947326660156,0.3275258243083954,-0.7043989896774292,0.0,0.0,0.0,0.0,0.0,0.0,0.0,0.0,0.0,0.004125754348933697,-0.006076897494494915,0.04784012958407402,0.0,0.0,0.0,0.0,0.0,0.0,0.0,0.0,0.0
1606990754517003034,3846622,1606987153782870356,imu_link,-0.0048935734666883945,0.004691189620643854,-0.32312506437301636,0.9463320374488831,0.0,0.0,0.0,0.0,0.0,0.0,0.0,0.0,0.0,-37.706947326660156,0.3275258243083954,-0.7043989896774292,0.0,0.0,0.0,0.0,0.0,0.0,0.0,0.0,0.0,0.004125754348933697,-0.006076897494494915,0.04784012958407402,0.0,0.0,0.0,0.0,0.0,0.0,0.0,0.0,0.0
1606990754517144134,3846623,1606987153782923402,imu_link,-0.004893206525593996,0.004693015944212675,-0.3231256604194641,0.9463318586349487,0.0,0.0,0.0,0.0,0.0,0.0,0.0,0.0,0.0,-37.70702362060547,0.32773706316947937,-0.7044270634651184,0.0,0.0,0.0,0.0,0.0,0.0,0.0,0.0,0.0,0.01445175800472498,-0.005497159902006388,0.0333576574921608,0.0,0.0,0.0,0.0,0.0,0.0,0.0,0.0,0.0
1606990754517189227,3846624,1606987153783004306,imu_link,-0.004893206525593996,0.004693015944212675,-0.3231256604194641,0.9463318586349487,0.0,0.0,0.0,0.0,0.0,0.0,0.0,0.0,0.0,-37.70702362060547,0.32773706316947937,-0.7044270634651184,0.0,0.0,0.0,0.0,0.0,0.0,0.0,0.0,0.0,0.01445175800472498,-0.005497159902006388,0.0333576574921608,0.0,0.0,0.0,0.0,0.0,0.0,0.0,0.0,0.0
1606990754517205205,3846625,1606987153783059179,imu_link,-0.004890321288257837,0.004696360323578119,-0.3231290876865387,0.9463306665420532,0.0,0.0,0.0,0.0,0.0,0.0,0.0,0.0,0.0,-37.70744323730469,0.3282040059566498,-0.7042391300201416,0.0,0.0,0.0,0.0,0.0,0.0,0.0,0.0,0.0,0.018797975033521652,-0.00036386438296176493,0.024123715236783028,0.0,0.0,0.0,0.0,0.0,0.0,0.0,0.0,0.0
1606990754517250792,3846626,1606987153783106374,imu_link,-0.004890321288257837,0.004696360323578119,-0.3231290876865387,0.9463306665420532,0.0,0.0,0.0,0.0,0.0,0.0,0.0,0.0,0.0,-37.70744323730469,0.3282040059566498,-0.7042391300201416,0.0,0.0,0.0,0.0,0.0,0.0,0.0,0.0,0.0,0.018797975033521652,-0.00036386438296176493,0.024123715236783028,0.0,0.0,0.0,0.0,0.0,0.0,0.0,0.0,0.0
1606990754517287196,3846627,1606987153795860628,imu_link,-0.0048906938172876835,0.004695612471550703,-0.32313087582588196,0.9463300704956055,0.0,0.0,0.0,0.0,0.0,0.0,0.0,0.0,0.0,-37.70766067504883,0.3281077742576599,-0.7042524814605713,0.0,0.0,0.0,0.0,0.0,0.0,0.0,0.0,0.0,0.003363311290740967,0.009298537857830524,0.027817461639642715,0.0,0.0,0.0,0.0,0.0,0.0,0.0,0.0,0.0
1606990754517303914,3846628,1606987153795988211,imu_link,-0.0048906938172876835,0.004695612471550703,-0.32313087582588196,0.9463300704956055,0.0,0.0,0.0,0.0,0.0,0.0,0.0,0.0,0.0,-37.70766067504883,0.3281077742576599,-0.7042524814605713,0.0,0.0,0.0,0.0,0.0,0.0,0.0,0.0,0.0,0.003363311290740967,0.009298537857830524,0.027817461639642715,0.0,0.0,0.0,0.0,0.0,0.0,0.0,0.0,0.0
1606990754517321513,3846629,1606987153796090451,imu_link,-0.004893024917691946,0.004695862531661987,-0.323130339384079,0.9463302493095398,0.0,0.0,0.0,0.0,0.0,0.0,0.0,0.0,0.0,-37.70759201049805,0.328048974275589,-0.7045143842697144,0.0,0.0,0.0,0.0,0.0,0.0,0.0,0.0,0.0,-0.008311848156154156,0.010985075496137142,0.022870957851409912,0.0,0.0,0.0,0.0,0.0,0.0,0.0,0.0,0.0
1606990754517356034,3846630,1606987153796154166,imu_link,-0.004893024917691946,0.004695862531661987,-0.323130339384079,0.9463302493095398,0.0,0.0,0.0,0.0,0.0,0.0,0.0,0.0,0.0,-37.70759201049805,0.328048974275589,-0.7045143842697144,0.0,0.0,0.0,0.0,0.0,0.0,0.0,0.0,0.0,-0.008311848156154156,0.010985075496137142,0.022870957851409912,0.0,0.0,0.0,0.0,0.0,0.0,0.0,0.0,0.0
1606990754517385978,3846631,1606987153796225312,imu_link,-0.0048923310823738575,0.004696630407124758,-0.32312893867492676,0.946330726146698,0.0,0.0,0.0,0.0,0.0,0.0,0.0,0.0,0.0,-37.70742416381836,0.328158974647522,-0.7044671177864075,0.0,0.0,0.0,0.0,0.0,0.0,0.0,0.0,0.0,0.006440994795411825,0.005564541090279818,0.0298188216984272,0.0,0.0,0.0,0.0,0.0,0.0,0.0,0.0,0.0
1606990754517401600,3846632,1606987153796297187,imu_link,-0.0048923310823738575,0.004696630407124758,-0.32312893867492676,0.946330726146698,0.0,0.0,0.0,0.0,0.0,0.0,0.0,0.0,0.0,-37.70742416381836,0.328158974647522,-0.7044671177864075,0.0,0.0,0.0,0.0,0.0,0.0,0.0,0.0,0.0,0.006440994795411825,0.005564541090279818,0.0298188216984272,0.0,0.0,0.0,0.0,0.0,0.0,0.0,0.0,0.0
1606990754517415286,3846633,1606987153796359175,imu_link,-0.004892819561064243,0.004696825053542852,-0.3231271505355835,0.9463313221931458,0.0,0.0,0.0,0.0,0.0,0.0,0.0,0.0,0.0,-37.70720672607422,0.3281633257865906,-0.7045266628265381,0.0,0.0,0.0,0.0,0.0,0.0,0.0,0.0,0.0,0.017511596903204918,-0.0016467883251607418,0.04120628163218498,0.0,0.0,0.0,0.0,0.0,0.0,0.0,0.0,0.0
1606990754522132175,3846634,1606987153796412579,imu_link,-0.004892819561064243,0.004696825053542852,-0.3231271505355835,0.9463313221931458,0.0,0.0,0.0,0.0,0.0,0.0,0.0,0.0,0.0,-37.70720672607422,0.3281633257865906,-0.7045266628265381,0.0,0.0,0.0,0.0,0.0,0.0,0.0,0.0,0.0,0.017511596903204918,-0.0016467883251607418,0.04120628163218498,0.0,0.0,0.0,0.0,0.0,0.0,0.0,0.0,0.0
1606990754522150040,3846635,1606987153796472032,imu_link,-0.004894264042377472,0.004697641357779503,-0.32312697172164917,0.946331262588501,0.0,0.0,0.0,0.0,0.0,0.0,0.0,0.0,0.0,-37.707191467285156,0.3281984329223633,-0.7047135829925537,0.0,0.0,0.0,0.0,0.0,0.0,0.0,0.0,0.0,0.005772336386144161,-0.010766545310616493,0.04809041693806648,0.0,0.0,0.0,0.0,0.0,0.0,0.0,0.0,0.0
1606990754522158718,3846636,1606987153796532838,imu_link,-0.004894264042377472,0.004697641357779503,-0.32312697172164917,0.946331262588501,0.0,0.0,0.0,0.0,0.0,0.0,0.0,0.0,0.0,-37.707191467285156,0.3281984329223633,-0.7047135829925537,0.0,0.0,0.0,0.0,0.0,0.0,0.0,0.0,0.0,0.005772336386144161,-0.010766545310616493,0.04809041693806648,0.0,0.0,0.0,0.0,0.0,0.0,0.0,0.0,0.0
1606990754522166858,3846637,1606987153796593328,imu_link,-0.004891197197139263,0.0046987454406917095,-0.32312440872192383,0.9463322758674622,0.0,0.0,0.0,0.0,0.0,0.0,0.0,0.0,0.0,-37.706878662109375,0.32843372225761414,-0.7044209241867065,0.0,0.0,0.0,0.0,0.0,0.0,0.0,0.0,0.0,0.013966301456093788,-0.011960294097661972,0.05372043326497078,0.0,0.0,0.0,0.0,0.0,0.0,0.0,0.0,0.0
1606990754524572792,3846638,1606987153808667621,imu_link,-0.004891197197139263,0.0046987454406917095,-0.32312440872192383,0.9463322758674622,0.0,0.0,0.0,0.0,0.0,0.0,0.0,0.0,0.0,-37.706878662109375,0.32843372225761414,-0.7044209241867065,0.0,0.0,0.0,0.0,0.0,0.0,0.0,0.0,0.0,0.013966301456093788,-0.011960294097661972,0.05372043326497078,0.0,0.0,0.0,0.0,0.0,0.0,0.0,0.0,0.0
1606990754524598240,3846639,1606987153808768072,imu_link,-0.0048921070992946625,0.004696939140558243,-0.3231228291988373,0.9463328123092651,0.0,0.0,0.0,0.0,0.0,0.0,0.0,0.0,0.0,-37.70668411254883,0.32820531725883484,-0.7044521570205688,0.0,0.0,0.0,0.0,0.0,0.0,0.0,0.0,0.0,0.0069482894614338875,-0.010802351869642735,0.03510652855038643,0.0,0.0,0.0,0.0,0.0,0.0,0.0,0.0,0.0
1606990754524625523,3846640,1606987153809096636,imu_link,-0.0048921070992946625,0.004696939140558243,-0.3231228291988373,0.9463328123092651,0.0,0.0,0.0,0.0,0.0,0.0,0.0,0.0,0.0,-37.70668411254883,0.32820531725883484,-0.7044521570205688,0.0,0.0,0.0,0.0,0.0,0.0,0.0,0.0,0.0,0.0069482894614338875,-0.010802351869642735,0.03510652855038643,0.0,0.0,0.0,0.0,0.0,0.0,0.0,0.0,0.0
1606990754524648451,3846641,1606987153809161542,imu_link,-0.004890434443950653,0.004695814568549395,-0.32312437891960144,0.9463322758674622,0.0,0.0,0.0,0.0,0.0,0.0,0.0,0.0,0.0,-37.70687484741211,0.3281441330909729,-0.7042295932769775,0.0,0.0,0.0,0.0,0.0,0.0,0.0,0.0,0.0,0.0023540309630334377,-0.001739571220241487,0.037426307797431946,0.0,0.0,0.0,0.0,0.0,0.0,0.0,0.0,0.0
1606990754524661475,3846642,1606987153809276182,imu_link,-0.004890434443950653,0.004695814568549395,-0.32312437891960144,0.9463322758674622,0.0,0.0,0.0,0.0,0.0,0.0,0.0,0.0,0.0,-37.70687484741211,0.3281441330909729,-0.7042295932769775,0.0,0.0,0.0,0.0,0.0,0.0,0.0,0.0,0.0,0.0023540309630334377,-0.001739571220241487,0.037426307797431946,0.0,0.0,0.0,0.0,0.0,0.0,0.0,0.0,0.0
1606990754524685659,3846643,1606987153809356357,imu_link,-0.00489059230312705,0.004697013180702925,-0.32312527298927307,0.9463319182395935,0.0,0.0,0.0,0.0,0.0,0.0,0.0,0.0,0.0,-37.70697784423828,0.32826757431030273,-0.7042914628982544,0.0,0.0,0.0,0.0,0.0,0.0,0.0,0.0,0.0,0.0036312146112322807,-0.009759517386555672,0.056742195039987564,0.0,0.0,0.0,0.0,0.0,0.0,0.0,0.0,0.0
1606990754524712573,3846644,1606987153809416584,imu_link,-0.00489059230312705,0.004697013180702925,-0.32312527298927307,0.9463319182395935,0.0,0.0,0.0,0.0,0.0,0.0,0.0,0.0,0.0,-37.70697784423828,0.32826757431030273,-0.7042914628982544,0.0,0.0,0.0,0.0,0.0,0.0,0.0,0.0,0.0,0.0036312146112322807,-0.009759517386555672,0.056742195039987564,0.0,0.0,0.0,0.0,0.0,0.0,0.0,0.0,0.0
1606990754524764243,3846645,1606987153809472447,imu_link,-0.004887963179498911,0.0046986909583210945,-0.3231300413608551,0.9463303089141846,0.0,0.0,0.0,0.0,0.0,0.0,0.0,0.0,0.0,-37.70756149291992,0.3285433053970337,-0.7040700912475586,0.0,0.0,0.0,0.0,0.0,0.0,0.0,0.0,0.0,-0.011856437660753727,-0.020441502332687378,0.06046024709939957,0.0,0.0,0.0,0.0,0.0,0.0,0.0,0.0,0.0
1606990754524777217,3846646,1606987153809535637,imu_link,-0.004887963179498911,0.0046986909583210945,-0.3231300413608551,0.9463303089141846,0.0,0.0,0.0,0.0,0.0,0.0,0.0,0.0,0.0,-37.70756149291992,0.3285433053970337,-0.7040700912475586,0.0,0.0,0.0,0.0,0.0,0.0,0.0,0.0,0.0,-0.011856437660753727,-0.020441502332687378,0.06046024709939957,0.0,0.0,0.0,0.0,0.0,0.0,0.0,0.0,0.0
1606990754524784915,3846647,1606987153809597781,imu_link,-0.004890113603323698,0.004699239041656256,-0.32313114404678345,0.9463299512863159,0.0,0.0,0.0,0.0,0.0,0.0,0.0,0.0,0.0,-37.70769119262695,0.32852235436439514,-0.704323947429657,0.0,0.0,0.0,0.0,0.0,0.0,0.0,0.0,0.0,-0.003758226288482547,-0.021447885781526566,0.052179329097270966,0.0,0.0,0.0,0.0,0.0,0.0,0.0,0.0,0.0
1606990754524792821,3846648,1606987153822633447,imu_link,-0.004890113603323698,0.004699239041656256,-0.32313114404678345,0.9463299512863159,0.0,0.0,0.0,0.0,0.0,0.0,0.0,0.0,0.0,-37.70769119262695,0.32852235436439514,-0.704323947429657,0.0,0.0,0.0,0.0,0.0,0.0,0.0,0.0,0.0,-0.003758226288482547,-0.021447885781526566,0.052179329097270966,0.0,0.0,0.0,0.0,0.0,0.0,0.0,0.0,0.0
1606990754524813474,3846649,1606987153822741210,imu_link,-0.004884950816631317,0.00469732191413641,-0.3231334090232849,0.9463292360305786,0.0,0.0,0.0,0.0,0.0,0.0,0.0,0.0,0.0,-37.70796203613281,0.32850393652915955,-0.7036938667297363,0.0,0.0,0.0,0.0,0.0,0.0,0.0,0.0,0.0,-0.0005548211047425866,0.0003690957964863628,0.03952048718929291,0.0,0.0,0.0,0.0,0.0,0.0,0.0,0.0,0.0
1606990754524825594,3846650,1606987153822879195,imu_link,-0.004884950816631317,0.00469732191413641,-0.3231334090232849,0.9463292360305786,0.0,0.0,0.0,0.0,0.0,0.0,0.0,0.0,0.0,-37.70796203613281,0.32850393652915955,-0.7036938667297363,0.0,0.0,0.0,0.0,0.0,0.0,0.0,0.0,0.0,-0.0005548211047425866,0.0003690957964863628,0.03952048718929291,0.0,0.0,0.0,0.0,0.0,0.0,0.0,0.0,0.0
1606990754558861218,3846651,1606987153822996235,imu_link,-0.004884706810116768,0.004696928430348635,-0.32313257455825806,0.9463294744491577,0.0,0.0,0.0,0.0,0.0,0.0,0.0,0.0,0.0,-37.70786666870117,0.328470915555954,-0.7036525011062622,0.0,0.0,0.0,0.0,0.0,0.0,0.0,0.0,0.0,-0.003962441813200712,0.009276322089135647,0.0412508100271225,0.0,0.0,0.0,0.0,0.0,0.0,0.0,0.0,0.0
1606990754558877123,3846652,1606987153823087767,imu_link,-0.004884706810116768,0.004696928430348635,-0.32313257455825806,0.9463294744491577,0.0,0.0,0.0,0.0,0.0,0.0,0.0,0.0,0.0,-37.70786666870117,0.328470915555954,-0.7036525011062622,0.0,0.0,0.0,0.0,0.0,0.0,0.0,0.0,0.0,-0.003962441813200712,0.009276322089135647,0.0412508100271225,0.0,0.0,0.0,0.0,0.0,0.0,0.0,0.0,0.0
1606990754558888122,3846653,1606987153823156618,imu_link,-0.00488809309899807,0.004697802010923624,-0.3231361210346222,0.9463282227516174,0.0,0.0,0.0,0.0,0.0,0.0,0.0,0.0,0.0,-37.70829772949219,0.32843759655952454,-0.7040534615516663,0.0,0.0,0.0,0.0,0.0,0.0,0.0,0.0,0.0,0.008677158504724503,0.002219264628365636,0.058253638446331024,0.0,0.0,0.0,0.0,0.0,0.0,0.0,0.0,0.0
1606990754558930358,3846654,1606987153823243002,imu_link,-0.00488809309899807,0.004697802010923624,-0.3231361210346222,0.9463282227516174,0.0,0.0,0.0,0.0,0.0,0.0,0.0,0.0,0.0,-37.70829772949219,0.32843759655952454,-0.7040534615516663,0.0,0.0,0.0,0.0,0.0,0.0,0.0,0.0,0.0,0.008677158504724503,0.002219264628365636,0.058253638446331024,0.0,0.0,0.0,0.0,0.0,0.0,0.0,0.0,0.0
1606990754558944996,3846655,1606987153823310266,imu_link,-0.004888260271400213,0.004697286523878574,-0.3231365978717804,0.9463280439376831,0.0,0.0,0.0,0.0,0.0,0.0,0.0,0.0,0.0,-37.708351135253906,0.3283751308917999,-0.7040526866912842,0.0,0.0,0.0,0.0,0.0,0.0,0.0,0.0,0.0,0.0094363484531641,0.004316304344683886,0.06971649080514908,0.0,0.0,0.0,0.0,0.0,0.0,0.0,0.0,0.0
1606990754558968927,3846656,1606987153823390584,imu_link,-0.004888260271400213,0.004697286523878574,-0.3231365978717804,0.9463280439376831,0.0,0.0,0.0,0.0,0.0,0.0,0.0,0.0,0.0,-37.708351135253906,0.3283751308917999,-0.7040526866912842,0.0,0.0,0.0,0.0,0.0,0.0,0.0,0.0,0.0,0.0094363484531641,0.004316304344683886,0.06971649080514908,0.0,0.0,0.0,0.0,0.0,0.0,0.0,0.0,0.0
1606990754558978784,3846657,1606987153823461183,imu_link,-0.0048884861171245575,0.004699642304331064,-0.32314062118530273,0.946326732635498,0.0,0.0,0.0,0.0,0.0,0.0,0.0,0.0,0.0,-37.708839416503906,0.3286193311214447,-0.7041657567024231,0.0,0.0,0.0,0.0,0.0,0.0,0.0,0.0,0.0,0.0053486633114516735,0.005975889507681131,0.07134062051773071,0.0,0.0,0.0,0.0,0.0,0.0,0.0,0.0,0.0
1606990754558991054,3846658,1606987153823528254,imu_link,-0.0048884861171245575,0.004699642304331064,-0.32314062118530273,0.946326732635498,0.0,0.0,0.0,0.0,0.0,0.0,0.0,0.0,0.0,-37.708839416503906,0.3286193311214447,-0.7041657567024231,0.0,0.0,0.0,0.0,0.0,0.0,0.0,0.0,0.0,0.0053486633114516735,0.005975889507681131,0.07134062051773071,0.0,0.0,0.0,0.0,0.0,0.0,0.0,0.0,0.0
1606990754558999170,3846659,1606987153835833935,imu_link,-0.004888089839369059,0.004700545687228441,-0.3231413662433624,0.9463264346122742,0.0,0.0,0.0,0.0,0.0,0.0,0.0,0.0,0.0,-37.70893096923828,0.32873138785362244,-0.7041565775871277,0.0,0.0,0.0,0.0,0.0,0.0,0.0,0.0,0.0,0.013799565844237804,0.00820813700556755,0.06363671272993088,0.0,0.0,0.0,0.0,0.0,0.0,0.0,0.0,0.0
1606990754559009489,3846660,1606987153835926730,imu_link,-0.004888089839369059,0.004700545687228441,-0.3231413662433624,0.9463264346122742,0.0,0.0,0.0,0.0,0.0,0.0,0.0,0.0,0.0,-37.70893096923828,0.32873138785362244,-0.7041565775871277,0.0,0.0,0.0,0.0,0.0,0.0,0.0,0.0,0.0,0.013799565844237804,0.00820813700556755,0.06363671272993088,0.0,0.0,0.0,0.0,0.0,0.0,0.0,0.0,0.0
1606990754559023265,3846661,1606987153835990654,imu_link,-0.00488791661337018,0.0047034309245646,-0.3231426179409027,0.946325957775116,0.0,0.0,0.0,0.0,0.0,0.0,0.0,0.0,0.0,-37.709083557128906,0.329049676656723,-0.7042450308799744,0.0,0.0,0.0,0.0,0.0,0.0,0.0,0.0,0.0,0.004116768017411232,0.0029240772128105164,0.04844393953680992,0.0,0.0,0.0,0.0,0.0,0.0,0.0,0.0,0.0
1606990754559036334,3846662,1606987153836058170,imu_link,-0.00488791661337018,0.0047034309245646,-0.3231426179409027,0.946325957775116,0.0,0.0,0.0,0.0,0.0,0.0,0.0,0.0,0.0,-37.709083557128906,0.329049676656723,-0.7042450308799744,0.0,0.0,0.0,0.0,0.0,0.0,0.0,0.0,0.0,0.004116768017411232,0.0029240772128105164,0.04844393953680992,0.0,0.0,0.0,0.0,0.0,0.0,0.0,0.0,0.0
1606990754559044287,3846663,1606987153836127114,imu_link,-0.0048886449076235294,0.0047034756280481815,-0.32314130663871765,0.9463264346122742,0.0,0.0,0.0,0.0,0.0,0.0,0.0,0.0,0.0,-37.70893096923828,0.32902857661247253,-0.7043251991271973,0.0,0.0,0.0,0.0,0.0,0.0,0.0,0.0,0.0,-0.024792486801743507,0.004889020696282387,0.04852715879678726,0.0,0.0,0.0,0.0,0.0,0.0,0.0,0.0,0.0
1606990754559054678,3846664,1606987153836185870,imu_link,-0.0048886449076235294,0.0047034756280481815,-0.32314130663871765,0.9463264346122742,0.0,0.0,0.0,0.0,0.0,0.0,0.0,0.0,0.0,-37.70893096923828,0.32902857661247253,-0.7043251991271973,0.0,0.0,0.0,0.0,0.0,0.0,0.0,0.0,0.0,-0.024792486801743507,0.004889020696282387,0.04852715879678726,0.0,0.0,0.0,0.0,0.0,0.0,0.0,0.0,0.0
1606990754559070026,3846665,1606987153836270205,imu_link,-0.004893210716545582,0.0047004977241158485,-0.32314425706863403,0.946325421333313,0.0,0.0,0.0,0.0,0.0,0.0,0.0,0.0,0.0,-37.70928955078125,0.328534334897995,-0.7047110199928284,0.0,0.0,0.0,0.0,0.0,0.0,0.0,0.0,0.0,-0.02370261959731579,0.0037311166524887085,0.06487643718719482,0.0,0.0,0.0,0.0,0.0,0.0,0.0,0.0,0.0
1606990754559099251,3846666,1606987153836359584,imu_link,-0.004893210716545582,0.0047004977241158485,-0.32314425706863403,0.946325421333313,0.0,0.0,0.0,0.0,0.0,0.0,0.0,0.0,0.0,-37.70928955078125,0.328534334897995,-0.7047110199928284,0.0,0.0,0.0,0.0,0.0,0.0,0.0,0.0,0.0,-0.02370261959731579,0.0037311166524887085,0.06487643718719482,0.0,0.0,0.0,0.0,0.0,0.0,0.0,0.0,0.0
1606990754559104403,3846667,1606987153836428407,imu_link,-0.004892127588391304,0.0047004809603095055,-0.32314416766166687,0.9463254809379578,0.0,0.0,0.0,0.0,0.0,0.0,0.0,0.0,0.0,-37.70927429199219,0.32857275009155273,-0.7045928835868835,0.0,0.0,0.0,0.0,0.0,0.0,0.0,0.0,0.0,-0.015377181582152843,-0.0069288755767047405,0.048714540898799896,0.0,0.0,0.0,0.0,0.0,0.0,0.0,0.0,0.0
1606990754559112968,3846668,1606987153836493999,imu_link,-0.004892127588391304,0.0047004809603095055,-0.32314416766166687,0.9463254809379578,0.0,0.0,0.0,0.0,0.0,0.0,0.0,0.0,0.0,-37.70927429199219,0.32857275009155273,-0.7045928835868835,0.0,0.0,0.0,0.0,0.0,0.0,0.0,0.0,0.0,-0.015377181582152843,-0.0069288755767047405,0.048714540898799896,0.0,0.0,0.0,0.0,0.0,0.0,0.0,0.0,0.0
1606990754559122091,3846669,1606987153836560725,imu_link,-0.00489425053820014,0.004697856958955526,-0.32314613461494446,0.9463247656822205,0.0,0.0,0.0,0.0,0.0,0.0,0.0,0.0,0.0,-37.70950698852539,0.3282080888748169,-0.7047266364097595,0.0,0.0,0.0,0.0,0.0,0.0,0.0,0.0,0.0,-0.01881209760904312,-0.0019465459045022726,0.04559927061200142,0.0,0.0,0.0,0.0,0.0,0.0,0.0,0.0,0.0
1606990754559154137,3846670,1606987153849711721,imu_link,-0.00489425053820014,0.004697856958955526,-0.32314613461494446,0.9463247656822205,0.0,0.0,0.0,0.0,0.0,0.0,0.0,0.0,0.0,-37.70950698852539,0.3282080888748169,-0.7047266364097595,0.0,0.0,0.0,0.0,0.0,0.0,0.0,0.0,0.0,-0.01881209760904312,-0.0019465459045022726,0.04559927061200142,0.0,0.0,0.0,0.0,0.0,0.0,0.0,0.0,0.0
1606990754559162896,3846671,1606987153849803477,imu_link,-0.004893253091722727,0.004697305150330067,-0.3231434226036072,0.9463257193565369,0.0,0.0,0.0,0.0,0.0,0.0,0.0,0.0,0.0,-37.70917892456055,0.3281871974468231,-0.7045970559120178,0.0,0.0,0.0,0.0,0.0,0.0,0.0,0.0,0.0,-0.001254050643183291,0.0017733441200107336,0.06297627836465836,0.0,0.0,0.0,0.0,0.0,0.0,0.0,0.0,0.0
1606990754583329064,3846672,1606987153849877184,imu_link,-0.004893253091722727,0.004697305150330067,-0.3231434226036072,0.9463257193565369,0.0,0.0,0.0,0.0,0.0,0.0,0.0,0.0,0.0,-37.70917892456055,0.3281871974468231,-0.7045970559120178,0.0,0.0,0.0,0.0,0.0,0.0,0.0,0.0,0.0,-0.001254050643183291,0.0017733441200107336,0.06297627836465836,0.0,0.0,0.0,0.0,0.0,0.0,0.0,0.0,0.0
1606990754583345250,3846673,1606987153849945085,imu_link,-0.0048917741514742374,0.004697426222264767,-0.3231455981731415,0.9463250041007996,0.0,0.0,0.0,0.0,0.0,0.0,0.0,0.0,0.0,-37.70944595336914,0.32825350761413574,-0.7044419646263123,0.0,0.0,0.0,0.0,0.0,0.0,0.0,0.0,0.0,0.008737959899008274,-0.014984527602791786,0.03079919144511223,0.0,0.0,0.0,0.0,0.0,0.0,0.0,0.0,0.0
1606990754583371083,3846674,1606987153850010464,imu_link,-0.0048917741514742374,0.004697426222264767,-0.3231455981731415,0.9463250041007996,0.0,0.0,0.0,0.0,0.0,0.0,0.0,0.0,0.0,-37.70944595336914,0.32825350761413574,-0.7044419646263123,0.0,0.0,0.0,0.0,0.0,0.0,0.0,0.0,0.0,0.008737959899008274,-0.014984527602791786,0.03079919144511223,0.0,0.0,0.0,0.0,0.0,0.0,0.0,0.0,0.0
1606990754583429892,3846675,1606987153850088741,imu_link,-0.0048921662382781506,0.004699368495494127,-0.3231448233127594,0.9463252425193787,0.0,0.0,0.0,0.0,0.0,0.0,0.0,0.0,0.0,-37.7093505859375,0.32845014333724976,-0.7045560479164124,0.0,0.0,0.0,0.0,0.0,0.0,0.0,0.0,0.0,0.008676762692630291,-0.018288370221853256,0.023968379944562912,0.0,0.0,0.0,0.0,0.0,0.0,0.0,0.0,0.0
1606990754583446511,3846676,1606987153850151791,imu_link,-0.0048921662382781506,0.004699368495494127,-0.3231448233127594,0.9463252425193787,0.0,0.0,0.0,0.0,0.0,0.0,0.0,0.0,0.0,-37.7093505859375,0.32845014333724976,-0.7045560479164124,0.0,0.0,0.0,0.0,0.0,0.0,0.0,0.0,0.0,0.008676762692630291,-0.018288370221853256,0.023968379944562912,0.0,0.0,0.0,0.0,0.0,0.0,0.0,0.0,0.0
1606990754583455707,3846677,1606987153850218197,imu_link,-0.004886339418590069,0.00469965161755681,-0.3231483995914459,0.9463240504264832,0.0,0.0,0.0,0.0,0.0,0.0,0.0,0.0,0.0,-37.709781646728516,0.32869404554367065,-0.703935980796814,0.0,0.0,0.0,0.0,0.0,0.0,0.0,0.0,0.0,0.009295627474784851,-0.00880041066557169,0.07448743283748627,0.0,0.0,0.0,0.0,0.0,0.0,0.0,0.0,0.0
1606990754583464819,3846678,1606987153850280040,imu_link,-0.004886339418590069,0.00469965161755681,-0.3231483995914459,0.9463240504264832,0.0,0.0,0.0,0.0,0.0,0.0,0.0,0.0,0.0,-37.709781646728516,0.32869404554367065,-0.703935980796814,0.0,0.0,0.0,0.0,0.0,0.0,0.0,0.0,0.0,0.009295627474784851,-0.00880041066557169,0.07448743283748627,0.0,0.0,0.0,0.0,0.0,0.0,0.0,0.0,0.0
1606990754583471444,3846679,1606987153850344598,imu_link,-0.00488620437681675,0.004701885394752026,-0.32314780354499817,0.9463242292404175,0.0,0.0,0.0,0.0,0.0,0.0,0.0,0.0,0.0,-37.709712982177734,0.32894167304039,-0.7040038704872131,0.0,0.0,0.0,0.0,0.0,0.0,0.0,0.0,0.0,-0.009226272813975811,0.007679997477680445,0.08094426244497299,0.0,0.0,0.0,0.0,0.0,0.0,0.0,0.0,0.0
1606990754583480397,3846680,1606987153850411893,imu_link,-0.00488620437681675,0.004701885394752026,-0.32314780354499817,0.9463242292404175,0.0,0.0,0.0,0.0,0.0,0.0,0.0,0.0,0.0,-37.709712982177734,0.32894167304039,-0.7040038704872131,0.0,0.0,0.0,0.0,0.0,0.0,0.0,0.0,0.0,-0.009226272813975811,0.007679997477680445,0.08094426244497299,0.0,0.0,0.0,0.0,0.0,0.0,0.0,0.0,0.0
1606990754602599088,3846681,1606987153862867890,imu_link,-0.004887592513114214,0.004702689591795206,-0.32315149903297424,0.9463229775428772,0.0,0.0,0.0,0.0,0.0,0.0,0.0,0.0,0.0,-37.71015930175781,0.32897472381591797,-0.704185426235199,0.0,0.0,0.0,0.0,0.0,0.0,0.0,0.0,0.0,-0.001368802972137928,0.004769027233123779,0.04183889180421829,0.0,0.0,0.0,0.0,0.0,0.0,0.0,0.0,0.0
1606990754602623259,3846682,1606987153863010059,imu_link,-0.004887592513114214,0.004702689591795206,-0.32315149903297424,0.9463229775428772,0.0,0.0,0.0,0.0,0.0,0.0,0.0,0.0,0.0,-37.71015930175781,0.32897472381591797,-0.704185426235199,0.0,0.0,0.0,0.0,0.0,0.0,0.0,0.0,0.0,-0.001368802972137928,0.004769027233123779,0.04183889180421829,0.0,0.0,0.0,0.0,0.0,0.0,0.0,0.0,0.0
1606990754602630515,3846683,1606987153863120254,imu_link,-0.004886838141828775,0.004700602497905493,-0.32315337657928467,0.9463223218917847,0.0,0.0,0.0,0.0,0.0,0.0,0.0,0.0,0.0,-37.710391998291016,0.32877489924430847,-0.7040270566940308,0.0,0.0,0.0,0.0,0.0,0.0,0.0,0.0,0.0,0.016742907464504242,-0.012007034383714199,0.03787011653184891,0.0,0.0,0.0,0.0,0.0,0.0,0.0,0.0,0.0
1606990754607209160,3846684,1606987153863199498,imu_link,-0.004886838141828775,0.004700602497905493,-0.32315337657928467,0.9463223218917847,0.0,0.0,0.0,0.0,0.0,0.0,0.0,0.0,0.0,-37.710391998291016,0.32877489924430847,-0.7040270566940308,0.0,0.0,0.0,0.0,0.0,0.0,0.0,0.0,0.0,0.016742907464504242,-0.012007034383714199,0.03787011653184891,0.0,0.0,0.0,0.0,0.0,0.0,0.0,0.0,0.0
1606990754607223970,3846685,1606987153863260880,imu_link,-0.004883585497736931,0.004702589940279722,-0.3231562077999115,0.9463213682174683,0.0,0.0,0.0,0.0,0.0,0.0,0.0,0.0,0.0,-37.710731506347656,0.3291088044643402,-0.7037489414215088,0.0,0.0,0.0,0.0,0.0,0.0,0.0,0.0,0.0,0.008390805684030056,-0.023300932720303535,0.07875542342662811,0.0,0.0,0.0,0.0,0.0,0.0,0.0,0.0,0.0
1606990754607230090,3846686,1606987153863342693,imu_link,-0.004883585497736931,0.004702589940279722,-0.3231562077999115,0.9463213682174683,0.0,0.0,0.0,0.0,0.0,0.0,0.0,0.0,0.0,-37.710731506347656,0.3291088044643402,-0.7037489414215088,0.0,0.0,0.0,0.0,0.0,0.0,0.0,0.0,0.0,0.008390805684030056,-0.023300932720303535,0.07875542342662811,0.0,0.0,0.0,0.0,0.0,0.0,0.0,0.0,0.0
1606990754607241542,3846687,1606987153863408317,imu_link,-0.004883809946477413,0.004701061174273491,-0.32315683364868164,0.9463211894035339,0.0,0.0,0.0,0.0,0.0,0.0,0.0,0.0,0.0,-37.7108039855957,0.3289342522621155,-0.7037168145179749,0.0,0.0,0.0,0.0,0.0,0.0,0.0,0.0,0.0,0.004959776997566223,-0.005477545317262411,0.10024641454219818,0.0,0.0,0.0,0.0,0.0,0.0,0.0,0.0,0.0
1606990754608613569,3846688,1606987153863469791,imu_link,-0.004883809946477413,0.004701061174273491,-0.32315683364868164,0.9463211894035339,0.0,0.0,0.0,0.0,0.0,0.0,0.0,0.0,0.0,-37.7108039855957,0.3289342522621155,-0.7037168145179749,0.0,0.0,0.0,0.0,0.0,0.0,0.0,0.0,0.0,0.004959776997566223,-0.005477545317262411,0.10024641454219818,0.0,0.0,0.0,0.0,0.0,0.0,0.0,0.0,0.0
1606990754608641396,3846689,1606987153863538362,imu_link,-0.004883033689111471,0.004702841863036156,-0.3231598436832428,0.9463201761245728,0.0,0.0,0.0,0.0,0.0,0.0,0.0,0.0,0.0,-37.71117401123047,0.3291538953781128,-0.7036996483802795,0.0,0.0,0.0,0.0,0.0,0.0,0.0,0.0,0.0,0.007921325974166393,-0.0011513177305459976,0.09544764459133148,0.0,0.0,0.0,0.0,0.0,0.0,0.0,0.0,0.0
1606990754608670892,3846690,1606987153863605962,imu_link,-0.004883033689111471,0.004702841863036156,-0.3231598436832428,0.9463201761245728,0.0,0.0,0.0,0.0,0.0,0.0,0.0,0.0,0.0,-37.71117401123047,0.3291538953781128,-0.7036996483802795,0.0,0.0,0.0,0.0,0.0,0.0,0.0,0.0,0.0,0.007921325974166393,-0.0011513177305459976,0.09544764459133148,0.0,0.0,0.0,0.0,0.0,0.0,0.0,0.0,0.0
1606990754608678098,3846691,1606987153876170777,imu_link,-0.004884356167167425,0.0047041792422533035,-0.32316017150878906,0.9463200569152832,0.0,0.0,0.0,0.0,0.0,0.0,0.0,0.0,0.0,-37.711212158203125,0.32924968004226685,-0.703892707824707,0.0,0.0,0.0,0.0,0.0,0.0,0.0,0.0,0.0,0.02186822146177292,-0.01808970421552658,0.09336067736148834,0.0,0.0,0.0,0.0,0.0,0.0,0.0,0.0,0.0
1606990754650644619,3846692,1606987153876284905,imu_link,-0.004884356167167425,0.0047041792422533035,-0.32316017150878906,0.9463200569152832,0.0,0.0,0.0,0.0,0.0,0.0,0.0,0.0,0.0,-37.711212158203125,0.32924968004226685,-0.703892707824707,0.0,0.0,0.0,0.0,0.0,0.0,0.0,0.0,0.0,0.02186822146177292,-0.01808970421552658,0.09336067736148834,0.0,0.0,0.0,0.0,0.0,0.0,0.0,0.0,0.0
1606990754650665638,3846693,1606987153876430209,imu_link,-0.004881899803876877,0.004703374579548836,-0.3231608271598816,0.9463198781013489,0.0,0.0,0.0,0.0,0.0,0.0,0.0,0.0,0.0,-37.71128845214844,0.3292528986930847,-0.7035967111587524,0.0,0.0,0.0,0.0,0.0,0.0,0.0,0.0,0.0,0.011307167820632458,-0.010183541104197502,0.06086147949099541,0.0,0.0,0.0,0.0,0.0,0.0,0.0,0.0,0.0
1606990754650676111,3846694,1606987153876508466,imu_link,-0.004881899803876877,0.004703374579548836,-0.3231608271598816,0.9463198781013489,0.0,0.0,0.0,0.0,0.0,0.0,0.0,0.0,0.0,-37.71128845214844,0.3292528986930847,-0.7035967111587524,0.0,0.0,0.0,0.0,0.0,0.0,0.0,0.0,0.0,0.011307167820632458,-0.010183541104197502,0.06086147949099541,0.0,0.0,0.0,0.0,0.0,0.0,0.0,0.0,0.0
1606990754650680826,3846695,1606987153876570602,imu_link,-0.004879324696958065,0.004702362231910229,-0.32316240668296814,0.9463193416595459,0.0,0.0,0.0,0.0,0.0,0.0,0.0,0.0,0.0,-37.71147918701172,0.32923734188079834,-0.7032805681228638,0.0,0.0,0.0,0.0,0.0,0.0,0.0,0.0,0.0,0.0010508743580430746,-0.0013243709690868855,0.05751212313771248,0.0,0.0,0.0,0.0,0.0,0.0,0.0,0.0,0.0
1606990754650687738,3846696,1606987153876636342,imu_link,-0.004879324696958065,0.004702362231910229,-0.32316240668296814,0.9463193416595459,0.0,0.0,0.0,0.0,0.0,0.0,0.0,0.0,0.0,-37.71147918701172,0.32923734188079834,-0.7032805681228638,0.0,0.0,0.0,0.0,0.0,0.0,0.0,0.0,0.0,0.0010508743580430746,-0.0013243709690868855,0.05751212313771248,0.0,0.0,0.0,0.0,0.0,0.0,0.0,0.0,0.0
1606990754685557403,3846697,1606987153876732253,imu_link,-0.004877394996583462,0.004701411351561546,-0.3231635093688965,0.9463189244270325,0.0,0.0,0.0,0.0,0.0,0.0,0.0,0.0,0.0,-37.711612701416016,0.32920485734939575,-0.7030364871025085,0.0,0.0,0.0,0.0,0.0,0.0,0.0,0.0,0.0,-0.0010733394883573055,-0.0032917261123657227,0.07921009510755539,0.0,0.0,0.0,0.0,0.0,0.0,0.0,0.0,0.0
1606990754685582340,3846698,1606987153876803686,imu_link,-0.004877394996583462,0.004701411351561546,-0.3231635093688965,0.9463189244270325,0.0,0.0,0.0,0.0,0.0,0.0,0.0,0.0,0.0,-37.711612701416016,0.32920485734939575,-0.7030364871025085,0.0,0.0,0.0,0.0,0.0,0.0,0.0,0.0,0.0,-0.0010733394883573055,-0.0032917261123657227,0.07921009510755539,0.0,0.0,0.0,0.0,0.0,0.0,0.0,0.0,0.0
1606990754685636829,3846699,1606987153876874205,imu_link,-0.004877246450632811,0.004701035562902689,-0.3231638967990875,0.9463187456130981,0.0,0.0,0.0,0.0,0.0,0.0,0.0,0.0,0.0,-37.7116584777832,0.32916927337646484,-0.7030065655708313,0.0,0.0,0.0,0.0,0.0,0.0,0.0,0.0,0.0,-0.026454921811819077,-0.008031297475099564,0.06286083161830902,0.0,0.0,0.0,0.0,0.0,0.0,0.0,0.0,0.0
1606990754685669139,3846700,1606987153876935844,imu_link,-0.004877246450632811,0.004701035562902689,-0.3231638967990875,0.9463187456130981,0.0,0.0,0.0,0.0,0.0,0.0,0.0,0.0,0.0,-37.7116584777832,0.32916927337646484,-0.7030065655708313,0.0,0.0,0.0,0.0,0.0,0.0,0.0,0.0,0.0,-0.026454921811819077,-0.008031297475099564,0.06286083161830902,0.0,0.0,0.0,0.0,0.0,0.0,0.0,0.0,0.0
1606990754685682745,3846701,1606987153877000774,imu_link,-0.004877438768744469,0.004699091427028179,-0.3231637477874756,0.9463188648223877,0.0,0.0,0.0,0.0,0.0,0.0,0.0,0.0,0.0,-37.711639404296875,0.32895150780677795,-0.7029553651809692,0.0,0.0,0.0,0.0,0.0,0.0,0.0,0.0,0.0,-0.02539648488163948,-0.004442204721271992,0.05297381058335304,0.0,0.0,0.0,0.0,0.0,0.0,0.0,0.0,0.0
1606990754692423986,3846702,1606987153889982493,imu_link,-0.004877438768744469,0.004699091427028179,-0.3231637477874756,0.9463188648223877,0.0,0.0,0.0,0.0,0.0,0.0,0.0,0.0,0.0,-37.711639404296875,0.32895150780677795,-0.7029553651809692,0.0,0.0,0.0,0.0,0.0,0.0,0.0,0.0,0.0,-0.02539648488163948,-0.004442204721271992,0.05297381058335304,0.0,0.0,0.0,0.0,0.0,0.0,0.0,0.0,0.0
1606990754692450367,3846703,1606987153890137825,imu_link,-0.004878105595707893,0.004701283294707537,-0.323160856962204,0.9463198184967041,0.0,0.0,0.0,0.0,0.0,0.0,0.0,0.0,0.0,-37.7112922668457,0.32916659116744995,-0.7031078338623047,0.0,0.0,0.0,0.0,0.0,0.0,0.0,0.0,0.0,-0.004805536475032568,0.004089443013072014,0.05239269137382507,0.0,0.0,0.0,0.0,0.0,0.0,0.0,0.0,0.0
1606990754692468334,3846704,1606987153890275107,imu_link,-0.004878105595707893,0.004701283294707537,-0.323160856962204,0.9463198184967041,0.0,0.0,0.0,0.0,0.0,0.0,0.0,0.0,0.0,-37.7112922668457,0.32916659116744995,-0.7031078338623047,0.0,0.0,0.0,0.0,0.0,0.0,0.0,0.0,0.0,-0.004805536475032568,0.004089443013072014,0.05239269137382507,0.0,0.0,0.0,0.0,0.0,0.0,0.0,0.0,0.0
1606990754692488619,3846705,1606987153890405713,imu_link,-0.004878025036305189,0.004702496808022261,-0.3231603801250458,0.9463199973106384,0.0,0.0,0.0,0.0,0.0,0.0,0.0,0.0,0.0,-37.71123504638672,0.32930153608322144,-0.7031438946723938,0.0,0.0,0.0,0.0,0.0,0.0,0.0,0.0,0.0,-0.004927920643240213,0.010697107762098312,0.04039367660880089,0.0,0.0,0.0,0.0,0.0,0.0,0.0,0.0,0.0
1606990754692508290,3846706,1606987153890530390,imu_link,-0.004878025036305189,0.004702496808022261,-0.3231603801250458,0.9463199973106384,0.0,0.0,0.0,0.0,0.0,0.0,0.0,0.0,0.0,-37.71123504638672,0.32930153608322144,-0.7031438946723938,0.0,0.0,0.0,0.0,0.0,0.0,0.0,0.0,0.0,-0.004927920643240213,0.010697107762098312,0.04039367660880089,0.0,0.0,0.0,0.0,0.0,0.0,0.0,0.0,0.0
1606990754692548900,3846707,1606987153890652540,imu_link,-0.0048778667114675045,0.0047029247507452965,-0.32316070795059204,0.9463198781013489,0.0,0.0,0.0,0.0,0.0,0.0,0.0,0.0,0.0,-37.71127700805664,0.32935357093811035,-0.7031427025794983,0.0,0.0,0.0,0.0,0.0,0.0,0.0,0.0,0.0,0.002569379983469844,0.0008956281235441566,0.029994869604706764,0.0,0.0,0.0,0.0,0.0,0.0,0.0,0.0,0.0
1606990754692600104,3846708,1606987153890788282,imu_link,-0.0048778667114675045,0.0047029247507452965,-0.32316070795059204,0.9463198781013489,0.0,0.0,0.0,0.0,0.0,0.0,0.0,0.0,0.0,-37.71127700805664,0.32935357093811035,-0.7031427025794983,0.0,0.0,0.0,0.0,0.0,0.0,0.0,0.0,0.0,0.002569379983469844,0.0008956281235441566,0.029994869604706764,0.0,0.0,0.0,0.0,0.0,0.0,0.0,0.0,0.0
1606990754692612084,3846709,1606987153890910277,imu_link,-0.00487923389300704,0.004702530335634947,-0.3231664299964905,0.9463179111480713,0.0,0.0,0.0,0.0,0.0,0.0,0.0,0.0,0.0,-37.71196365356445,0.3292559087276459,-0.7032783627510071,0.0,0.0,0.0,0.0,0.0,0.0,0.0,0.0,0.0,0.007762459572404623,-0.013204071670770645,0.03166760131716728,0.0,0.0,0.0,0.0,0.0,0.0,0.0,0.0,0.0
1606990754692625412,3846710,1606987153891061499,imu_link,-0.00487923389300704,0.004702530335634947,-0.3231664299964905,0.9463179111480713,0.0,0.0,0.0,0.0,0.0,0.0,0.0,0.0,0.0,-37.71196365356445,0.3292559087276459,-0.7032783627510071,0.0,0.0,0.0,0.0,0.0,0.0,0.0,0.0,0.0,0.007762459572404623,-0.013204071670770645,0.03166760131716728,0.0,0.0,0.0,0.0,0.0,0.0,0.0,0.0,0.0
1606990754692651175,3846711,1606987153891185907,imu_link,-0.004878492094576359,0.004703033249825239,-0.32316702604293823,0.946317732334137,0.0,0.0,0.0,0.0,0.0,0.0,0.0,0.0,0.0,-37.712039947509766,0.329337477684021,-0.7032167911529541,0.0,0.0,0.0,0.0,0.0,0.0,0.0,0.0,0.0,0.006811158731579781,-0.01208404079079628,0.036751825362443924,0.0,0.0,0.0,0.0,0.0,0.0,0.0,0.0,0.0
1606990754692668365,3846712,1606987153891306887,imu_link,-0.004878492094576359,0.004703033249825239,-0.32316702604293823,0.946317732334137,0.0,0.0,0.0,0.0,0.0,0.0,0.0,0.0,0.0,-37.712039947509766,0.329337477684021,-0.7032167911529541,0.0,0.0,0.0,0.0,0.0,0.0,0.0,0.0,0.0,0.006811158731579781,-0.01208404079079628,0.036751825362443924,0.0,0.0,0.0,0.0,0.0,0.0,0.0,0.0,0.0
1606990754692703597,3846713,1606987153903369965,imu_link,-0.004875948652625084,0.004703001584857702,-0.3231745660305023,0.9463151693344116,0.0,0.0,0.0,0.0,0.0,0.0,0.0,0.0,0.0,-37.71295166015625,0.3294226825237274,-0.7029423117637634,0.0,0.0,0.0,0.0,0.0,0.0,0.0,0.0,0.0,0.02090686559677124,-0.00990911666303873,0.054386913776397705,0.0,0.0,0.0,0.0,0.0,0.0,0.0,0.0,0.0
1606990754692720748,3846714,1606987153903516343,imu_link,-0.004875948652625084,0.004703001584857702,-0.3231745660305023,0.9463151693344116,0.0,0.0,0.0,0.0,0.0,0.0,0.0,0.0,0.0,-37.71295166015625,0.3294226825237274,-0.7029423117637634,0.0,0.0,0.0,0.0,0.0,0.0,0.0,0.0,0.0,0.02090686559677124,-0.00990911666303873,0.054386913776397705,0.0,0.0,0.0,0.0,0.0,0.0,0.0,0.0,0.0
1606990754733596626,3846715,1606987153903656579,imu_link,-0.0048771630972623825,0.004703320097178221,-0.32317450642585754,0.9463151693344116,0.0,0.0,0.0,0.0,0.0,0.0,0.0,0.0,0.0,-37.71294403076172,0.3294122517108917,-0.7030858397483826,0.0,0.0,0.0,0.0,0.0,0.0,0.0,0.0,0.0,0.009665746241807938,-0.017192324623465538,0.06483489274978638,0.0,0.0,0.0,0.0,0.0,0.0,0.0,0.0,0.0
1606990754733621177,3846716,1606987153903794378,imu_link,-0.0048771630972623825,0.004703320097178221,-0.32317450642585754,0.9463151693344116,0.0,0.0,0.0,0.0,0.0,0.0,0.0,0.0,0.0,-37.71294403076172,0.3294122517108917,-0.7030858397483826,0.0,0.0,0.0,0.0,0.0,0.0,0.0,0.0,0.0,0.009665746241807938,-0.017192324623465538,0.06483489274978638,0.0,0.0,0.0,0.0,0.0,0.0,0.0,0.0,0.0
1606990754733636304,3846717,1606987153903930715,imu_link,-0.004875235725194216,0.004704165738075972,-0.3231830298900604,0.9463123083114624,0.0,0.0,0.0,0.0,0.0,0.0,0.0,0.0,0.0,-37.7139778137207,0.3295690417289734,-0.7029111385345459,0.0,0.0,0.0,0.0,0.0,0.0,0.0,0.0,0.0,-0.00882102269679308,-0.014725548215210438,0.03401913866400719,0.0,0.0,0.0,0.0,0.0,0.0,0.0,0.0,0.0
1606990754733655893,3846718,1606987153904063912,imu_link,-0.004875235725194216,0.004704165738075972,-0.3231830298900604,0.9463123083114624,0.0,0.0,0.0,0.0,0.0,0.0,0.0,0.0,0.0,-37.7139778137207,0.3295690417289734,-0.7029111385345459,0.0,0.0,0.0,0.0,0.0,0.0,0.0,0.0,0.0,-0.00882102269679308,-0.014725548215210438,0.03401913866400719,0.0,0.0,0.0,0.0,0.0,0.0,0.0,0.0,0.0
1606990754743997614,3846719,1606987153904217187,imu_link,-0.004874373786151409,0.0047033848240971565,-0.3231845498085022,0.9463117718696594,0.0,0.0,0.0,0.0,0.0,0.0,0.0,0.0,0.0,-37.71416091918945,0.32951509952545166,-0.7027891874313354,0.0,0.0,0.0,0.0,0.0,0.0,0.0,0.0,0.0,-0.006092933472245932,-0.013641312718391418,0.010751578956842422,0.0,0.0,0.0,0.0,0.0,0.0,0.0,0.0,0.0
1606990754744022739,3846720,1606987153904350505,imu_link,-0.004874373786151409,0.0047033848240971565,-0.3231845498085022,0.9463117718696594,0.0,0.0,0.0,0.0,0.0,0.0,0.0,0.0,0.0,-37.71416091918945,0.32951509952545166,-0.7027891874313354,0.0,0.0,0.0,0.0,0.0,0.0,0.0,0.0,0.0,-0.006092933472245932,-0.013641312718391418,0.010751578956842422,0.0,0.0,0.0,0.0,0.0,0.0,0.0,0.0,0.0
1606990754744030773,3846721,1606987153904487631,imu_link,-0.0048729064874351025,0.004703305196017027,-0.32318902015686035,0.9463101625442505,0.0,0.0,0.0,0.0,0.0,0.0,0.0,0.0,0.0,-37.71470260620117,0.3295574486255646,-0.7026287913322449,0.0,0.0,0.0,0.0,0.0,0.0,0.0,0.0,0.0,0.0009925148915499449,-0.001605647848919034,0.04561493545770645,0.0,0.0,0.0,0.0,0.0,0.0,0.0,0.0,0.0
1606990754744046905,3846722,1606987153904619007,imu_link,-0.0048729064874351025,0.004703305196017027,-0.32318902015686035,0.9463101625442505,0.0,0.0,0.0,0.0,0.0,0.0,0.0,0.0,0.0,-37.71470260620117,0.3295574486255646,-0.7026287913322449,0.0,0.0,0.0,0.0,0.0,0.0,0.0,0.0,0.0,0.0009925148915499449,-0.001605647848919034,0.04561493545770645,0.0,0.0,0.0,0.0,0.0,0.0,0.0,0.0,0.0
1606990754744051656,3846723,1606987153904750230,imu_link,-0.004873409867286682,0.004703280050307512,-0.3231881260871887,0.9463105797767639,0.0,0.0,0.0,0.0,0.0,0.0,0.0,0.0,0.0,-37.714595794677734,0.3295368254184723,-0.7026820182800293,0.0,0.0,0.0,0.0,0.0,0.0,0.0,0.0,0.0,-0.00013198741362430155,-0.002675382886081934,0.06029282510280609,0.0,0.0,0.0,0.0,0.0,0.0,0.0,0.0,0.0
1606990754744061769,3846724,1606987153917117216,imu_link,-0.004873409867286682,0.004703280050307512,-0.3231881260871887,0.9463105797767639,0.0,0.0,0.0,0.0,0.0,0.0,0.0,0.0,0.0,-37.714595794677734,0.3295368254184723,-0.7026820182800293,0.0,0.0,0.0,0.0,0.0,0.0,0.0,0.0,0.0,-0.00013198741362430155,-0.002675382886081934,0.06029282510280609,0.0,0.0,0.0,0.0,0.0,0.0,0.0,0.0,0.0
1606990754744075699,3846725,1606987153917261134,imu_link,-0.004874193575233221,0.00470220111310482,-0.32318922877311707,0.9463101625442505,0.0,0.0,0.0,0.0,0.0,0.0,0.0,0.0,0.0,-37.714725494384766,0.32938989996910095,-0.7027274370193481,0.0,0.0,0.0,0.0,0.0,0.0,0.0,0.0,0.0,0.007270752917975187,-0.022432776167988777,0.04337550699710846,0.0,0.0,0.0,0.0,0.0,0.0,0.0,0.0,0.0
1606990754744083439,3846726,1606987153917402672,imu_link,-0.004874193575233221,0.00470220111310482,-0.32318922877311707,0.9463101625442505,0.0,0.0,0.0,0.0,0.0,0.0,0.0,0.0,0.0,-37.714725494384766,0.32938989996910095,-0.7027274370193481,0.0,0.0,0.0,0.0,0.0,0.0,0.0,0.0,0.0,0.007270752917975187,-0.022432776167988777,0.04337550699710846,0.0,0.0,0.0,0.0,0.0,0.0,0.0,0.0,0.0
1606990754777539248,3846727,1606987153917543887,imu_link,-0.004873219877481461,0.00470325443893671,-0.32318878173828125,0.9463103413581848,0.0,0.0,0.0,0.0,0.0,0.0,0.0,0.0,0.0,-37.71466827392578,0.3295406103134155,-0.7026606798171997,0.0,0.0,0.0,0.0,0.0,0.0,0.0,0.0,0.0,0.008914642967283726,-0.010830670595169067,0.03289094939827919,0.0,0.0,0.0,0.0,0.0,0.0,0.0,0.0,0.0
1606990754777563180,3846728,1606987153917677784,imu_link,-0.004873219877481461,0.00470325443893671,-0.32318878173828125,0.9463103413581848,0.0,0.0,0.0,0.0,0.0,0.0,0.0,0.0,0.0,-37.71466827392578,0.3295406103134155,-0.7026606798171997,0.0,0.0,0.0,0.0,0.0,0.0,0.0,0.0,0.0,0.008914642967283726,-0.010830670595169067,0.03289094939827919,0.0,0.0,0.0,0.0,0.0,0.0,0.0,0.0,0.0
1606990754777573753,3846729,1606987153917841865,imu_link,-0.004870828241109848,0.004702743608504534,-0.3231896460056305,0.9463100433349609,0.0,0.0,0.0,0.0,0.0,0.0,0.0,0.0,0.0,-37.71477508544922,0.3295731246471405,-0.7023828029632568,0.0,0.0,0.0,0.0,0.0,0.0,0.0,0.0,0.0,0.0006712988251820207,-0.016444316133856773,0.03571997955441475,0.0,0.0,0.0,0.0,0.0,0.0,0.0,0.0,0.0
1606990754777591460,3846730,1606987153917983331,imu_link,-0.004870828241109848,0.004702743608504534,-0.3231896460056305,0.9463100433349609,0.0,0.0,0.0,0.0,0.0,0.0,0.0,0.0,0.0,-37.71477508544922,0.3295731246471405,-0.7023828029632568,0.0,0.0,0.0,0.0,0.0,0.0,0.0,0.0,0.0,0.0006712988251820207,-0.016444316133856773,0.03571997955441475,0.0,0.0,0.0,0.0,0.0,0.0,0.0,0.0,0.0
1606990754777600942,3846731,1606987153918119557,imu_link,-0.0048699164763092995,0.004700940102338791,-0.32319018244743347,0.9463098645210266,0.0,0.0,0.0,0.0,0.0,0.0,0.0,0.0,0.0,-37.71483612060547,0.32941094040870667,-0.7022172808647156,0.0,0.0,0.0,0.0,0.0,0.0,0.0,0.0,0.0,0.001713080913759768,-0.02695891261100769,0.03316790983080864,0.0,0.0,0.0,0.0,0.0,0.0,0.0,0.0,0.0
1606990754781743362,3846732,1606987153918252519,imu_link,-0.0048699164763092995,0.004700940102338791,-0.32319018244743347,0.9463098645210266,0.0,0.0,0.0,0.0,0.0,0.0,0.0,0.0,0.0,-37.71483612060547,0.32941094040870667,-0.7022172808647156,0.0,0.0,0.0,0.0,0.0,0.0,0.0,0.0,0.0,0.001713080913759768,-0.02695891261100769,0.03316790983080864,0.0,0.0,0.0,0.0,0.0,0.0,0.0,0.0,0.0
1606990754781760926,3846733,1606987153918387440,imu_link,-0.004868765827268362,0.004699379671365023,-0.3231830596923828,0.9463123083114624,0.0,0.0,0.0,0.0,0.0,0.0,0.0,0.0,0.0,-37.7139778137207,0.32928958535194397,-0.7020322680473328,0.0,0.0,0.0,0.0,0.0,0.0,0.0,0.0,0.0,0.008979863487184048,-0.015888748690485954,0.022478241473436356,0.0,0.0,0.0,0.0,0.0,0.0,0.0,0.0,0.0
1606990754781791723,3846734,1606987153918519015,imu_link,-0.004868765827268362,0.004699379671365023,-0.3231830596923828,0.9463123083114624,0.0,0.0,0.0,0.0,0.0,0.0,0.0,0.0,0.0,-37.7139778137207,0.32928958535194397,-0.7020322680473328,0.0,0.0,0.0,0.0,0.0,0.0,0.0,0.0,0.0,0.008979863487184048,-0.015888748690485954,0.022478241473436356,0.0,0.0,0.0,0.0,0.0,0.0,0.0,0.0,0.0
1606990754781805487,3846735,1606987153930030269,imu_link,-0.004870336037129164,0.004698464646935463,-0.32318171858787537,0.9463127851486206,0.0,0.0,0.0,0.0,0.0,0.0,0.0,0.0,0.0,-37.713809967041016,0.3291332423686981,-0.7021681070327759,0.0,0.0,0.0,0.0,0.0,0.0,0.0,0.0,0.0,0.005469853524118662,0.001806181506253779,0.028229590505361557,0.0,0.0,0.0,0.0,0.0,0.0,0.0,0.0,0.0
1606990754829024249,3846736,1606987153930175770,imu_link,-0.004870336037129164,0.004698464646935463,-0.32318171858787537,0.9463127851486206,0.0,0.0,0.0,0.0,0.0,0.0,0.0,0.0,0.0,-37.713809967041016,0.3291332423686981,-0.7021681070327759,0.0,0.0,0.0,0.0,0.0,0.0,0.0,0.0,0.0,0.005469853524118662,0.001806181506253779,0.028229590505361557,0.0,0.0,0.0,0.0,0.0,0.0,0.0,0.0,0.0
1606990754829084306,3846737,1606987153930317511,imu_link,-0.004870106931775808,0.004700301215052605,-0.3231757879257202,0.9463147521018982,0.0,0.0,0.0,0.0,0.0,0.0,0.0,0.0,0.0,-37.713096618652344,0.3293452560901642,-0.7022092342376709,0.0,0.0,0.0,0.0,0.0,0.0,0.0,0.0,0.0,0.0006420132122002542,0.006440331228077412,0.040340907871723175,0.0,0.0,0.0,0.0,0.0,0.0,0.0,0.0,0.0
1606990754829103012,3846738,1606987153930456187,imu_link,-0.004870106931775808,0.004700301215052605,-0.3231757879257202,0.9463147521018982,0.0,0.0,0.0,0.0,0.0,0.0,0.0,0.0,0.0,-37.713096618652344,0.3293452560901642,-0.7022092342376709,0.0,0.0,0.0,0.0,0.0,0.0,0.0,0.0,0.0,0.0006420132122002542,0.006440331228077412,0.040340907871723175,0.0,0.0,0.0,0.0,0.0,0.0,0.0,0.0,0.0
1606990754829158068,3846739,1606987153930592851,imu_link,-0.004871139768511057,0.0047004204243421555,-0.3231751024723053,0.9463149905204773,0.0,0.0,0.0,0.0,0.0,0.0,0.0,0.0,0.0,-37.713016510009766,0.32932040095329285,-0.7023254632949829,0.0,0.0,0.0,0.0,0.0,0.0,0.0,0.0,0.0,0.003371712053194642,-0.005478879436850548,0.07089397311210632,0.0,0.0,0.0,0.0,0.0,0.0,0.0,0.0,0.0
1606990754834373481,3846740,1606987153930748335,imu_link,-0.004871139768511057,0.0047004204243421555,-0.3231751024723053,0.9463149905204773,0.0,0.0,0.0,0.0,0.0,0.0,0.0,0.0,0.0,-37.713016510009766,0.32932040095329285,-0.7023254632949829,0.0,0.0,0.0,0.0,0.0,0.0,0.0,0.0,0.0,0.003371712053194642,-0.005478879436850548,0.07089397311210632,0.0,0.0,0.0,0.0,0.0,0.0,0.0,0.0,0.0
1606990754834403481,3846741,1606987153930883697,imu_link,-0.0048705353401601315,0.004700622987002134,-0.32317858934402466,0.9463137984275818,0.0,0.0,0.0,0.0,0.0,0.0,0.0,0.0,0.0,-37.713436126708984,0.3293621838092804,-0.7022687196731567,0.0,0.0,0.0,0.0,0.0,0.0,0.0,0.0,0.0,-0.0010353352408856153,0.004726425278931856,0.06642711907625198,0.0,0.0,0.0,0.0,0.0,0.0,0.0,0.0,0.0
1606990754834416589,3846742,1606987153931041913,imu_link,-0.0048705353401601315,0.004700622987002134,-0.32317858934402466,0.9463137984275818,0.0,0.0,0.0,0.0,0.0,0.0,0.0,0.0,0.0,-37.713436126708984,0.3293621838092804,-0.7022687196731567,0.0,0.0,0.0,0.0,0.0,0.0,0.0,0.0,0.0,-0.0010353352408856153,0.004726425278931856,0.06642711907625198,0.0,0.0,0.0,0.0,0.0,0.0,0.0,0.0,0.0
1606990754834425206,3846743,1606987153931178062,imu_link,-0.004871378652751446,0.004698458593338728,-0.3231775760650635,0.9463141560554504,0.0,0.0,0.0,0.0,0.0,0.0,0.0,0.0,0.0,-37.71331024169922,0.3290970027446747,-0.7022794485092163,0.0,0.0,0.0,0.0,0.0,0.0,0.0,0.0,0.0,-0.004896523430943489,0.0019155738409608603,0.060923561453819275,0.0,0.0,0.0,0.0,0.0,0.0,0.0,0.0,0.0
1606990754911506986,3846744,1606987153931310338,imu_link,-0.004871378652751446,0.004698458593338728,-0.3231775760650635,0.9463141560554504,0.0,0.0,0.0,0.0,0.0,0.0,0.0,0.0,0.0,-37.71331024169922,0.3290970027446747,-0.7022794485092163,0.0,0.0,0.0,0.0,0.0,0.0,0.0,0.0,0.0,-0.004896523430943489,0.0019155738409608603,0.060923561453819275,0.0,0.0,0.0,0.0,0.0,0.0,0.0,0.0,0.0
1606990754911535425,3846745,1606987153943413659,imu_link,-0.004873606842011213,0.004699531011283398,-0.32318180799484253,0.9463127255439758,0.0,0.0,0.0,0.0,0.0,0.0,0.0,0.0,0.0,-37.71382141113281,0.32912763953208923,-0.7025622725486755,0.0,0.0,0.0,0.0,0.0,0.0,0.0,0.0,0.0,-0.016063326969742775,-0.007644159719347954,0.06509324908256531,0.0,0.0,0.0,0.0,0.0,0.0,0.0,0.0,0.0
1606990754911546092,3846746,1606987153943559941,imu_link,-0.004873606842011213,0.004699531011283398,-0.32318180799484253,0.9463127255439758,0.0,0.0,0.0,0.0,0.0,0.0,0.0,0.0,0.0,-37.71382141113281,0.32912763953208923,-0.7025622725486755,0.0,0.0,0.0,0.0,0.0,0.0,0.0,0.0,0.0,-0.016063326969742775,-0.007644159719347954,0.06509324908256531,0.0,0.0,0.0,0.0,0.0,0.0,0.0,0.0,0.0
1606990754911557043,3846747,1606987153943700457,imu_link,-0.00487199192866683,0.004701727069914341,-0.3231828808784485,0.9463123083114624,0.0,0.0,0.0,0.0,0.0,0.0,0.0,0.0,0.0,-37.713958740234375,0.32942479848861694,-0.702468991279602,0.0,0.0,0.0,0.0,0.0,0.0,0.0,0.0,0.0,-0.01350653637200594,0.00031273189233615994,0.0617547333240509,0.0,0.0,0.0,0.0,0.0,0.0,0.0,0.0,0.0
1606990754911569537,3846748,1606987153943837935,imu_link,-0.00487199192866683,0.004701727069914341,-0.3231828808784485,0.9463123083114624,0.0,0.0,0.0,0.0,0.0,0.0,0.0,0.0,0.0,-37.713958740234375,0.32942479848861694,-0.702468991279602,0.0,0.0,0.0,0.0,0.0,0.0,0.0,0.0,0.0,-0.01350653637200594,0.00031273189233615994,0.0617547333240509,0.0,0.0,0.0,0.0,0.0,0.0,0.0,0.0,0.0
1606990754914079430,3846749,1606987153943976777,imu_link,-0.004871411714702845,0.004702615085989237,-0.3231828808784485,0.9463123083114624,0.0,0.0,0.0,0.0,0.0,0.0,0.0,0.0,0.0,-37.713958740234375,0.32954251766204834,-0.7024388909339905,0.0,0.0,0.0,0.0,0.0,0.0,0.0,0.0,0.0,0.006581076420843601,-0.0011394501198083162,0.057075053453445435,0.0,0.0,0.0,0.0,0.0,0.0,0.0,0.0,0.0
1606990754914098880,3846750,1606987153944115088,imu_link,-0.004871411714702845,0.004702615085989237,-0.3231828808784485,0.9463123083114624,0.0,0.0,0.0,0.0,0.0,0.0,0.0,0.0,0.0,-37.713958740234375,0.32954251766204834,-0.7024388909339905,0.0,0.0,0.0,0.0,0.0,0.0,0.0,0.0,0.0,0.006581076420843601,-0.0011394501198083162,0.057075053453445435,0.0,0.0,0.0,0.0,0.0,0.0,0.0,0.0,0.0
1606990754914112962,3846751,1606987153944267952,imu_link,-0.00487483898177743,0.004700927063822746,-0.3231823742389679,0.9463124871253967,0.0,0.0,0.0,0.0,0.0,0.0,0.0,0.0,0.0,-37.71389389038086,0.32923296093940735,-0.7027478814125061,0.0,0.0,0.0,0.0,0.0,0.0,0.0,0.0,0.0,0.009241299703717232,-0.006153803318738937,0.06556973606348038,0.0,0.0,0.0,0.0,0.0,0.0,0.0,0.0,0.0
1606990754914127501,3846752,1606987153944403060,imu_link,-0.00487483898177743,0.004700927063822746,-0.3231823742389679,0.9463124871253967,0.0,0.0,0.0,0.0,0.0,0.0,0.0,0.0,0.0,-37.71389389038086,0.32923296093940735,-0.7027478814125061,0.0,0.0,0.0,0.0,0.0,0.0,0.0,0.0,0.0,0.009241299703717232,-0.006153803318738937,0.06556973606348038,0.0,0.0,0.0,0.0,0.0,0.0,0.0,0.0,0.0
1606990754914142461,3846753,1606987153944539416,imu_link,-0.004872159566730261,0.004702154081314802,-0.3231832981109619,0.9463121891021729,0.0,0.0,0.0,0.0,0.0,0.0,0.0,0.0,0.0,-37.71400833129883,0.32946455478668213,-0.7025030851364136,0.0,0.0,0.0,0.0,0.0,0.0,0.0,0.0,0.0,-0.02081608772277832,0.005828735418617725,0.06552384048700333,0.0,0.0,0.0,0.0,0.0,0.0,0.0,0.0,0.0
1606990754914152596,3846754,1606987153944674182,imu_link,-0.004872159566730261,0.004702154081314802,-0.3231832981109619,0.9463121891021729,0.0,0.0,0.0,0.0,0.0,0.0,0.0,0.0,0.0,-37.71400833129883,0.32946455478668213,-0.7025030851364136,0.0,0.0,0.0,0.0,0.0,0.0,0.0,0.0,0.0,-0.02081608772277832,0.005828735418617725,0.06552384048700333,0.0,0.0,0.0,0.0,0.0,0.0,0.0,0.0,0.0
1606990754914170267,3846755,1606987153944805366,imu_link,-0.0048737782053649426,0.004702698439359665,-0.3231818377971649,0.946312665939331,0.0,0.0,0.0,0.0,0.0,0.0,0.0,0.0,0.0,-37.71383285522461,0.32946473360061646,-0.702698290348053,0.0,0.0,0.0,0.0,0.0,0.0,0.0,0.0,0.0,-0.02156888134777546,0.014809176325798035,0.04586010053753853,0.0,0.0,0.0,0.0,0.0,0.0,0.0,0.0,0.0
1606990754914185635,3846756,1606987153957287101,imu_link,-0.0048737782053649426,0.004702698439359665,-0.3231818377971649,0.946312665939331,0.0,0.0,0.0,0.0,0.0,0.0,0.0,0.0,0.0,-37.71383285522461,0.32946473360061646,-0.702698290348053,0.0,0.0,0.0,0.0,0.0,0.0,0.0,0.0,0.0,-0.02156888134777546,0.014809176325798035,0.04586010053753853,0.0,0.0,0.0,0.0,0.0,0.0,0.0,0.0,0.0
1606990754914193920,3846757,1606987153957431146,imu_link,-0.004875862970948219,0.004701682832092047,-0.32318079471588135,0.9463130235671997,0.0,0.0,0.0,0.0,0.0,0.0,0.0,0.0,0.0,-37.71370315551758,0.3292781710624695,-0.7028863430023193,0.0,0.0,0.0,0.0,0.0,0.0,0.0,0.0,0.0,0.004331597592681646,0.0020847893320024014,0.07147865742444992,0.0,0.0,0.0,0.0,0.0,0.0,0.0,0.0,0.0
1606990754914200870,3846758,1606987153957568944,imu_link,-0.004875862970948219,0.004701682832092047,-0.32318079471588135,0.9463130235671997,0.0,0.0,0.0,0.0,0.0,0.0,0.0,0.0,0.0,-37.71370315551758,0.3292781710624695,-0.7028863430023193,0.0,0.0,0.0,0.0,0.0,0.0,0.0,0.0,0.0,0.004331597592681646,0.0020847893320024014,0.07147865742444992,0.0,0.0,0.0,0.0,0.0,0.0,0.0,0.0,0.0
1606990754914209046,3846759,1606987153957705767,imu_link,-0.0048762718215584755,0.004700524266809225,-0.3231828808784485,0.9463123083114624,0.0,0.0,0.0,0.0,0.0,0.0,0.0,0.0,0.0,-37.713958740234375,0.32913580536842346,-0.702888548374176,0.0,0.0,0.0,0.0,0.0,0.0,0.0,0.0,0.0,0.007419778499752283,-0.010247848927974701,0.04916248470544815,0.0,0.0,0.0,0.0,0.0,0.0,0.0,0.0,0.0
1606990754914215581,3846760,1606987153957841134,imu_link,-0.0048762718215584755,0.004700524266809225,-0.3231828808784485,0.9463123083114624,0.0,0.0,0.0,0.0,0.0,0.0,0.0,0.0,0.0,-37.713958740234375,0.32913580536842346,-0.702888548374176,0.0,0.0,0.0,0.0,0.0,0.0,0.0,0.0,0.0,0.007419778499752283,-0.010247848927974701,0.04916248470544815,0.0,0.0,0.0,0.0,0.0,0.0,0.0,0.0,0.0
1606990754931347532,3846761,1606987153957980130,imu_link,-0.004875716753304005,0.0047005475498735905,-0.3231821358203888,0.9463125467300415,0.0,0.0,0.0,0.0,0.0,0.0,0.0,0.0,0.0,-37.7138671875,0.3291594386100769,-0.7028288841247559,0.0,0.0,0.0,0.0,0.0,0.0,0.0,0.0,0.0,0.026103517040610313,-0.0070701055228710175,0.015913810580968857,0.0,0.0,0.0,0.0,0.0,0.0,0.0,0.0,0.0
1606990754931365011,3846762,1606987153958135584,imu_link,-0.004875716753304005,0.0047005475498735905,-0.3231821358203888,0.9463125467300415,0.0,0.0,0.0,0.0,0.0,0.0,0.0,0.0,0.0,-37.7138671875,0.3291594386100769,-0.7028288841247559,0.0,0.0,0.0,0.0,0.0,0.0,0.0,0.0,0.0,0.026103517040610313,-0.0070701055228710175,0.015913810580968857,0.0,0.0,0.0,0.0,0.0,0.0,0.0,0.0,0.0
1606990754931375615,3846763,1606987153958270773,imu_link,-0.004876052029430866,0.004701593890786171,-0.3231809139251709,0.9463129639625549,0.0,0.0,0.0,0.0,0.0,0.0,0.0,0.0,0.0,-37.713722229003906,0.32926145195961,-0.7029035687446594,0.0,0.0,0.0,0.0,0.0,0.0,0.0,0.0,0.0,0.024123206734657288,0.0031575150787830353,0.023083876818418503,0.0,0.0,0.0,0.0,0.0,0.0,0.0,0.0,0.0
1606990754931380700,3846764,1606987153958403119,imu_link,-0.004876052029430866,0.004701593890786171,-0.3231809139251709,0.9463129639625549,0.0,0.0,0.0,0.0,0.0,0.0,0.0,0.0,0.0,-37.713722229003906,0.32926145195961,-0.7029035687446594,0.0,0.0,0.0,0.0,0.0,0.0,0.0,0.0,0.0,0.024123206734657288,0.0031575150787830353,0.023083876818418503,0.0,0.0,0.0,0.0,0.0,0.0,0.0,0.0,0.0
1606990754931398345,3846765,1606987153958534280,imu_link,-0.004874187987297773,0.004704791586846113,-0.32317814230918884,0.9463139176368713,0.0,0.0,0.0,0.0,0.0,0.0,0.0,0.0,0.0,-37.71338653564453,0.3296792805194855,-0.7028189301490784,0.0,0.0,0.0,0.0,0.0,0.0,0.0,0.0,0.0,-0.014476083219051361,0.005030741915106773,0.021697476506233215,0.0,0.0,0.0,0.0,0.0,0.0,0.0,0.0,0.0
1606990754956962125,3846766,1606987153958666894,imu_link,-0.004874187987297773,0.004704791586846113,-0.32317814230918884,0.9463139176368713,0.0,0.0,0.0,0.0,0.0,0.0,0.0,0.0,0.0,-37.71338653564453,0.3296792805194855,-0.7028189301490784,0.0,0.0,0.0,0.0,0.0,0.0,0.0,0.0,0.0,-0.014476083219051361,0.005030741915106773,0.021697476506233215,0.0,0.0,0.0,0.0,0.0,0.0,0.0,0.0,0.0
1606990754956979309,3846767,1606987153970766340,imu_link,-0.004873951431363821,0.00470494432374835,-0.32317864894866943,0.946313738822937,0.0,0.0,0.0,0.0,0.0,0.0,0.0,0.0,0.0,-37.71344757080078,0.3297041952610016,-0.7027990818023682,0.0,0.0,0.0,0.0,0.0,0.0,0.0,0.0,0.0,-0.012422028928995132,-0.005950904451310635,0.04499896988272667,0.0,0.0,0.0,0.0,0.0,0.0,0.0,0.0,0.0
1606990754956986786,3846768,1606987153970914242,imu_link,-0.004873951431363821,0.00470494432374835,-0.32317864894866943,0.946313738822937,0.0,0.0,0.0,0.0,0.0,0.0,0.0,0.0,0.0,-37.71344757080078,0.3297041952610016,-0.7027990818023682,0.0,0.0,0.0,0.0,0.0,0.0,0.0,0.0,0.0,-0.012422028928995132,-0.005950904451310635,0.04499896988272667,0.0,0.0,0.0,0.0,0.0,0.0,0.0,0.0,0.0
1606990754957003051,3846769,1606987153971087372,imu_link,-0.004874966107308865,0.00470516225323081,-0.32317590713500977,0.9463146924972534,0.0,0.0,0.0,0.0,0.0,0.0,0.0,0.0,0.0,-37.71311569213867,0.3296923339366913,-0.7029162049293518,0.0,0.0,0.0,0.0,0.0,0.0,0.0,0.0,0.0,0.0029177602846175432,-0.007027404382824898,0.055392783135175705,0.0,0.0,0.0,0.0,0.0,0.0,0.0,0.0,0.0
1606990754963208367,3846770,1606987153971224240,imu_link,-0.004874966107308865,0.00470516225323081,-0.32317590713500977,0.9463146924972534,0.0,0.0,0.0,0.0,0.0,0.0,0.0,0.0,0.0,-37.71311569213867,0.3296923339366913,-0.7029162049293518,0.0,0.0,0.0,0.0,0.0,0.0,0.0,0.0,0.0,0.0029177602846175432,-0.007027404382824898,0.055392783135175705,0.0,0.0,0.0,0.0,0.0,0.0,0.0,0.0,0.0
1606990754963240707,3846771,1606987153971360648,imu_link,-0.004875455517321825,0.0047037615440785885,-0.32317495346069336,0.9463149905204773,0.0,0.0,0.0,0.0,0.0,0.0,0.0,0.0,0.0,-37.7130012512207,0.3295229971408844,-0.7029171586036682,0.0,0.0,0.0,0.0,0.0,0.0,0.0,0.0,0.0,0.0037379993591457605,-0.006045274902135134,0.061886534094810486,0.0,0.0,0.0,0.0,0.0,0.0,0.0,0.0,0.0
1606990754963254354,3846772,1606987153971517130,imu_link,-0.004875455517321825,0.0047037615440785885,-0.32317495346069336,0.9463149905204773,0.0,0.0,0.0,0.0,0.0,0.0,0.0,0.0,0.0,-37.7130012512207,0.3295229971408844,-0.7029171586036682,0.0,0.0,0.0,0.0,0.0,0.0,0.0,0.0,0.0,0.0037379993591457605,-0.006045274902135134,0.061886534094810486,0.0,0.0,0.0,0.0,0.0,0.0,0.0,0.0,0.0
1606990754963262653,3846773,1606987153971652057,imu_link,-0.004876210819929838,0.004701800178736448,-0.32318246364593506,0.946312427520752,0.0,0.0,0.0,0.0,0.0,0.0,0.0,0.0,0.0,-37.71390914916992,0.3292767405509949,-0.7029290199279785,0.0,0.0,0.0,0.0,0.0,0.0,0.0,0.0,0.0,-0.0027947945054620504,0.004145275801420212,0.052902765572071075,0.0,0.0,0.0,0.0,0.0,0.0,0.0,0.0,0.0
1606990754967456290,3846774,1606987153971788162,imu_link,-0.004876210819929838,0.004701800178736448,-0.32318246364593506,0.946312427520752,0.0,0.0,0.0,0.0,0.0,0.0,0.0,0.0,0.0,-37.71390914916992,0.3292767405509949,-0.7029290199279785,0.0,0.0,0.0,0.0,0.0,0.0,0.0,0.0,0.0,-0.0027947945054620504,0.004145275801420212,0.052902765572071075,0.0,0.0,0.0,0.0,0.0,0.0,0.0,0.0,0.0
1606990754967482248,3846775,1606987153971921065,imu_link,-0.004876306746155024,0.0047023845836520195,-0.32318294048309326,0.9463123083114624,0.0,0.0,0.0,0.0,0.0,0.0,0.0,0.0,0.0,-37.713966369628906,0.3293362557888031,-0.7029612064361572,0.0,0.0,0.0,0.0,0.0,0.0,0.0,0.0,0.0,-0.01919853873550892,0.004989041481167078,0.05449458956718445,0.0,0.0,0.0,0.0,0.0,0.0,0.0,0.0,0.0
1606990754967488568,3846776,1606987153972052468,imu_link,-0.004876306746155024,0.0047023845836520195,-0.32318294048309326,0.9463123083114624,0.0,0.0,0.0,0.0,0.0,0.0,0.0,0.0,0.0,-37.713966369628906,0.3293362557888031,-0.7029612064361572,0.0,0.0,0.0,0.0,0.0,0.0,0.0,0.0,0.0,-0.01919853873550892,0.004989041481167078,0.05449458956718445,0.0,0.0,0.0,0.0,0.0,0.0,0.0,0.0,0.0
1606990754967493851,3846777,1606987153972187919,imu_link,-0.004875845275819302,0.004699111450463533,-0.32318732142448425,0.946310818195343,0.0,0.0,0.0,0.0,0.0,0.0,0.0,0.0,0.0,-37.71449279785156,0.32899513840675354,-0.7027913928031921,0.0,0.0,0.0,0.0,0.0,0.0,0.0,0.0,0.0,-0.01852298155426979,-0.015879061073064804,0.06576116383075714,0.0,0.0,0.0,0.0,0.0,0.0,0.0,0.0,0.0
1606990754982052601,3846778,1606987153983649079,imu_link,-0.004875845275819302,0.004699111450463533,-0.32318732142448425,0.946310818195343,0.0,0.0,0.0,0.0,0.0,0.0,0.0,0.0,0.0,-37.71449279785156,0.32899513840675354,-0.7027913928031921,0.0,0.0,0.0,0.0,0.0,0.0,0.0,0.0,0.0,-0.01852298155426979,-0.015879061073064804,0.06576116383075714,0.0,0.0,0.0,0.0,0.0,0.0,0.0,0.0,0.0
1606990754982140291,3846779,1606987153983793698,imu_link,-0.004876300692558289,0.004700218793004751,-0.3231894075870514,0.9463101029396057,0.0,0.0,0.0,0.0,0.0,0.0,0.0,0.0,0.0,-37.71474838256836,0.32909679412841797,-0.7028825879096985,0.0,0.0,0.0,0.0,0.0,0.0,0.0,0.0,0.0,-0.007376890629529953,-0.00902694184333086,0.04905145615339279,0.0,0.0,0.0,0.0,0.0,0.0,0.0,0.0,0.0
1606990754982165111,3846780,1606987153983934103,imu_link,-0.004876300692558289,0.004700218793004751,-0.3231894075870514,0.9463101029396057,0.0,0.0,0.0,0.0,0.0,0.0,0.0,0.0,0.0,-37.71474838256836,0.32909679412841797,-0.7028825879096985,0.0,0.0,0.0,0.0,0.0,0.0,0.0,0.0,0.0,-0.007376890629529953,-0.00902694184333086,0.04905145615339279,0.0,0.0,0.0,0.0,0.0,0.0,0.0,0.0,0.0
1606990754982189735,3846781,1606987153984072467,imu_link,-0.004873737692832947,0.004700023680925369,-0.3231891989707947,0.9463102221488953,0.0,0.0,0.0,0.0,0.0,0.0,0.0,0.0,0.0,-37.714717864990234,0.32917076349258423,-0.7025973200798035,0.0,0.0,0.0,0.0,0.0,0.0,0.0,0.0,0.0,0.007510748226195574,0.001691123005002737,0.043571650981903076,0.0,0.0,0.0,0.0,0.0,0.0,0.0,0.0,0.0
1606990754982241419,3846782,1606987153984209749,imu_link,-0.004873737692832947,0.004700023680925369,-0.3231891989707947,0.9463102221488953,0.0,0.0,0.0,0.0,0.0,0.0,0.0,0.0,0.0,-37.714717864990234,0.32917076349258423,-0.7025973200798035,0.0,0.0,0.0,0.0,0.0,0.0,0.0,0.0,0.0,0.007510748226195574,0.001691123005002737,0.043571650981903076,0.0,0.0,0.0,0.0,0.0,0.0,0.0,0.0,0.0
1606990754982256932,3846783,1606987153984363604,imu_link,-0.004872255492955446,0.004698343575000763,-0.32318925857543945,0.9463102221488953,0.0,0.0,0.0,0.0,0.0,0.0,0.0,0.0,0.0,-37.714725494384766,0.329043447971344,-0.7023743987083435,0.0,0.0,0.0,0.0,0.0,0.0,0.0,0.0,0.0,0.005519510246813297,0.01026436872780323,0.035188253968954086,0.0,0.0,0.0,0.0,0.0,0.0,0.0,0.0,0.0
1606990754982265658,3846784,1606987153984498364,imu_link,-0.004872255492955446,0.004698343575000763,-0.32318925857543945,0.9463102221488953,0.0,0.0,0.0,0.0,0.0,0.0,0.0,0.0,0.0,-37.714725494384766,0.329043447971344,-0.7023743987083435,0.0,0.0,0.0,0.0,0.0,0.0,0.0,0.0,0.0,0.005519510246813297,0.01026436872780323,0.035188253968954086,0.0,0.0,0.0,0.0,0.0,0.0,0.0,0.0,0.0
1606990754982282064,3846785,1606987153984635374,imu_link,-0.004874221049249172,0.004700929392129183,-0.32318761944770813,0.9463107585906982,0.0,0.0,0.0,0.0,0.0,0.0,0.0,0.0,0.0,-37.71453094482422,0.3292522430419922,-0.7026827931404114,0.0,0.0,0.0,0.0,0.0,0.0,0.0,0.0,0.0,-0.014433118514716625,0.006949165835976601,0.049999434500932693,0.0,0.0,0.0,0.0,0.0,0.0,0.0,0.0,0.0
1606990754994077077,3846786,1606987153984767311,imu_link,-0.004874221049249172,0.004700929392129183,-0.32318761944770813,0.9463107585906982,0.0,0.0,0.0,0.0,0.0,0.0,0.0,0.0,0.0,-37.71453094482422,0.3292522430419922,-0.7026827931404114,0.0,0.0,0.0,0.0,0.0,0.0,0.0,0.0,0.0,-0.014433118514716625,0.006949165835976601,0.049999434500932693,0.0,0.0,0.0,0.0,0.0,0.0,0.0,0.0,0.0
1606990754994097553,3846787,1606987153984899229,imu_link,-0.004874533973634243,0.004702295176684856,-0.3231878876686096,0.9463106393814087,0.0,0.0,0.0,0.0,0.0,0.0,0.0,0.0,0.0,-37.714561462402344,0.3293885290622711,-0.7027674317359924,0.0,0.0,0.0,0.0,0.0,0.0,0.0,0.0,0.0,-0.009012832306325436,-0.020065071061253548,0.06379962712526321,0.0,0.0,0.0,0.0,0.0,0.0,0.0,0.0,0.0
1606990754994102708,3846788,1606987153997446748,imu_link,-0.004874533973634243,0.004702295176684856,-0.3231878876686096,0.9463106393814087,0.0,0.0,0.0,0.0,0.0,0.0,0.0,0.0,0.0,-37.714561462402344,0.3293885290622711,-0.7027674317359924,0.0,0.0,0.0,0.0,0.0,0.0,0.0,0.0,0.0,-0.009012832306325436,-0.020065071061253548,0.06379962712526321,0.0,0.0,0.0,0.0,0.0,0.0,0.0,0.0,0.0
1606990754994110428,3846789,1606987153997609850,imu_link,-0.004873441997915506,0.004703047685325146,-0.32318758964538574,0.9463107585906982,0.0,0.0,0.0,0.0,0.0,0.0,0.0,0.0,0.0,-37.71452713012695,0.3295108377933502,-0.7026767134666443,0.0,0.0,0.0,0.0,0.0,0.0,0.0,0.0,0.0,0.017400292679667473,-0.013485608622431755,0.04455452784895897,0.0,0.0,0.0,0.0,0.0,0.0,0.0,0.0,0.0
1606990755006205361,3846790,1606987153997768122,imu_link,-0.004873441997915506,0.004703047685325146,-0.32318758964538574,0.9463107585906982,0.0,0.0,0.0,0.0,0.0,0.0,0.0,0.0,0.0,-37.71452713012695,0.3295108377933502,-0.7026767134666443,0.0,0.0,0.0,0.0,0.0,0.0,0.0,0.0,0.0,0.017400292679667473,-0.013485608622431755,0.04455452784895897,0.0,0.0,0.0,0.0,0.0,0.0,0.0,0.0,0.0
1606990755006228410,3846791,1606987153997920359,imu_link,-0.0048733861185610294,0.00470325443893671,-0.3231884837150574,0.9463104009628296,0.0,0.0,0.0,0.0,0.0,0.0,0.0,0.0,0.0,-37.714637756347656,0.3295345902442932,-0.7026786804199219,0.0,0.0,0.0,0.0,0.0,0.0,0.0,0.0,0.0,0.00969622004777193,0.006694246083498001,0.047317612916231155,0.0,0.0,0.0,0.0,0.0,0.0,0.0,0.0,0.0
1606990755006239408,3846792,1606987153998071093,imu_link,-0.0048733861185610294,0.00470325443893671,-0.3231884837150574,0.9463104009628296,0.0,0.0,0.0,0.0,0.0,0.0,0.0,0.0,0.0,-37.714637756347656,0.3295345902442932,-0.7026786804199219,0.0,0.0,0.0,0.0,0.0,0.0,0.0,0.0,0.0,0.00969622004777193,0.006694246083498001,0.047317612916231155,0.0,0.0,0.0,0.0,0.0,0.0,0.0,0.0,0.0
1606990755006249876,3846793,1606987153998224759,imu_link,-0.00487396027892828,0.004706745035946369,-0.323190301656723,0.9463097453117371,0.0,0.0,0.0,0.0,0.0,0.0,0.0,0.0,0.0,-37.71486282348633,0.32989048957824707,-0.7028709053993225,0.0,0.0,0.0,0.0,0.0,0.0,0.0,0.0,0.0,-0.012871474027633667,-2.162158489227295e-05,0.06066117808222771,0.0,0.0,0.0,0.0,0.0,0.0,0.0,0.0,0.0
1606990755068571286,3846794,1606987153998395674,imu_link,-0.00487396027892828,0.004706745035946369,-0.323190301656723,0.9463097453117371,0.0,0.0,0.0,0.0,0.0,0.0,0.0,0.0,0.0,-37.71486282348633,0.32989048957824707,-0.7028709053993225,0.0,0.0,0.0,0.0,0.0,0.0,0.0,0.0,0.0,-0.012871474027633667,-2.162158489227295e-05,0.06066117808222771,0.0,0.0,0.0,0.0,0.0,0.0,0.0,0.0,0.0
1606990755068597075,3846795,1606987153998547541,imu_link,-0.004872624762356281,0.0047102272510528564,-0.32319176197052,0.9463092684745789,0.0,0.0,0.0,0.0,0.0,0.0,0.0,0.0,0.0,-37.71503829956055,0.3303165137767792,-0.7028555274009705,0.0,0.0,0.0,0.0,0.0,0.0,0.0,0.0,0.0,0.0016486189560964704,-0.0030518181156367064,0.059526875615119934,0.0,0.0,0.0,0.0,0.0,0.0,0.0,0.0,0.0
1606990755068609532,3846796,1606987153998699071,imu_link,-0.004872624762356281,0.0047102272510528564,-0.32319176197052,0.9463092684745789,0.0,0.0,0.0,0.0,0.0,0.0,0.0,0.0,0.0,-37.71503829956055,0.3303165137767792,-0.7028555274009705,0.0,0.0,0.0,0.0,0.0,0.0,0.0,0.0,0.0,0.0016486189560964704,-0.0030518181156367064,0.059526875615119934,0.0,0.0,0.0,0.0,0.0,0.0,0.0,0.0,0.0
1606990755068624356,3846797,1606987153998847575,imu_link,-0.004872889723628759,0.004709537141025066,-0.32319527864456177,0.9463080763816833,0.0,0.0,0.0,0.0,0.0,0.0,0.0,0.0,0.0,-37.7154655456543,0.330229252576828,-0.7028598189353943,0.0,0.0,0.0,0.0,0.0,0.0,0.0,0.0,0.0,0.006102023646235466,0.0015475890832021832,0.05871910974383354,0.0,0.0,0.0,0.0,0.0,0.0,0.0,0.0,0.0
1606990755068684207,3846798,1606987153999023983,imu_link,-0.004872889723628759,0.004709537141025066,-0.32319527864456177,0.9463080763816833,0.0,0.0,0.0,0.0,0.0,0.0,0.0,0.0,0.0,-37.7154655456543,0.330229252576828,-0.7028598189353943,0.0,0.0,0.0,0.0,0.0,0.0,0.0,0.0,0.0,0.006102023646235466,0.0015475890832021832,0.05871910974383354,0.0,0.0,0.0,0.0,0.0,0.0,0.0,0.0,0.0
1606990755071259395,3846799,1606987154010860239,imu_link,-0.004874699283391237,0.004708518274128437,-0.32319462299346924,0.9463082551956177,0.0,0.0,0.0,0.0,0.0,0.0,0.0,0.0,0.0,-37.71538543701172,0.3300522267818451,-0.703018307685852,0.0,0.0,0.0,0.0,0.0,0.0,0.0,0.0,0.0,-0.009541815146803856,0.006608129944652319,0.04767987132072449,0.0,0.0,0.0,0.0,0.0,0.0,0.0,0.0,0.0
1606990755071300453,3846800,1606987154010923933,imu_link,-0.004874699283391237,0.004708518274128437,-0.32319462299346924,0.9463082551956177,0.0,0.0,0.0,0.0,0.0,0.0,0.0,0.0,0.0,-37.71538543701172,0.3300522267818451,-0.703018307685852,0.0,0.0,0.0,0.0,0.0,0.0,0.0,0.0,0.0,-0.009541815146803856,0.006608129944652319,0.04767987132072449,0.0,0.0,0.0,0.0,0.0,0.0,0.0,0.0,0.0
1606990755071394619,3846801,1606987154011001624,imu_link,-0.004875109996646643,0.0047056348994374275,-0.3231993615627289,0.9463066458702087,0.0,0.0,0.0,0.0,0.0,0.0,0.0,0.0,0.0,-37.71596145629883,0.32972079515457153,-0.7029576301574707,0.0,0.0,0.0,0.0,0.0,0.0,0.0,0.0,0.0,-0.00540689704939723,-0.0022628798615187407,0.056881655007600784,0.0,0.0,0.0,0.0,0.0,0.0,0.0,0.0,0.0
1606990755071410436,3846802,1606987154011033505,imu_link,-0.004875109996646643,0.0047056348994374275,-0.3231993615627289,0.9463066458702087,0.0,0.0,0.0,0.0,0.0,0.0,0.0,0.0,0.0,-37.71596145629883,0.32972079515457153,-0.7029576301574707,0.0,0.0,0.0,0.0,0.0,0.0,0.0,0.0,0.0,-0.00540689704939723,-0.0022628798615187407,0.056881655007600784,0.0,0.0,0.0,0.0,0.0,0.0,0.0,0.0,0.0
1606990755088136005,3846803,1606987154011065809,imu_link,-0.004874727223068476,0.004708160646259785,-0.323197603225708,0.9463072419166565,0.0,0.0,0.0,0.0,0.0,0.0,0.0,0.0,0.0,-37.71574783325195,0.33001017570495605,-0.7030090093612671,0.0,0.0,0.0,0.0,0.0,0.0,0.0,0.0,0.0,0.0012146668741479516,-0.011879341676831245,0.08743946254253387,0.0,0.0,0.0,0.0,0.0,0.0,0.0,0.0,0.0
1606990755088175413,3846804,1606987154011096442,imu_link,-0.004874727223068476,0.004708160646259785,-0.323197603225708,0.9463072419166565,0.0,0.0,0.0,0.0,0.0,0.0,0.0,0.0,0.0,-37.71574783325195,0.33001017570495605,-0.7030090093612671,0.0,0.0,0.0,0.0,0.0,0.0,0.0,0.0,0.0,0.0012146668741479516,-0.011879341676831245,0.08743946254253387,0.0,0.0,0.0,0.0,0.0,0.0,0.0,0.0,0.0
1606990755088241756,3846805,1606987154011134801,imu_link,-0.004873528145253658,0.004704894497990608,-0.3231905400753021,0.9463096857070923,0.0,0.0,0.0,0.0,0.0,0.0,0.0,0.0,0.0,-37.71488952636719,0.3297056555747986,-0.7027555704116821,0.0,0.0,0.0,0.0,0.0,0.0,0.0,0.0,0.0,-0.004751025233417749,0.0046647838316857815,0.07044325768947601,0.0,0.0,0.0,0.0,0.0,0.0,0.0,0.0,0.0
1606990755088264395,3846806,1606987154011165103,imu_link,-0.004873528145253658,0.004704894497990608,-0.3231905400753021,0.9463096857070923,0.0,0.0,0.0,0.0,0.0,0.0,0.0,0.0,0.0,-37.71488952636719,0.3297056555747986,-0.7027555704116821,0.0,0.0,0.0,0.0,0.0,0.0,0.0,0.0,0.0,-0.004751025233417749,0.0046647838316857815,0.07044325768947601,0.0,0.0,0.0,0.0,0.0,0.0,0.0,0.0,0.0
1606990755114214043,3846807,1606987154011212309,imu_link,-0.004873339552432299,0.004707123152911663,-0.32318976521492004,0.9463099837303162,0.0,0.0,0.0,0.0,0.0,0.0,0.0,0.0,0.0,-37.71479797363281,0.3299548923969269,-0.7028173804283142,0.0,0.0,0.0,0.0,0.0,0.0,0.0,0.0,0.0,-0.013724044896662235,0.005752285476773977,0.036851558834314346,0.0,0.0,0.0,0.0,0.0,0.0,0.0,0.0,0.0
1606990755114257620,3846808,1606987154011243452,imu_link,-0.004873339552432299,0.004707123152911663,-0.32318976521492004,0.9463099837303162,0.0,0.0,0.0,0.0,0.0,0.0,0.0,0.0,0.0,-37.71479797363281,0.3299548923969269,-0.7028173804283142,0.0,0.0,0.0,0.0,0.0,0.0,0.0,0.0,0.0,-0.013724044896662235,0.005752285476773977,0.036851558834314346,0.0,0.0,0.0,0.0,0.0,0.0,0.0,0.0,0.0
1606990755114367403,3846809,1606987154011274959,imu_link,-0.004874355625361204,0.004706927575170994,-0.32318395376205444,0.9463119506835938,0.0,0.0,0.0,0.0,0.0,0.0,0.0,0.0,0.0,-37.71409225463867,0.3299004137516022,-0.7029182314872742,0.0,0.0,0.0,0.0,0.0,0.0,0.0,0.0,0.0,-0.0020222202874720097,-0.003367883153259754,0.02922752872109413,0.0,0.0,0.0,0.0,0.0,0.0,0.0,0.0,0.0
1606990755114428361,3846810,1606987154024968502,imu_link,-0.004874355625361204,0.004706927575170994,-0.32318395376205444,0.9463119506835938,0.0,0.0,0.0,0.0,0.0,0.0,0.0,0.0,0.0,-37.71409225463867,0.3299004137516022,-0.7029182314872742,0.0,0.0,0.0,0.0,0.0,0.0,0.0,0.0,0.0,-0.0020222202874720097,-0.003367883153259754,0.02922752872109413,0.0,0.0,0.0,0.0,0.0,0.0,0.0,0.0,0.0
1606990755150190711,3846811,1606987154025055260,imu_link,-0.004874836653470993,0.004705867264419794,-0.32318398356437683,0.9463119506835938,0.0,0.0,0.0,0.0,0.0,0.0,0.0,0.0,0.0,-37.71409606933594,0.3297675848007202,-0.7029311656951904,0.0,0.0,0.0,0.0,0.0,0.0,0.0,0.0,0.0,0.008123894222080708,-0.016021300107240677,0.021900219842791557,0.0,0.0,0.0,0.0,0.0,0.0,0.0,0.0,0.0
1606990755150228129,3846812,1606987154025163567,imu_link,-0.004874836653470993,0.004705867264419794,-0.32318398356437683,0.9463119506835938,0.0,0.0,0.0,0.0,0.0,0.0,0.0,0.0,0.0,-37.71409606933594,0.3297675848007202,-0.7029311656951904,0.0,0.0,0.0,0.0,0.0,0.0,0.0,0.0,0.0,0.008123894222080708,-0.016021300107240677,0.021900219842791557,0.0,0.0,0.0,0.0,0.0,0.0,0.0,0.0,0.0
1606990755150239733,3846813,1606987154025216590,imu_link,-0.004871891345828772,0.00470442371442914,-0.32317838072776794,0.9463138580322266,0.0,0.0,0.0,0.0,0.0,0.0,0.0,0.0,0.0,-37.71341323852539,0.3297242522239685,-0.7025563716888428,0.0,0.0,0.0,0.0,0.0,0.0,0.0,0.0,0.0,-0.003939262591302395,-0.023106859996914864,0.03539710119366646,0.0,0.0,0.0,0.0,0.0,0.0,0.0,0.0,0.0
1606990755150248257,3846814,1606987154025262425,imu_link,-0.004871891345828772,0.00470442371442914,-0.32317838072776794,0.9463138580322266,0.0,0.0,0.0,0.0,0.0,0.0,0.0,0.0,0.0,-37.71341323852539,0.3297242522239685,-0.7025563716888428,0.0,0.0,0.0,0.0,0.0,0.0,0.0,0.0,0.0,-0.003939262591302395,-0.023106859996914864,0.03539710119366646,0.0,0.0,0.0,0.0,0.0,0.0,0.0,0.0,0.0
1606990755150260327,3846815,1606987154025309167,imu_link,-0.004871117416769266,0.004705298691987991,-0.3231791853904724,0.9463135600090027,0.0,0.0,0.0,0.0,0.0,0.0,0.0,0.0,0.0,-37.7135124206543,0.32984721660614014,-0.7025051116943359,0.0,0.0,0.0,0.0,0.0,0.0,0.0,0.0,0.0,-0.02436705306172371,0.003914006054401398,0.05337844789028168,0.0,0.0,0.0,0.0,0.0,0.0,0.0,0.0,0.0
1606990755150270952,3846816,1606987154025370661,imu_link,-0.004871117416769266,0.004705298691987991,-0.3231791853904724,0.9463135600090027,0.0,0.0,0.0,0.0,0.0,0.0,0.0,0.0,0.0,-37.7135124206543,0.32984721660614014,-0.7025051116943359,0.0,0.0,0.0,0.0,0.0,0.0,0.0,0.0,0.0,-0.02436705306172371,0.003914006054401398,0.05337844789028168,0.0,0.0,0.0,0.0,0.0,0.0,0.0,0.0,0.0
1606990755150281641,3846817,1606987154025421235,imu_link,-0.004870155826210976,0.004704308230429888,-0.32317087054252625,0.9463164210319519,0.0,0.0,0.0,0.0,0.0,0.0,0.0,0.0,0.0,-37.71250534057617,0.32978159189224243,-0.7023613452911377,0.0,0.0,0.0,0.0,0.0,0.0,0.0,0.0,0.0,-0.02558085322380066,0.007298861164599657,0.06167350709438324,0.0,0.0,0.0,0.0,0.0,0.0,0.0,0.0,0.0
1606990755150287356,3846818,1606987154025464953,imu_link,-0.004870155826210976,0.004704308230429888,-0.32317087054252625,0.9463164210319519,0.0,0.0,0.0,0.0,0.0,0.0,0.0,0.0,0.0,-37.71250534057617,0.32978159189224243,-0.7023613452911377,0.0,0.0,0.0,0.0,0.0,0.0,0.0,0.0,0.0,-0.02558085322380066,0.007298861164599657,0.06167350709438324,0.0,0.0,0.0,0.0,0.0,0.0,0.0,0.0,0.0
1606990755150308387,3846819,1606987154025514491,imu_link,-0.004870007745921612,0.004704105202108622,-0.3231712281703949,0.9463163018226624,0.0,0.0,0.0,0.0,0.0,0.0,0.0,0.0,0.0,-37.71255111694336,0.32976478338241577,-0.7023378610610962,0.0,0.0,0.0,0.0,0.0,0.0,0.0,0.0,0.0,-0.0018803875427693129,-0.007592447102069855,0.048246100544929504,0.0,0.0,0.0,0.0,0.0,0.0,0.0,0.0,0.0
1606990755177773361,3846820,1606987154025561717,imu_link,-0.004870007745921612,0.004704105202108622,-0.3231712281703949,0.9463163018226624,0.0,0.0,0.0,0.0,0.0,0.0,0.0,0.0,0.0,-37.71255111694336,0.32976478338241577,-0.7023378610610962,0.0,0.0,0.0,0.0,0.0,0.0,0.0,0.0,0.0,-0.0018803875427693129,-0.007592447102069855,0.048246100544929504,0.0,0.0,0.0,0.0,0.0,0.0,0.0,0.0,0.0
1606990755177783841,3846821,1606987154038455845,imu_link,-0.004869585856795311,0.00470559298992157,-0.32317888736724854,0.9463136792182922,0.0,0.0,0.0,0.0,0.0,0.0,0.0,0.0,0.0,-37.713478088378906,0.32993605732917786,-0.702349841594696,0.0,0.0,0.0,0.0,0.0,0.0,0.0,0.0,0.0,0.016635794192552567,-0.0055767083540558815,0.035009514540433884,0.0,0.0,0.0,0.0,0.0,0.0,0.0,0.0,0.0
1606990755177788906,3846822,1606987154038546269,imu_link,-0.004869585856795311,0.00470559298992157,-0.32317888736724854,0.9463136792182922,0.0,0.0,0.0,0.0,0.0,0.0,0.0,0.0,0.0,-37.713478088378906,0.32993605732917786,-0.702349841594696,0.0,0.0,0.0,0.0,0.0,0.0,0.0,0.0,0.0,0.016635794192552567,-0.0055767083540558815,0.035009514540433884,0.0,0.0,0.0,0.0,0.0,0.0,0.0,0.0,0.0
1606990755185049344,3846823,1606987154038652352,imu_link,-0.004869092255830765,0.004703732673078775,-0.32317930459976196,0.9463135600090027,0.0,0.0,0.0,0.0,0.0,0.0,0.0,0.0,0.0,-37.713523864746094,0.3297522962093353,-0.7022275328636169,0.0,0.0,0.0,0.0,0.0,0.0,0.0,0.0,0.0,0.0096090417355299,0.0019520024070516229,0.032815199345350266,0.0,0.0,0.0,0.0,0.0,0.0,0.0,0.0,0.0
1606990755185064164,3846824,1606987154038704444,imu_link,-0.004869092255830765,0.004703732673078775,-0.32317930459976196,0.9463135600090027,0.0,0.0,0.0,0.0,0.0,0.0,0.0,0.0,0.0,-37.713523864746094,0.3297522962093353,-0.7022275328636169,0.0,0.0,0.0,0.0,0.0,0.0,0.0,0.0,0.0,0.0096090417355299,0.0019520024070516229,0.032815199345350266,0.0,0.0,0.0,0.0,0.0,0.0,0.0,0.0,0.0
1606990755185078504,3846825,1606987154038761178,imu_link,-0.004868215415626764,0.004704810678958893,-0.3231879770755768,0.9463105797767639,0.0,0.0,0.0,0.0,0.0,0.0,0.0,0.0,0.0,-37.714576721191406,0.3298952579498291,-0.7021754384040833,0.0,0.0,0.0,0.0,0.0,0.0,0.0,0.0,0.0,0.0003433206002227962,0.002064561238512397,0.033323101699352264,0.0,0.0,0.0,0.0,0.0,0.0,0.0,0.0,0.0
1606990755185082588,3846826,1606987154038822465,imu_link,-0.004868215415626764,0.004704810678958893,-0.3231879770755768,0.9463105797767639,0.0,0.0,0.0,0.0,0.0,0.0,0.0,0.0,0.0,-37.714576721191406,0.3298952579498291,-0.7021754384040833,0.0,0.0,0.0,0.0,0.0,0.0,0.0,0.0,0.0,0.0003433206002227962,0.002064561238512397,0.033323101699352264,0.0,0.0,0.0,0.0,0.0,0.0,0.0,0.0,0.0
1606990755185089030,3846827,1606987154038872584,imu_link,-0.004869112279266119,0.004705369006842375,-0.3231849670410156,0.9463115930557251,0.0,0.0,0.0,0.0,0.0,0.0,0.0,0.0,0.0,-37.71421432495117,0.3299248218536377,-0.7022923231124878,0.0,0.0,0.0,0.0,0.0,0.0,0.0,0.0,0.0,0.012250336818397045,-0.005356364417821169,0.05114559456706047,0.0,0.0,0.0,0.0,0.0,0.0,0.0,0.0,0.0
1606990755185112779,3846828,1606987154038919498,imu_link,-0.004869112279266119,0.004705369006842375,-0.3231849670410156,0.9463115930557251,0.0,0.0,0.0,0.0,0.0,0.0,0.0,0.0,0.0,-37.71421432495117,0.3299248218536377,-0.7022923231124878,0.0,0.0,0.0,0.0,0.0,0.0,0.0,0.0,0.0,0.012250336818397045,-0.005356364417821169,0.05114559456706047,0.0,0.0,0.0,0.0,0.0,0.0,0.0,0.0,0.0
1606990755185126422,3846829,1606987154038986634,imu_link,-0.004867690149694681,0.004708543885499239,-0.32318463921546936,0.9463117122650146,0.0,0.0,0.0,0.0,0.0,0.0,0.0,0.0,0.0,-37.714176177978516,0.3303220570087433,-0.7022555470466614,0.0,0.0,0.0,0.0,0.0,0.0,0.0,0.0,0.0,0.01700945943593979,-0.003420045832172036,0.051892153918743134,0.0,0.0,0.0,0.0,0.0,0.0,0.0,0.0,0.0
1606990755185141308,3846830,1606987154039038394,imu_link,-0.004867690149694681,0.004708543885499239,-0.32318463921546936,0.9463117122650146,0.0,0.0,0.0,0.0,0.0,0.0,0.0,0.0,0.0,-37.714176177978516,0.3303220570087433,-0.7022555470466614,0.0,0.0,0.0,0.0,0.0,0.0,0.0,0.0,0.0,0.01700945943593979,-0.003420045832172036,0.051892153918743134,0.0,0.0,0.0,0.0,0.0,0.0,0.0,0.0,0.0
1606990755192839951,3846831,1606987154039093510,imu_link,-0.004868853371590376,0.004709016531705856,-0.32318228483200073,0.9463124871253967,0.0,0.0,0.0,0.0,0.0,0.0,0.0,0.0,0.0,-37.713890075683594,0.3303319215774536,-0.702398419380188,0.0,0.0,0.0,0.0,0.0,0.0,0.0,0.0,0.0,-0.002314453711733222,-0.00922374613583088,0.03588666766881943,0.0,0.0,0.0,0.0,0.0,0.0,0.0,0.0,0.0
1606990755192874403,3846832,1606987154051316689,imu_link,-0.004868853371590376,0.004709016531705856,-0.32318228483200073,0.9463124871253967,0.0,0.0,0.0,0.0,0.0,0.0,0.0,0.0,0.0,-37.713890075683594,0.3303319215774536,-0.702398419380188,0.0,0.0,0.0,0.0,0.0,0.0,0.0,0.0,0.0,-0.002314453711733222,-0.00922374613583088,0.03588666766881943,0.0,0.0,0.0,0.0,0.0,0.0,0.0,0.0,0.0
1606990755192885340,3846833,1606987154051416200,imu_link,-0.0048675998114049435,0.004709997680038214,-0.32318001985549927,0.9463132619857788,0.0,0.0,0.0,0.0,0.0,0.0,0.0,0.0,0.0,-37.713619232177734,0.3304864466190338,-0.702298104763031,0.0,0.0,0.0,0.0,0.0,0.0,0.0,0.0,0.0,-0.0014528310857713223,0.004360001999884844,0.055772412568330765,0.0,0.0,0.0,0.0,0.0,0.0,0.0,0.0,0.0
1606990755192901176,3846834,1606987154051559269,imu_link,-0.0048675998114049435,0.004709997680038214,-0.32318001985549927,0.9463132619857788,0.0,0.0,0.0,0.0,0.0,0.0,0.0,0.0,0.0,-37.713619232177734,0.3304864466190338,-0.702298104763031,0.0,0.0,0.0,0.0,0.0,0.0,0.0,0.0,0.0,-0.0014528310857713223,0.004360001999884844,0.055772412568330765,0.0,0.0,0.0,0.0,0.0,0.0,0.0,0.0,0.0
1606990755192922672,3846835,1606987154051621437,imu_link,-0.004867165815085173,0.004710609093308449,-0.32318034768104553,0.9463131427764893,0.0,0.0,0.0,0.0,0.0,0.0,0.0,0.0,0.0,-37.71365737915039,0.3305685520172119,-0.7022736668586731,0.0,0.0,0.0,0.0,0.0,0.0,0.0,0.0,0.0,0.0024437657557427883,0.015657173469662666,0.07541491091251373,0.0,0.0,0.0,0.0,0.0,0.0,0.0,0.0,0.0
1606990755192945769,3846836,1606987154051682455,imu_link,-0.004867165815085173,0.004710609093308449,-0.32318034768104553,0.9463131427764893,0.0,0.0,0.0,0.0,0.0,0.0,0.0,0.0,0.0,-37.71365737915039,0.3305685520172119,-0.7022736668586731,0.0,0.0,0.0,0.0,0.0,0.0,0.0,0.0,0.0,0.0024437657557427883,0.015657173469662666,0.07541491091251373,0.0,0.0,0.0,0.0,0.0,0.0,0.0,0.0,0.0
1606990755192956801,3846837,1606987154051756182,imu_link,-0.004869415424764156,0.0047127907164394855,-0.32318422198295593,0.9463118314743042,0.0,0.0,0.0,0.0,0.0,0.0,0.0,0.0,0.0,-37.71412658691406,0.3307189345359802,-0.702599823474884,0.0,0.0,0.0,0.0,0.0,0.0,0.0,0.0,0.0,-0.0019987199921160936,-0.0023345835506916046,0.05507964268326759,0.0,0.0,0.0,0.0,0.0,0.0,0.0,0.0,0.0
1606990755192988678,3846838,1606987154051817805,imu_link,-0.004869415424764156,0.0047127907164394855,-0.32318422198295593,0.9463118314743042,0.0,0.0,0.0,0.0,0.0,0.0,0.0,0.0,0.0,-37.71412658691406,0.3307189345359802,-0.702599823474884,0.0,0.0,0.0,0.0,0.0,0.0,0.0,0.0,0.0,-0.0019987199921160936,-0.0023345835506916046,0.05507964268326759,0.0,0.0,0.0,0.0,0.0,0.0,0.0,0.0,0.0
1606990755193006607,3846839,1606987154051870858,imu_link,-0.004868864081799984,0.0047142524272203445,-0.32318392395973206,0.946311891078949,0.0,0.0,0.0,0.0,0.0,0.0,0.0,0.0,0.0,-37.71409606933594,0.3308980464935303,-0.7025941610336304,0.0,0.0,0.0,0.0,0.0,0.0,0.0,0.0,0.0,-0.0028438190929591656,-0.019380854442715645,0.05206260085105896,0.0,0.0,0.0,0.0,0.0,0.0,0.0,0.0,0.0
1606990755205314799,3846840,1606987154051928202,imu_link,-0.004868864081799984,0.0047142524272203445,-0.32318392395973206,0.946311891078949,0.0,0.0,0.0,0.0,0.0,0.0,0.0,0.0,0.0,-37.71409606933594,0.3308980464935303,-0.7025941610336304,0.0,0.0,0.0,0.0,0.0,0.0,0.0,0.0,0.0,-0.0028438190929591656,-0.019380854442715645,0.05206260085105896,0.0,0.0,0.0,0.0,0.0,0.0,0.0,0.0,0.0
1606990755205334714,3846841,1606987154051992442,imu_link,-0.004865848924964666,0.0047124107368290424,-0.32318511605262756,0.9463115334510803,0.0,0.0,0.0,0.0,0.0,0.0,0.0,0.0,0.0,-37.7142333984375,0.33080917596817017,-0.7021992802619934,0.0,0.0,0.0,0.0,0.0,0.0,0.0,0.0,0.0,-0.01216344814747572,-0.028068218380212784,0.06421742588281631,0.0,0.0,0.0,0.0,0.0,0.0,0.0,0.0,0.0
1606990755205346658,3846842,1606987154065181461,imu_link,-0.004865848924964666,0.0047124107368290424,-0.32318511605262756,0.9463115334510803,0.0,0.0,0.0,0.0,0.0,0.0,0.0,0.0,0.0,-37.7142333984375,0.33080917596817017,-0.7021992802619934,0.0,0.0,0.0,0.0,0.0,0.0,0.0,0.0,0.0,-0.01216344814747572,-0.028068218380212784,0.06421742588281631,0.0,0.0,0.0,0.0,0.0,0.0,0.0,0.0,0.0
1606990755205374060,3846843,1606987154065296523,imu_link,-0.004866579547524452,0.004711629822850227,-0.32318347692489624,0.9463120698928833,0.0,0.0,0.0,0.0,0.0,0.0,0.0,0.0,0.0,-37.71403503417969,0.3306986689567566,-0.7022490501403809,0.0,0.0,0.0,0.0,0.0,0.0,0.0,0.0,0.0,-0.010608982294797897,-0.011996116489171982,0.07332294434309006,0.0,0.0,0.0,0.0,0.0,0.0,0.0,0.0,0.0
1606990755205403753,3846844,1606987154065422005,imu_link,-0.004866579547524452,0.004711629822850227,-0.32318347692489624,0.9463120698928833,0.0,0.0,0.0,0.0,0.0,0.0,0.0,0.0,0.0,-37.71403503417969,0.3306986689567566,-0.7022490501403809,0.0,0.0,0.0,0.0,0.0,0.0,0.0,0.0,0.0,-0.010608982294797897,-0.011996116489171982,0.07332294434309006,0.0,0.0,0.0,0.0,0.0,0.0,0.0,0.0,0.0
1606990755205413342,3846845,1606987154065519908,imu_link,-0.004864623304456472,0.0047103180550038815,-0.32317909598350525,0.9463136196136475,0.0,0.0,0.0,0.0,0.0,0.0,0.0,0.0,0.0,-37.713504791259766,0.3306320607662201,-0.7019868493080139,0.0,0.0,0.0,0.0,0.0,0.0,0.0,0.0,0.0,5.249778041616082e-06,0.005996388383209705,0.0765957236289978,0.0,0.0,0.0,0.0,0.0,0.0,0.0,0.0,0.0
1606990755205423169,3846846,1606987154065593446,imu_link,-0.004864623304456472,0.0047103180550038815,-0.32317909598350525,0.9463136196136475,0.0,0.0,0.0,0.0,0.0,0.0,0.0,0.0,0.0,-37.713504791259766,0.3306320607662201,-0.7019868493080139,0.0,0.0,0.0,0.0,0.0,0.0,0.0,0.0,0.0,5.249778041616082e-06,0.005996388383209705,0.0765957236289978,0.0,0.0,0.0,0.0,0.0,0.0,0.0,0.0,0.0
1606990755205460911,3846847,1606987154065670994,imu_link,-0.004865108523517847,0.0047113001346588135,-0.32317861914634705,0.946313738822937,0.0,0.0,0.0,0.0,0.0,0.0,0.0,0.0,0.0,-37.71344757080078,0.3307209312915802,-0.7020756006240845,0.0,0.0,0.0,0.0,0.0,0.0,0.0,0.0,0.0,0.00019812621758319438,0.0026774960570037365,0.0716843530535698,0.0,0.0,0.0,0.0,0.0,0.0,0.0,0.0,0.0
1606990755205502226,3846848,1606987154065756788,imu_link,-0.004865108523517847,0.0047113001346588135,-0.32317861914634705,0.946313738822937,0.0,0.0,0.0,0.0,0.0,0.0,0.0,0.0,0.0,-37.71344757080078,0.3307209312915802,-0.7020756006240845,0.0,0.0,0.0,0.0,0.0,0.0,0.0,0.0,0.0,0.00019812621758319438,0.0026774960570037365,0.0716843530535698,0.0,0.0,0.0,0.0,0.0,0.0,0.0,0.0,0.0
1606990755251187082,3846849,1606987154065826802,imu_link,-0.004864920862019062,0.004710332956165075,-0.3231743574142456,0.9463152885437012,0.0,0.0,0.0,0.0,0.0,0.0,0.0,0.0,0.0,-37.712928771972656,0.3306262493133545,-0.7020179629325867,0.0,0.0,0.0,0.0,0.0,0.0,0.0,0.0,0.0,-0.013168918900191784,0.00520245311781764,0.047319140285253525,0.0,0.0,0.0,0.0,0.0,0.0,0.0,0.0,0.0
1606990755251209217,3846850,1606987154065892097,imu_link,-0.004864920862019062,0.004710332956165075,-0.3231743574142456,0.9463152885437012,0.0,0.0,0.0,0.0,0.0,0.0,0.0,0.0,0.0,-37.712928771972656,0.3306262493133545,-0.7020179629325867,0.0,0.0,0.0,0.0,0.0,0.0,0.0,0.0,0.0,-0.013168918900191784,0.00520245311781764,0.047319140285253525,0.0,0.0,0.0,0.0,0.0,0.0,0.0,0.0,0.0
1606990755251230417,3846851,1606987154065954891,imu_link,-0.004865994676947594,0.004709952045232058,-0.32317301630973816,0.9463157057762146,0.0,0.0,0.0,0.0,0.0,0.0,0.0,0.0,0.0,-37.712772369384766,0.33054617047309875,-0.702119767665863,0.0,0.0,0.0,0.0,0.0,0.0,0.0,0.0,0.0,-0.0029029736761003733,0.006836271379143,0.03237380459904671,0.0,0.0,0.0,0.0,0.0,0.0,0.0,0.0,0.0
1606990755251244316,3846852,1606987154066018999,imu_link,-0.004865994676947594,0.004709952045232058,-0.32317301630973816,0.9463157057762146,0.0,0.0,0.0,0.0,0.0,0.0,0.0,0.0,0.0,-37.712772369384766,0.33054617047309875,-0.702119767665863,0.0,0.0,0.0,0.0,0.0,0.0,0.0,0.0,0.0,-0.0029029736761003733,0.006836271379143,0.03237380459904671,0.0,0.0,0.0,0.0,0.0,0.0,0.0,0.0,0.0
1606990755251261703,3846853,1606987154078586729,imu_link,-0.004866574890911579,0.004709251224994659,-0.3231801390647888,0.9463132619857788,0.0,0.0,0.0,0.0,0.0,0.0,0.0,0.0,0.0,-37.71363067626953,0.3304433822631836,-0.7021592855453491,0.0,0.0,0.0,0.0,0.0,0.0,0.0,0.0,0.0,0.010208670049905777,-0.0018085235496982932,0.04505332186818123,0.0,0.0,0.0,0.0,0.0,0.0,0.0,0.0,0.0
1606990755254461550,3846854,1606987154078701025,imu_link,-0.004866574890911579,0.004709251224994659,-0.3231801390647888,0.9463132619857788,0.0,0.0,0.0,0.0,0.0,0.0,0.0,0.0,0.0,-37.71363067626953,0.3304433822631836,-0.7021592855453491,0.0,0.0,0.0,0.0,0.0,0.0,0.0,0.0,0.0,0.010208670049905777,-0.0018085235496982932,0.04505332186818123,0.0,0.0,0.0,0.0,0.0,0.0,0.0,0.0,0.0
1606990755254478499,3846855,1606987154078851714,imu_link,-0.004868744872510433,0.0047087762504816055,-0.3231797516345978,0.9463134407997131,0.0,0.0,0.0,0.0,0.0,0.0,0.0,0.0,0.0,-37.71358108520508,0.3303118050098419,-0.7023767828941345,0.0,0.0,0.0,0.0,0.0,0.0,0.0,0.0,0.0,-0.006698473822325468,-0.003954933490604162,0.0653676688671112,0.0,0.0,0.0,0.0,0.0,0.0,0.0,0.0,0.0
1606990755254491289,3846856,1606987154078922337,imu_link,-0.004868744872510433,0.0047087762504816055,-0.3231797516345978,0.9463134407997131,0.0,0.0,0.0,0.0,0.0,0.0,0.0,0.0,0.0,-37.71358108520508,0.3303118050098419,-0.7023767828941345,0.0,0.0,0.0,0.0,0.0,0.0,0.0,0.0,0.0,-0.006698473822325468,-0.003954933490604162,0.0653676688671112,0.0,0.0,0.0,0.0,0.0,0.0,0.0,0.0,0.0
1606990755254516301,3846857,1606987154079020817,imu_link,-0.0048673078417778015,0.004709318745881319,-0.3231886327266693,0.9463104009628296,0.0,0.0,0.0,0.0,0.0,0.0,0.0,0.0,0.0,-37.714656829833984,0.330417275428772,-0.7022441625595093,0.0,0.0,0.0,0.0,0.0,0.0,0.0,0.0,0.0,0.0026336705777794123,0.003833884373307228,0.06771824508905411,0.0,0.0,0.0,0.0,0.0,0.0,0.0,0.0,0.0
1606990755266409920,3846858,1606987154079088370,imu_link,-0.0048673078417778015,0.004709318745881319,-0.3231886327266693,0.9463104009628296,0.0,0.0,0.0,0.0,0.0,0.0,0.0,0.0,0.0,-37.714656829833984,0.330417275428772,-0.7022441625595093,0.0,0.0,0.0,0.0,0.0,0.0,0.0,0.0,0.0,0.0026336705777794123,0.003833884373307228,0.06771824508905411,0.0,0.0,0.0,0.0,0.0,0.0,0.0,0.0,0.0
1606990755266451787,3846859,1606987154079169040,imu_link,-0.0048654405400156975,0.00471100490540266,-0.32318758964538574,0.9463107585906982,0.0,0.0,0.0,0.0,0.0,0.0,0.0,0.0,0.0,-37.714534759521484,0.33066999912261963,-0.7021037340164185,0.0,0.0,0.0,0.0,0.0,0.0,0.0,0.0,0.0,0.007077768445014954,0.003946640994399786,0.03122858889400959,0.0,0.0,0.0,0.0,0.0,0.0,0.0,0.0,0.0
1606990755266502542,3846860,1606987154079234620,imu_link,-0.0048654405400156975,0.00471100490540266,-0.32318758964538574,0.9463107585906982,0.0,0.0,0.0,0.0,0.0,0.0,0.0,0.0,0.0,-37.714534759521484,0.33066999912261963,-0.7021037340164185,0.0,0.0,0.0,0.0,0.0,0.0,0.0,0.0,0.0,0.007077768445014954,0.003946640994399786,0.03122858889400959,0.0,0.0,0.0,0.0,0.0,0.0,0.0,0.0,0.0
1606990755266536397,3846861,1606987154079303395,imu_link,-0.004867299925535917,0.004712358582764864,-0.3231845498085022,0.9463117718696594,0.0,0.0,0.0,0.0,0.0,0.0,0.0,0.0,0.0,-37.714168548583984,0.3307502269744873,-0.7023545503616333,0.0,0.0,0.0,0.0,0.0,0.0,0.0,0.0,0.0,-0.021921765059232712,-0.014650481753051281,0.023463496938347816,0.0,0.0,0.0,0.0,0.0,0.0,0.0,0.0,0.0
1606990755266564086,3846862,1606987154079367171,imu_link,-0.004867299925535917,0.004712358582764864,-0.3231845498085022,0.9463117718696594,0.0,0.0,0.0,0.0,0.0,0.0,0.0,0.0,0.0,-37.714168548583984,0.3307502269744873,-0.7023545503616333,0.0,0.0,0.0,0.0,0.0,0.0,0.0,0.0,0.0,-0.021921765059232712,-0.014650481753051281,0.023463496938347816,0.0,0.0,0.0,0.0,0.0,0.0,0.0,0.0,0.0
1606990755267833967,3846863,1606987154079428725,imu_link,-0.0048681749030947685,0.004712898749858141,-0.3231847882270813,0.9463115930557251,0.0,0.0,0.0,0.0,0.0,0.0,0.0,0.0,0.0,-37.71419906616211,0.3307761549949646,-0.702469527721405,0.0,0.0,0.0,0.0,0.0,0.0,0.0,0.0,0.0,-0.013487037271261215,-0.006744605954736471,0.05295729264616966,0.0,0.0,0.0,0.0,0.0,0.0,0.0,0.0,0.0
1606990755267864125,3846864,1606987154092536970,imu_link,-0.0048681749030947685,0.004712898749858141,-0.3231847882270813,0.9463115930557251,0.0,0.0,0.0,0.0,0.0,0.0,0.0,0.0,0.0,-37.71419906616211,0.3307761549949646,-0.702469527721405,0.0,0.0,0.0,0.0,0.0,0.0,0.0,0.0,0.0,-0.013487037271261215,-0.006744605954736471,0.05295729264616966,0.0,0.0,0.0,0.0,0.0,0.0,0.0,0.0,0.0
1606990755267873292,3846865,1606987154092654630,imu_link,-0.0048690554685890675,0.0047093341127038,-0.3231813609600067,0.9463127851486206,0.0,0.0,0.0,0.0,0.0,0.0,0.0,0.0,0.0,-37.71377944946289,0.3303595185279846,-0.7024317979812622,0.0,0.0,0.0,0.0,0.0,0.0,0.0,0.0,0.0,-0.004734563175588846,0.008373959921300411,0.057167548686265945,0.0,0.0,0.0,0.0,0.0,0.0,0.0,0.0,0.0
1606990755267884807,3846866,1606987154092773401,imu_link,-0.0048690554685890675,0.0047093341127038,-0.3231813609600067,0.9463127851486206,0.0,0.0,0.0,0.0,0.0,0.0,0.0,0.0,0.0,-37.71377944946289,0.3303595185279846,-0.7024317979812622,0.0,0.0,0.0,0.0,0.0,0.0,0.0,0.0,0.0,-0.004734563175588846,0.008373959921300411,0.057167548686265945,0.0,0.0,0.0,0.0,0.0,0.0,0.0,0.0,0.0
1606990755307689289,3846867,1606987154092847436,imu_link,-0.004869884345680475,0.0047058300115168095,-0.32318124175071716,0.9463128447532654,0.0,0.0,0.0,0.0,0.0,0.0,0.0,0.0,0.0,-37.71376419067383,0.32994893193244934,-0.7023919224739075,0.0,0.0,0.0,0.0,0.0,0.0,0.0,0.0,0.0,-0.016666561365127563,-0.00484462222084403,0.06113716959953308,0.0,0.0,0.0,0.0,0.0,0.0,0.0,0.0,0.0
1606990755307730329,3846868,1606987154092909837,imu_link,-0.004869884345680475,0.0047058300115168095,-0.32318124175071716,0.9463128447532654,0.0,0.0,0.0,0.0,0.0,0.0,0.0,0.0,0.0,-37.71376419067383,0.32994893193244934,-0.7023919224739075,0.0,0.0,0.0,0.0,0.0,0.0,0.0,0.0,0.0,-0.016666561365127563,-0.00484462222084403,0.06113716959953308,0.0,0.0,0.0,0.0,0.0,0.0,0.0,0.0,0.0
1606990755307786802,3846869,1606987154092974851,imu_link,-0.004867387004196644,0.004703045357018709,-0.3231770396232605,0.9463143348693848,0.0,0.0,0.0,0.0,0.0,0.0,0.0,0.0,0.0,-37.713253021240234,0.3297426104545593,-0.7020163536071777,0.0,0.0,0.0,0.0,0.0,0.0,0.0,0.0,0.0,-0.009248031303286552,-0.006955502554774284,0.06185510382056236,0.0,0.0,0.0,0.0,0.0,0.0,0.0,0.0,0.0
1606990755307830566,3846870,1606987154093048806,imu_link,-0.004867387004196644,0.004703045357018709,-0.3231770396232605,0.9463143348693848,0.0,0.0,0.0,0.0,0.0,0.0,0.0,0.0,0.0,-37.713253021240234,0.3297426104545593,-0.7020163536071777,0.0,0.0,0.0,0.0,0.0,0.0,0.0,0.0,0.0,-0.009248031303286552,-0.006955502554774284,0.06185510382056236,0.0,0.0,0.0,0.0,0.0,0.0,0.0,0.0,0.0
1606990755307860845,3846871,1606987154093121170,imu_link,-0.004868099931627512,0.004702867474406958,-0.3231770396232605,0.9463143348693848,0.0,0.0,0.0,0.0,0.0,0.0,0.0,0.0,0.0,-37.71324920654297,0.3296969532966614,-0.7020870447158813,0.0,0.0,0.0,0.0,0.0,0.0,0.0,0.0,0.0,0.0033859354443848133,-0.00217996584251523,0.026549313217401505,0.0,0.0,0.0,0.0,0.0,0.0,0.0,0.0,0.0
1606990755307965700,3846872,1606987154093216699,imu_link,-0.004868099931627512,0.004702867474406958,-0.3231770396232605,0.9463143348693848,0.0,0.0,0.0,0.0,0.0,0.0,0.0,0.0,0.0,-37.71324920654297,0.3296969532966614,-0.7020870447158813,0.0,0.0,0.0,0.0,0.0,0.0,0.0,0.0,0.0,0.0033859354443848133,-0.00217996584251523,0.026549313217401505,0.0,0.0,0.0,0.0,0.0,0.0,0.0,0.0,0.0
1606990755308020893,3846873,1606987154093287354,imu_link,-0.004869979806244373,0.004702563397586346,-0.3231729567050934,0.9463157057762146,0.0,0.0,0.0,0.0,0.0,0.0,0.0,0.0,0.0,-37.71275329589844,0.3295973837375641,-0.7022783756256104,0.0,0.0,0.0,0.0,0.0,0.0,0.0,0.0,0.0,0.00663311593234539,-0.019503187388181686,0.017698341980576515,0.0,0.0,0.0,0.0,0.0,0.0,0.0,0.0,0.0
