%time,field.header.seq,field.header.stamp,field.header.frame_id,field.orientation.x,field.orientation.y,field.orientation.z,field.orientation.w,field.orientation_covariance0,field.orientation_covariance1,field.orientation_covariance2,field.orientation_covariance3,field.orientation_covariance4,field.orientation_covariance5,field.orientation_covariance6,field.orientation_covariance7,field.orientation_covariance8,field.angular_velocity.x,field.angular_velocity.y,field.angular_velocity.z,field.angular_velocity_covariance0,field.angular_velocity_covariance1,field.angular_velocity_covariance2,field.angular_velocity_covariance3,field.angular_velocity_covariance4,field.angular_velocity_covariance5,field.angular_velocity_covariance6,field.angular_velocity_covariance7,field.angular_velocity_covariance8,field.linear_acceleration.x,field.linear_acceleration.y,field.linear_acceleration.z,field.linear_acceleration_covariance0,field.linear_acceleration_covariance1,field.linear_acceleration_covariance2,field.linear_acceleration_covariance3,field.linear_acceleration_covariance4,field.linear_acceleration_covariance5,field.linear_acceleration_covariance6,field.linear_acceleration_covariance7,field.linear_acceleration_covariance8
1606991193725590684,4198022,1606987593045584863,imu_link,0.006267807446420193,0.0049973404966294765,0.4311840236186981,0.9022284746170044,0.0,0.0,0.0,0.0,0.0,0.0,0.0,0.0,0.0,51.08881759643555,0.2069716602563858,0.8949755430221558,0.0,0.0,0.0,0.0,0.0,0.0,0.0,0.0,0.0,0.0013240758562460542,0.016360430046916008,0.06196538731455803,0.0,0.0,0.0,0.0,0.0,0.0,0.0,0.0,0.0
1606991193725620413,4198023,1606987593045704704,imu_link,0.006268498487770557,0.004996685776859522,0.4311836063861847,0.9022286534309387,0.0,0.0,0.0,0.0,0.0,0.0,0.0,0.0,0.0,51.088768005371094,0.2068701982498169,0.8950145840644836,0.0,0.0,0.0,0.0,0.0,0.0,0.0,0.0,0.0,0.0077364444732666016,0.006484305951744318,0.06784556061029434,0.0,0.0,0.0,0.0,0.0,0.0,0.0,0.0,0.0
1606991193725639605,4198024,1606987593045820853,imu_link,0.006268498487770557,0.004996685776859522,0.4311836063861847,0.9022286534309387,0.0,0.0,0.0,0.0,0.0,0.0,0.0,0.0,0.0,51.088768005371094,0.2068701982498169,0.8950145840644836,0.0,0.0,0.0,0.0,0.0,0.0,0.0,0.0,0.0,0.0077364444732666016,0.006484305951744318,0.06784556061029434,0.0,0.0,0.0,0.0,0.0,0.0,0.0,0.0,0.0
1606991193725646862,4198025,1606987593045897370,imu_link,0.0062689147889614105,0.004998845048248768,0.43118369579315186,0.902228593826294,0.0,0.0,0.0,0.0,0.0,0.0,0.0,0.0,0.0,51.08877944946289,0.20707277953624725,0.8951642513275146,0.0,0.0,0.0,0.0,0.0,0.0,0.0,0.0,0.0,0.009731791913509369,-0.013032045215368271,0.06250171363353729,0.0,0.0,0.0,0.0,0.0,0.0,0.0,0.0,0.0
1606991193729473017,4198026,1606987593045963675,imu_link,0.0062689147889614105,0.004998845048248768,0.43118369579315186,0.902228593826294,0.0,0.0,0.0,0.0,0.0,0.0,0.0,0.0,0.0,51.08877944946289,0.20707277953624725,0.8951642513275146,0.0,0.0,0.0,0.0,0.0,0.0,0.0,0.0,0.0,0.009731791913509369,-0.013032045215368271,0.06250171363353729,0.0,0.0,0.0,0.0,0.0,0.0,0.0,0.0,0.0
1606991193729504440,4198027,1606987593046027972,imu_link,0.006271884310990572,0.004997424781322479,0.4311865270137787,0.9022272229194641,0.0,0.0,0.0,0.0,0.0,0.0,0.0,0.0,0.0,51.089134216308594,0.2067764401435852,0.8954017758369446,0.0,0.0,0.0,0.0,0.0,0.0,0.0,0.0,0.0,-0.0013955561444163322,-0.003778609447181225,0.05146558955311775,0.0,0.0,0.0,0.0,0.0,0.0,0.0,0.0,0.0
1606991193729523068,4198028,1606987593046112684,imu_link,0.006271884310990572,0.004997424781322479,0.4311865270137787,0.9022272229194641,0.0,0.0,0.0,0.0,0.0,0.0,0.0,0.0,0.0,51.089134216308594,0.2067764401435852,0.8954017758369446,0.0,0.0,0.0,0.0,0.0,0.0,0.0,0.0,0.0,-0.0013955561444163322,-0.003778609447181225,0.05146558955311775,0.0,0.0,0.0,0.0,0.0,0.0,0.0,0.0,0.0
1606991193729563407,4198029,1606987593046177659,imu_link,0.006273279897868633,0.004998265765607357,0.4311884045600891,0.9022262096405029,0.0,0.0,0.0,0.0,0.0,0.0,0.0,0.0,0.0,51.08938217163086,0.2067924439907074,0.8955880999565125,0.0,0.0,0.0,0.0,0.0,0.0,0.0,0.0,0.0,-0.01457103993743658,-0.006094662472605705,0.025468995794653893,0.0,0.0,0.0,0.0,0.0,0.0,0.0,0.0,0.0
1606991193768282379,4198030,1606987593046249241,imu_link,0.006273279897868633,0.004998265765607357,0.4311884045600891,0.9022262096405029,0.0,0.0,0.0,0.0,0.0,0.0,0.0,0.0,0.0,51.08938217163086,0.2067924439907074,0.8955880999565125,0.0,0.0,0.0,0.0,0.0,0.0,0.0,0.0,0.0,-0.01457103993743658,-0.006094662472605705,0.025468995794653893,0.0,0.0,0.0,0.0,0.0,0.0,0.0,0.0,0.0
1606991193768314597,4198031,1606987593046315498,imu_link,0.0062736449763178825,0.004995486233383417,0.43118977546691895,0.9022256731987,0.0,0.0,0.0,0.0,0.0,0.0,0.0,0.0,0.0,51.08955001831055,0.20648576319217682,0.8954887390136719,0.0,0.0,0.0,0.0,0.0,0.0,0.0,0.0,0.0,-0.01086231879889965,-0.010387596674263477,0.03711623325943947,0.0,0.0,0.0,0.0,0.0,0.0,0.0,0.0,0.0
1606991193768328599,4198032,1606987593046380368,imu_link,0.0062736449763178825,0.004995486233383417,0.43118977546691895,0.9022256731987,0.0,0.0,0.0,0.0,0.0,0.0,0.0,0.0,0.0,51.08955001831055,0.20648576319217682,0.8954887390136719,0.0,0.0,0.0,0.0,0.0,0.0,0.0,0.0,0.0,-0.01086231879889965,-0.010387596674263477,0.03711623325943947,0.0,0.0,0.0,0.0,0.0,0.0,0.0,0.0,0.0
1606991193768359397,4198033,1606987593059092906,imu_link,0.006277055945247412,0.004996429197490215,0.4311918020248413,0.9022247195243835,0.0,0.0,0.0,0.0,0.0,0.0,0.0,0.0,0.0,51.08980941772461,0.20641271770000458,0.8958884477615356,0.0,0.0,0.0,0.0,0.0,0.0,0.0,0.0,0.0,0.001514632604084909,0.0002416138886474073,0.051108043640851974,0.0,0.0,0.0,0.0,0.0,0.0,0.0,0.0,0.0
1606991193768407184,4198034,1606987593059213292,imu_link,0.006277055945247412,0.004996429197490215,0.4311918020248413,0.9022247195243835,0.0,0.0,0.0,0.0,0.0,0.0,0.0,0.0,0.0,51.08980941772461,0.20641271770000458,0.8958884477615356,0.0,0.0,0.0,0.0,0.0,0.0,0.0,0.0,0.0,0.001514632604084909,0.0002416138886474073,0.051108043640851974,0.0,0.0,0.0,0.0,0.0,0.0,0.0,0.0,0.0
1606991193771937062,4198035,1606987593059374429,imu_link,0.006278775166720152,0.004995332099497318,0.43119218945503235,0.9022244811058044,0.0,0.0,0.0,0.0,0.0,0.0,0.0,0.0,0.0,51.0898551940918,0.20621387660503387,0.8960121273994446,0.0,0.0,0.0,0.0,0.0,0.0,0.0,0.0,0.0,-0.0024946609046310186,0.01504549290984869,0.03964351490139961,0.0,0.0,0.0,0.0,0.0,0.0,0.0,0.0,0.0
1606991193771975902,4198036,1606987593059446900,imu_link,0.006278775166720152,0.004995332099497318,0.43119218945503235,0.9022244811058044,0.0,0.0,0.0,0.0,0.0,0.0,0.0,0.0,0.0,51.0898551940918,0.20621387660503387,0.8960121273994446,0.0,0.0,0.0,0.0,0.0,0.0,0.0,0.0,0.0,-0.0024946609046310186,0.01504549290984869,0.03964351490139961,0.0,0.0,0.0,0.0,0.0,0.0,0.0,0.0,0.0
1606991193772016965,4198037,1606987593059524038,imu_link,0.0062776063568890095,0.004992790520191193,0.4311876595020294,0.9022266268730164,0.0,0.0,0.0,0.0,0.0,0.0,0.0,0.0,0.0,51.08927917480469,0.20601336658000946,0.8957647681236267,0.0,0.0,0.0,0.0,0.0,0.0,0.0,0.0,0.0,-0.0018609954277053475,0.015181701630353928,0.03882918879389763,0.0,0.0,0.0,0.0,0.0,0.0,0.0,0.0,0.0
1606991193772041308,4198038,1606987593059620519,imu_link,0.0062776063568890095,0.004992790520191193,0.4311876595020294,0.9022266268730164,0.0,0.0,0.0,0.0,0.0,0.0,0.0,0.0,0.0,51.08927917480469,0.20601336658000946,0.8957647681236267,0.0,0.0,0.0,0.0,0.0,0.0,0.0,0.0,0.0,-0.0018609954277053475,0.015181701630353928,0.03882918879389763,0.0,0.0,0.0,0.0,0.0,0.0,0.0,0.0,0.0
1606991193788523867,4198039,1606987593059695118,imu_link,0.006276829168200493,0.004993167705833912,0.43118563294410706,0.9022276401519775,0.0,0.0,0.0,0.0,0.0,0.0,0.0,0.0,0.0,51.089019775390625,0.20609281957149506,0.8957024216651917,0.0,0.0,0.0,0.0,0.0,0.0,0.0,0.0,0.0,-0.002526655327528715,0.012182855978608131,0.04823997989296913,0.0,0.0,0.0,0.0,0.0,0.0,0.0,0.0,0.0
1606991193788552000,4198040,1606987593059759957,imu_link,0.006276829168200493,0.004993167705833912,0.43118563294410706,0.9022276401519775,0.0,0.0,0.0,0.0,0.0,0.0,0.0,0.0,0.0,51.089019775390625,0.20609281957149506,0.8957024216651917,0.0,0.0,0.0,0.0,0.0,0.0,0.0,0.0,0.0,-0.002526655327528715,0.012182855978608131,0.04823997989296913,0.0,0.0,0.0,0.0,0.0,0.0,0.0,0.0,0.0
1606991193788561386,4198041,1606987593059830873,imu_link,0.006274742539972067,0.004991095047444105,0.4311807155609131,0.9022300243377686,0.0,0.0,0.0,0.0,0.0,0.0,0.0,0.0,0.0,51.08839416503906,0.20598655939102173,0.8953832387924194,0.0,0.0,0.0,0.0,0.0,0.0,0.0,0.0,0.0,-0.012810350395739079,0.00567344157025218,0.044538263231515884,0.0,0.0,0.0,0.0,0.0,0.0,0.0,0.0,0.0
1606991193788586159,4198042,1606987593059905249,imu_link,0.006274742539972067,0.004991095047444105,0.4311807155609131,0.9022300243377686,0.0,0.0,0.0,0.0,0.0,0.0,0.0,0.0,0.0,51.08839416503906,0.20598655939102173,0.8953832387924194,0.0,0.0,0.0,0.0,0.0,0.0,0.0,0.0,0.0,-0.012810350395739079,0.00567344157025218,0.044538263231515884,0.0,0.0,0.0,0.0,0.0,0.0,0.0,0.0,0.0
1606991193788600049,4198043,1606987593059976137,imu_link,0.006274108774960041,0.004990979563444853,0.43118056654930115,0.9022300839424133,0.0,0.0,0.0,0.0,0.0,0.0,0.0,0.0,0.0,51.08837127685547,0.2060060352087021,0.8953119516372681,0.0,0.0,0.0,0.0,0.0,0.0,0.0,0.0,0.0,-0.021005649119615555,-0.0027169534005224705,0.03756465017795563,0.0,0.0,0.0,0.0,0.0,0.0,0.0,0.0,0.0
1606991193793016235,4198044,1606987593071886743,imu_link,0.006274108774960041,0.004990979563444853,0.43118056654930115,0.9022300839424133,0.0,0.0,0.0,0.0,0.0,0.0,0.0,0.0,0.0,51.08837127685547,0.2060060352087021,0.8953119516372681,0.0,0.0,0.0,0.0,0.0,0.0,0.0,0.0,0.0,-0.021005649119615555,-0.0027169534005224705,0.03756465017795563,0.0,0.0,0.0,0.0,0.0,0.0,0.0,0.0,0.0
1606991193793058145,4198045,1606987593072014274,imu_link,0.006275839172303677,0.004988332279026508,0.43117666244506836,0.9022319316864014,0.0,0.0,0.0,0.0,0.0,0.0,0.0,0.0,0.0,51.0878791809082,0.2056507021188736,0.8953590989112854,0.0,0.0,0.0,0.0,0.0,0.0,0.0,0.0,0.0,-0.028817497193813324,0.0005626921774819493,0.02724456414580345,0.0,0.0,0.0,0.0,0.0,0.0,0.0,0.0,0.0
1606991193793074033,4198046,1606987593072152719,imu_link,0.006275839172303677,0.004988332279026508,0.43117666244506836,0.9022319316864014,0.0,0.0,0.0,0.0,0.0,0.0,0.0,0.0,0.0,51.0878791809082,0.2056507021188736,0.8953590989112854,0.0,0.0,0.0,0.0,0.0,0.0,0.0,0.0,0.0,-0.028817497193813324,0.0005626921774819493,0.02724456414580345,0.0,0.0,0.0,0.0,0.0,0.0,0.0,0.0,0.0
1606991193793092005,4198047,1606987593072236655,imu_link,0.006277657579630613,0.004987884778529406,0.4311789572238922,0.9022308588027954,0.0,0.0,0.0,0.0,0.0,0.0,0.0,0.0,0.0,51.088165283203125,0.20551235973834991,0.8955255746841431,0.0,0.0,0.0,0.0,0.0,0.0,0.0,0.0,0.0,-0.024177273735404015,-0.00010941052460111678,0.027698131278157234,0.0,0.0,0.0,0.0,0.0,0.0,0.0,0.0,0.0
1606991193897669455,4198048,1606987593072302666,imu_link,0.006277657579630613,0.004987884778529406,0.4311789572238922,0.9022308588027954,0.0,0.0,0.0,0.0,0.0,0.0,0.0,0.0,0.0,51.088165283203125,0.20551235973834991,0.8955255746841431,0.0,0.0,0.0,0.0,0.0,0.0,0.0,0.0,0.0,-0.024177273735404015,-0.00010941052460111678,0.027698131278157234,0.0,0.0,0.0,0.0,0.0,0.0,0.0,0.0,0.0
1606991193897689361,4198049,1606987593072393609,imu_link,0.006278601009398699,0.004986157640814781,0.43117791414260864,0.9022313356399536,0.0,0.0,0.0,0.0,0.0,0.0,0.0,0.0,0.0,51.08803176879883,0.20528817176818848,0.8955375552177429,0.0,0.0,0.0,0.0,0.0,0.0,0.0,0.0,0.0,-0.015173785388469696,-0.0032482927199453115,0.052057500928640366,0.0,0.0,0.0,0.0,0.0,0.0,0.0,0.0,0.0
1606991193897709975,4198050,1606987593072468690,imu_link,0.006278601009398699,0.004986157640814781,0.43117791414260864,0.9022313356399536,0.0,0.0,0.0,0.0,0.0,0.0,0.0,0.0,0.0,51.08803176879883,0.20528817176818848,0.8955375552177429,0.0,0.0,0.0,0.0,0.0,0.0,0.0,0.0,0.0,-0.015173785388469696,-0.0032482927199453115,0.052057500928640366,0.0,0.0,0.0,0.0,0.0,0.0,0.0,0.0,0.0
1606991193897731813,4198051,1606987593072541254,imu_link,0.006279023364186287,0.004984892439097166,0.4311789572238922,0.9022308588027954,0.0,0.0,0.0,0.0,0.0,0.0,0.0,0.0,0.0,51.088157653808594,0.2051355093717575,0.895518958568573,0.0,0.0,0.0,0.0,0.0,0.0,0.0,0.0,0.0,-0.01470116339623928,-0.01133766584098339,0.04738617688417435,0.0,0.0,0.0,0.0,0.0,0.0,0.0,0.0,0.0
1606991193897761345,4198052,1606987593072615795,imu_link,0.006279023364186287,0.004984892439097166,0.4311789572238922,0.9022308588027954,0.0,0.0,0.0,0.0,0.0,0.0,0.0,0.0,0.0,51.088157653808594,0.2051355093717575,0.895518958568573,0.0,0.0,0.0,0.0,0.0,0.0,0.0,0.0,0.0,-0.01470116339623928,-0.01133766584098339,0.04738617688417435,0.0,0.0,0.0,0.0,0.0,0.0,0.0,0.0,0.0
1606991193903492563,4198053,1606987593072688585,imu_link,0.00628251675516367,0.004984802566468716,0.4311766028404236,0.9022319912910461,0.0,0.0,0.0,0.0,0.0,0.0,0.0,0.0,0.0,51.08786392211914,0.20495595037937164,0.895875096321106,0.0,0.0,0.0,0.0,0.0,0.0,0.0,0.0,0.0,0.0009491487871855497,-0.012058837339282036,0.04526173695921898,0.0,0.0,0.0,0.0,0.0,0.0,0.0,0.0,0.0
1606991193903521658,4198054,1606987593085642672,imu_link,0.00628251675516367,0.004984802566468716,0.4311766028404236,0.9022319912910461,0.0,0.0,0.0,0.0,0.0,0.0,0.0,0.0,0.0,51.08786392211914,0.20495595037937164,0.895875096321106,0.0,0.0,0.0,0.0,0.0,0.0,0.0,0.0,0.0,0.0009491487871855497,-0.012058837339282036,0.04526173695921898,0.0,0.0,0.0,0.0,0.0,0.0,0.0,0.0,0.0
1606991193903532200,4198055,1606987593085765565,imu_link,0.006283716298639774,0.004982820246368647,0.4311780333518982,0.9022312760353088,0.0,0.0,0.0,0.0,0.0,0.0,0.0,0.0,0.0,51.08804702758789,0.20469026267528534,0.8959014415740967,0.0,0.0,0.0,0.0,0.0,0.0,0.0,0.0,0.0,0.020874859765172005,-0.0038975682109594345,0.05797379091382027,0.0,0.0,0.0,0.0,0.0,0.0,0.0,0.0,0.0
1606991193903578903,4198056,1606987593085889394,imu_link,0.006283716298639774,0.004982820246368647,0.4311780333518982,0.9022312760353088,0.0,0.0,0.0,0.0,0.0,0.0,0.0,0.0,0.0,51.08804702758789,0.20469026267528534,0.8959014415740967,0.0,0.0,0.0,0.0,0.0,0.0,0.0,0.0,0.0,0.020874859765172005,-0.0038975682109594345,0.05797379091382027,0.0,0.0,0.0,0.0,0.0,0.0,0.0,0.0,0.0
1606991193906672494,4198057,1606987593085967218,imu_link,0.006281955633312464,0.004984576255083084,0.43117502331733704,0.9022327065467834,0.0,0.0,0.0,0.0,0.0,0.0,0.0,0.0,0.0,51.087669372558594,0.20496180653572083,0.8958055377006531,0.0,0.0,0.0,0.0,0.0,0.0,0.0,0.0,0.0,0.010278119705617428,0.006733734160661697,0.06114713102579117,0.0,0.0,0.0,0.0,0.0,0.0,0.0,0.0,0.0
1606991193906711008,4198058,1606987593086036699,imu_link,0.006281955633312464,0.004984576255083084,0.43117502331733704,0.9022327065467834,0.0,0.0,0.0,0.0,0.0,0.0,0.0,0.0,0.0,51.087669372558594,0.20496180653572083,0.8958055377006531,0.0,0.0,0.0,0.0,0.0,0.0,0.0,0.0,0.0,0.010278119705617428,0.006733734160661697,0.06114713102579117,0.0,0.0,0.0,0.0,0.0,0.0,0.0,0.0,0.0
1606991193906745348,4198059,1606987593086109664,imu_link,0.006282257381826639,0.00498467730358243,0.4311758875846863,0.90223228931427,0.0,0.0,0.0,0.0,0.0,0.0,0.0,0.0,0.0,51.08777618408203,0.20495645701885223,0.8958420157432556,0.0,0.0,0.0,0.0,0.0,0.0,0.0,0.0,0.0,0.0027464618906378746,0.002096097683534026,0.07531937956809998,0.0,0.0,0.0,0.0,0.0,0.0,0.0,0.0,0.0
1606991193906772164,4198060,1606987593086196060,imu_link,0.006282257381826639,0.00498467730358243,0.4311758875846863,0.90223228931427,0.0,0.0,0.0,0.0,0.0,0.0,0.0,0.0,0.0,51.08777618408203,0.20495645701885223,0.8958420157432556,0.0,0.0,0.0,0.0,0.0,0.0,0.0,0.0,0.0,0.0027464618906378746,0.002096097683534026,0.07531937956809998,0.0,0.0,0.0,0.0,0.0,0.0,0.0,0.0,0.0
1606991193906791073,4198061,1606987593086267826,imu_link,0.006281608249992132,0.0049849702045321465,0.43117424845695496,0.9022330641746521,0.0,0.0,0.0,0.0,0.0,0.0,0.0,0.0,0.0,51.08757019042969,0.2050204575061798,0.895788848400116,0.0,0.0,0.0,0.0,0.0,0.0,0.0,0.0,0.0,0.011181206442415714,-0.00545298308134079,0.046341512352228165,0.0,0.0,0.0,0.0,0.0,0.0,0.0,0.0,0.0
1606991193909844109,4198062,1606987593086403651,imu_link,0.006281608249992132,0.0049849702045321465,0.43117424845695496,0.9022330641746521,0.0,0.0,0.0,0.0,0.0,0.0,0.0,0.0,0.0,51.08757019042969,0.2050204575061798,0.895788848400116,0.0,0.0,0.0,0.0,0.0,0.0,0.0,0.0,0.0,0.011181206442415714,-0.00545298308134079,0.046341512352228165,0.0,0.0,0.0,0.0,0.0,0.0,0.0,0.0,0.0
1606991193909880163,4198063,1606987593086479212,imu_link,0.006282872520387173,0.004983799532055855,0.43117624521255493,0.9022321105003357,0.0,0.0,0.0,0.0,0.0,0.0,0.0,0.0,0.0,51.08781814575195,0.20483499765396118,0.8958621621131897,0.0,0.0,0.0,0.0,0.0,0.0,0.0,0.0,0.0,-0.0016206922009587288,-0.01029848400503397,0.030236095190048218,0.0,0.0,0.0,0.0,0.0,0.0,0.0,0.0,0.0
1606991193909901183,4198064,1606987593086550136,imu_link,0.006282872520387173,0.004983799532055855,0.43117624521255493,0.9022321105003357,0.0,0.0,0.0,0.0,0.0,0.0,0.0,0.0,0.0,51.08781814575195,0.20483499765396118,0.8958621621131897,0.0,0.0,0.0,0.0,0.0,0.0,0.0,0.0,0.0,-0.0016206922009587288,-0.01029848400503397,0.030236095190048218,0.0,0.0,0.0,0.0,0.0,0.0,0.0,0.0,0.0
1606991193909920187,4198065,1606987593099163987,imu_link,0.006286018993705511,0.0049834419041872025,0.43117234110832214,0.9022339582443237,0.0,0.0,0.0,0.0,0.0,0.0,0.0,0.0,0.0,51.08732223510742,0.20464642345905304,0.8961688876152039,0.0,0.0,0.0,0.0,0.0,0.0,0.0,0.0,0.0,-0.02266210876405239,-0.008913573808968067,0.05515456944704056,0.0,0.0,0.0,0.0,0.0,0.0,0.0,0.0,0.0
1606991193945244403,4198066,1606987593099244924,imu_link,0.006286018993705511,0.0049834419041872025,0.43117234110832214,0.9022339582443237,0.0,0.0,0.0,0.0,0.0,0.0,0.0,0.0,0.0,51.08732223510742,0.20464642345905304,0.8961688876152039,0.0,0.0,0.0,0.0,0.0,0.0,0.0,0.0,0.0,-0.02266210876405239,-0.008913573808968067,0.05515456944704056,0.0,0.0,0.0,0.0,0.0,0.0,0.0,0.0,0.0
1606991193945263780,4198067,1606987593099314342,imu_link,0.006285801995545626,0.0049842908047139645,0.4311722218990326,0.9022340178489685,0.0,0.0,0.0,0.0,0.0,0.0,0.0,0.0,0.0,51.087310791015625,0.20474500954151154,0.8961885571479797,0.0,0.0,0.0,0.0,0.0,0.0,0.0,0.0,0.0,-0.022791700437664986,0.006172189023345709,0.07552201300859451,0.0,0.0,0.0,0.0,0.0,0.0,0.0,0.0,0.0
1606991193945271014,4198068,1606987593099358039,imu_link,0.006285801995545626,0.0049842908047139645,0.4311722218990326,0.9022340178489685,0.0,0.0,0.0,0.0,0.0,0.0,0.0,0.0,0.0,51.087310791015625,0.20474500954151154,0.8961885571479797,0.0,0.0,0.0,0.0,0.0,0.0,0.0,0.0,0.0,-0.022791700437664986,0.006172189023345709,0.07552201300859451,0.0,0.0,0.0,0.0,0.0,0.0,0.0,0.0,0.0
1606991193945282154,4198069,1606987593099398101,imu_link,0.0062843249179422855,0.004981134552508593,0.43117547035217285,0.9022325277328491,0.0,0.0,0.0,0.0,0.0,0.0,0.0,0.0,0.0,51.08771514892578,0.20448850095272064,0.8958804607391357,0.0,0.0,0.0,0.0,0.0,0.0,0.0,0.0,0.0,-0.010737776756286621,0.012788155116140842,0.06501477211713791,0.0,0.0,0.0,0.0,0.0,0.0,0.0,0.0,0.0
1606991193945290137,4198070,1606987593099441672,imu_link,0.0062843249179422855,0.004981134552508593,0.43117547035217285,0.9022325277328491,0.0,0.0,0.0,0.0,0.0,0.0,0.0,0.0,0.0,51.08771514892578,0.20448850095272064,0.8958804607391357,0.0,0.0,0.0,0.0,0.0,0.0,0.0,0.0,0.0,-0.010737776756286621,0.012788155116140842,0.06501477211713791,0.0,0.0,0.0,0.0,0.0,0.0,0.0,0.0,0.0
1606991193952928672,4198071,1606987593099492946,imu_link,0.006283314432948828,0.00498275738209486,0.4311748445034027,0.902232825756073,0.0,0.0,0.0,0.0,0.0,0.0,0.0,0.0,0.0,51.08763885498047,0.2047068029642105,0.8958562016487122,0.0,0.0,0.0,0.0,0.0,0.0,0.0,0.0,0.0,-0.0067864046432077885,0.00400828942656517,0.058958835899829865,0.0,0.0,0.0,0.0,0.0,0.0,0.0,0.0,0.0
1606991193952943659,4198072,1606987593099534605,imu_link,0.006283314432948828,0.00498275738209486,0.4311748445034027,0.902232825756073,0.0,0.0,0.0,0.0,0.0,0.0,0.0,0.0,0.0,51.08763885498047,0.2047068029642105,0.8958562016487122,0.0,0.0,0.0,0.0,0.0,0.0,0.0,0.0,0.0,-0.0067864046432077885,0.00400828942656517,0.058958835899829865,0.0,0.0,0.0,0.0,0.0,0.0,0.0,0.0,0.0
1606991193952952171,4198073,1606987593099576847,imu_link,0.0062823835760355,0.00498252222314477,0.43117719888687134,0.9022316932678223,0.0,0.0,0.0,0.0,0.0,0.0,0.0,0.0,0.0,51.08793258666992,0.20472611486911774,0.8957488536834717,0.0,0.0,0.0,0.0,0.0,0.0,0.0,0.0,0.0,-0.010413272306323051,0.0063752406276762486,0.05999905988574028,0.0,0.0,0.0,0.0,0.0,0.0,0.0,0.0,0.0
1606991193952957881,4198074,1606987593099617361,imu_link,0.0062823835760355,0.00498252222314477,0.43117719888687134,0.9022316932678223,0.0,0.0,0.0,0.0,0.0,0.0,0.0,0.0,0.0,51.08793258666992,0.20472611486911774,0.8957488536834717,0.0,0.0,0.0,0.0,0.0,0.0,0.0,0.0,0.0,-0.010413272306323051,0.0063752406276762486,0.05999905988574028,0.0,0.0,0.0,0.0,0.0,0.0,0.0,0.0,0.0
1606991193958406923,4198075,1606987593099657872,imu_link,0.006283731199800968,0.004982577636837959,0.4311786890029907,0.9022308588027954,0.0,0.0,0.0,0.0,0.0,0.0,0.0,0.0,0.0,51.088130950927734,0.2046637386083603,0.8958913087844849,0.0,0.0,0.0,0.0,0.0,0.0,0.0,0.0,0.0,0.001185959787108004,0.022072378545999527,0.048624150454998016,0.0,0.0,0.0,0.0,0.0,0.0,0.0,0.0,0.0
1606991193958427915,4198076,1606987593112987090,imu_link,0.006283731199800968,0.004982577636837959,0.4311786890029907,0.9022308588027954,0.0,0.0,0.0,0.0,0.0,0.0,0.0,0.0,0.0,51.088130950927734,0.2046637386083603,0.8958913087844849,0.0,0.0,0.0,0.0,0.0,0.0,0.0,0.0,0.0,0.001185959787108004,0.022072378545999527,0.048624150454998016,0.0,0.0,0.0,0.0,0.0,0.0,0.0,0.0,0.0
1606991193958475155,4198077,1606987593113062342,imu_link,0.006281752604991198,0.00498234061524272,0.4311807155609131,0.9022299647331238,0.0,0.0,0.0,0.0,0.0,0.0,0.0,0.0,0.0,51.08838653564453,0.20473502576351166,0.8956754207611084,0.0,0.0,0.0,0.0,0.0,0.0,0.0,0.0,0.0,0.007336595561355352,-0.00014160701539367437,0.06259655207395554,0.0,0.0,0.0,0.0,0.0,0.0,0.0,0.0,0.0
1606991193958486730,4198078,1606987593113166448,imu_link,0.006281752604991198,0.00498234061524272,0.4311807155609131,0.9022299647331238,0.0,0.0,0.0,0.0,0.0,0.0,0.0,0.0,0.0,51.08838653564453,0.20473502576351166,0.8956754207611084,0.0,0.0,0.0,0.0,0.0,0.0,0.0,0.0,0.0,0.007336595561355352,-0.00014160701539367437,0.06259655207395554,0.0,0.0,0.0,0.0,0.0,0.0,0.0,0.0,0.0
1606991193958499116,4198079,1606987593113209287,imu_link,0.006282343529164791,0.004983104299753904,0.43118149042129517,0.9022296071052551,0.0,0.0,0.0,0.0,0.0,0.0,0.0,0.0,0.0,51.08848571777344,0.20478403568267822,0.8957743644714355,0.0,0.0,0.0,0.0,0.0,0.0,0.0,0.0,0.0,0.0021463248413056135,-0.009876231662929058,0.06277409940958023,0.0,0.0,0.0,0.0,0.0,0.0,0.0,0.0,0.0
1606991193963078998,4198080,1606987593113249006,imu_link,0.006282343529164791,0.004983104299753904,0.43118149042129517,0.9022296071052551,0.0,0.0,0.0,0.0,0.0,0.0,0.0,0.0,0.0,51.08848571777344,0.20478403568267822,0.8957743644714355,0.0,0.0,0.0,0.0,0.0,0.0,0.0,0.0,0.0,0.0021463248413056135,-0.009876231662929058,0.06277409940958023,0.0,0.0,0.0,0.0,0.0,0.0,0.0,0.0,0.0
1606991193963099165,4198081,1606987593113288317,imu_link,0.0062830145470798016,0.004986864048987627,0.4311836361885071,0.902228593826294,0.0,0.0,0.0,0.0,0.0,0.0,0.0,0.0,0.0,51.08876037597656,0.2051374763250351,0.896030068397522,0.0,0.0,0.0,0.0,0.0,0.0,0.0,0.0,0.0,-0.010453139431774616,0.009368778206408024,0.06358883529901505,0.0,0.0,0.0,0.0,0.0,0.0,0.0,0.0,0.0
1606991193963107368,4198082,1606987593113340255,imu_link,0.0062830145470798016,0.004986864048987627,0.4311836361885071,0.902228593826294,0.0,0.0,0.0,0.0,0.0,0.0,0.0,0.0,0.0,51.08876037597656,0.2051374763250351,0.896030068397522,0.0,0.0,0.0,0.0,0.0,0.0,0.0,0.0,0.0,-0.010453139431774616,0.009368778206408024,0.06358883529901505,0.0,0.0,0.0,0.0,0.0,0.0,0.0,0.0,0.0
1606991193963116567,4198083,1606987593113381916,imu_link,0.006280325353145599,0.004987142980098724,0.4311840534210205,0.9022284150123596,0.0,0.0,0.0,0.0,0.0,0.0,0.0,0.0,0.0,51.08881378173828,0.2052987664937973,0.8957659006118774,0.0,0.0,0.0,0.0,0.0,0.0,0.0,0.0,0.0,-0.014162999577820301,0.01668344996869564,0.08508948236703873,0.0,0.0,0.0,0.0,0.0,0.0,0.0,0.0,0.0
1606991194044009526,4198084,1606987593113422420,imu_link,0.006280325353145599,0.004987142980098724,0.4311840534210205,0.9022284150123596,0.0,0.0,0.0,0.0,0.0,0.0,0.0,0.0,0.0,51.08881378173828,0.2052987664937973,0.8957659006118774,0.0,0.0,0.0,0.0,0.0,0.0,0.0,0.0,0.0,-0.014162999577820301,0.01668344996869564,0.08508948236703873,0.0,0.0,0.0,0.0,0.0,0.0,0.0,0.0,0.0
1606991194044038575,4198085,1606987593113460764,imu_link,0.006278467830270529,0.004984010476619005,0.43118196725845337,0.9022294282913208,0.0,0.0,0.0,0.0,0.0,0.0,0.0,0.0,0.0,51.08854675292969,0.20506878197193146,0.8954184055328369,0.0,0.0,0.0,0.0,0.0,0.0,0.0,0.0,0.0,-0.0004376462893560529,0.022127995267510414,0.08435358107089996,0.0,0.0,0.0,0.0,0.0,0.0,0.0,0.0,0.0
1606991194044054219,4198086,1606987593113501055,imu_link,0.006278467830270529,0.004984010476619005,0.43118196725845337,0.9022294282913208,0.0,0.0,0.0,0.0,0.0,0.0,0.0,0.0,0.0,51.08854675292969,0.20506878197193146,0.8954184055328369,0.0,0.0,0.0,0.0,0.0,0.0,0.0,0.0,0.0,-0.0004376462893560529,0.022127995267510414,0.08435358107089996,0.0,0.0,0.0,0.0,0.0,0.0,0.0,0.0,0.0
1606991194044069398,4198087,1606987593126461624,imu_link,0.006277838256210089,0.004984602332115173,0.431182324886322,0.9022291898727417,0.0,0.0,0.0,0.0,0.0,0.0,0.0,0.0,0.0,51.088592529296875,0.2051606923341751,0.8953827619552612,0.0,0.0,0.0,0.0,0.0,0.0,0.0,0.0,0.0,0.008413271978497505,0.01044449768960476,0.0330447219312191,0.0,0.0,0.0,0.0,0.0,0.0,0.0,0.0,0.0
1606991194044077160,4198088,1606987593126536322,imu_link,0.006277838256210089,0.004984602332115173,0.431182324886322,0.9022291898727417,0.0,0.0,0.0,0.0,0.0,0.0,0.0,0.0,0.0,51.088592529296875,0.2051606923341751,0.8953827619552612,0.0,0.0,0.0,0.0,0.0,0.0,0.0,0.0,0.0,0.008413271978497505,0.01044449768960476,0.0330447219312191,0.0,0.0,0.0,0.0,0.0,0.0,0.0,0.0,0.0
1606991194052921780,4198089,1606987593126586055,imu_link,0.00627756817266345,0.004985520616173744,0.43117865920066833,0.902230978012085,0.0,0.0,0.0,0.0,0.0,0.0,0.0,0.0,0.0,51.08812713623047,0.2052726149559021,0.8953994512557983,0.0,0.0,0.0,0.0,0.0,0.0,0.0,0.0,0.0,0.01565992645919323,0.007915654219686985,0.03552332893013954,0.0,0.0,0.0,0.0,0.0,0.0,0.0,0.0,0.0
1606991194052954391,4198090,1606987593126625060,imu_link,0.00627756817266345,0.004985520616173744,0.43117865920066833,0.902230978012085,0.0,0.0,0.0,0.0,0.0,0.0,0.0,0.0,0.0,51.08812713623047,0.2052726149559021,0.8953994512557983,0.0,0.0,0.0,0.0,0.0,0.0,0.0,0.0,0.0,0.01565992645919323,0.007915654219686985,0.03552332893013954,0.0,0.0,0.0,0.0,0.0,0.0,0.0,0.0,0.0
1606991194052972252,4198091,1606987593126666694,imu_link,0.006278933957219124,0.004984998609870672,0.431180477142334,0.9022300839424133,0.0,0.0,0.0,0.0,0.0,0.0,0.0,0.0,0.0,51.088356018066406,0.2051493227481842,0.8955152034759521,0.0,0.0,0.0,0.0,0.0,0.0,0.0,0.0,0.0,0.006930260919034481,0.007809269241988659,0.051878008991479874,0.0,0.0,0.0,0.0,0.0,0.0,0.0,0.0,0.0
1606991194052981102,4198092,1606987593126717574,imu_link,0.006278933957219124,0.004984998609870672,0.431180477142334,0.9022300839424133,0.0,0.0,0.0,0.0,0.0,0.0,0.0,0.0,0.0,51.088356018066406,0.2051493227481842,0.8955152034759521,0.0,0.0,0.0,0.0,0.0,0.0,0.0,0.0,0.0,0.006930260919034481,0.007809269241988659,0.051878008991479874,0.0,0.0,0.0,0.0,0.0,0.0,0.0,0.0,0.0
1606991194090138635,4198093,1606987593126758592,imu_link,0.006275604013353586,0.00498454924672842,0.4311705231666565,0.9022348523139954,0.0,0.0,0.0,0.0,0.0,0.0,0.0,0.0,0.0,51.087093353271484,0.20527730882167816,0.8951465487480164,0.0,0.0,0.0,0.0,0.0,0.0,0.0,0.0,0.0,-0.004866085015237331,0.004141094163060188,0.04823053255677223,0.0,0.0,0.0,0.0,0.0,0.0,0.0,0.0,0.0
1606991194090175039,4198094,1606987593126802260,imu_link,0.006275604013353586,0.00498454924672842,0.4311705231666565,0.9022348523139954,0.0,0.0,0.0,0.0,0.0,0.0,0.0,0.0,0.0,51.087093353271484,0.20527730882167816,0.8951465487480164,0.0,0.0,0.0,0.0,0.0,0.0,0.0,0.0,0.0,-0.004866085015237331,0.004141094163060188,0.04823053255677223,0.0,0.0,0.0,0.0,0.0,0.0,0.0,0.0,0.0
1606991194090234464,4198095,1606987593126842345,imu_link,0.006275693885982037,0.004983753897249699,0.43117162585258484,0.9022343754768372,0.0,0.0,0.0,0.0,0.0,0.0,0.0,0.0,0.0,51.08723068237305,0.2051895260810852,0.8951168060302734,0.0,0.0,0.0,0.0,0.0,0.0,0.0,0.0,0.0,-0.0022669415920972824,0.001277870498597622,0.06730806827545166,0.0,0.0,0.0,0.0,0.0,0.0,0.0,0.0,0.0
1606991194090261792,4198096,1606987593126884896,imu_link,0.006275693885982037,0.004983753897249699,0.43117162585258484,0.9022343754768372,0.0,0.0,0.0,0.0,0.0,0.0,0.0,0.0,0.0,51.08723068237305,0.2051895260810852,0.8951168060302734,0.0,0.0,0.0,0.0,0.0,0.0,0.0,0.0,0.0,-0.0022669415920972824,0.001277870498597622,0.06730806827545166,0.0,0.0,0.0,0.0,0.0,0.0,0.0,0.0,0.0
1606991194095700492,4198097,1606987593126924846,imu_link,0.00627418328076601,0.004983092192560434,0.43116313219070435,0.9022384285926819,0.0,0.0,0.0,0.0,0.0,0.0,0.0,0.0,0.0,51.08615493774414,0.20520420372486115,0.8949258327484131,0.0,0.0,0.0,0.0,0.0,0.0,0.0,0.0,0.0,-0.011766470968723297,-0.008375118486583233,0.051859814673662186,0.0,0.0,0.0,0.0,0.0,0.0,0.0,0.0,0.0
1606991194095718295,4198098,1606987593139229096,imu_link,0.00627418328076601,0.004983092192560434,0.43116313219070435,0.9022384285926819,0.0,0.0,0.0,0.0,0.0,0.0,0.0,0.0,0.0,51.08615493774414,0.20520420372486115,0.8949258327484131,0.0,0.0,0.0,0.0,0.0,0.0,0.0,0.0,0.0,-0.011766470968723297,-0.008375118486583233,0.051859814673662186,0.0,0.0,0.0,0.0,0.0,0.0,0.0,0.0,0.0
1606991194095723381,4198099,1606987593139305400,imu_link,0.006273460574448109,0.004981549456715584,0.43116462230682373,0.9022377133369446,0.0,0.0,0.0,0.0,0.0,0.0,0.0,0.0,0.0,51.086341857910156,0.20507894456386566,0.8947752714157104,0.0,0.0,0.0,0.0,0.0,0.0,0.0,0.0,0.0,-0.012594995088875294,-0.004350848495960236,0.028691133484244347,0.0,0.0,0.0,0.0,0.0,0.0,0.0,0.0,0.0
1606991194095736398,4198100,1606987593139362047,imu_link,0.006273460574448109,0.004981549456715584,0.43116462230682373,0.9022377133369446,0.0,0.0,0.0,0.0,0.0,0.0,0.0,0.0,0.0,51.086341857910156,0.20507894456386566,0.8947752714157104,0.0,0.0,0.0,0.0,0.0,0.0,0.0,0.0,0.0,-0.012594995088875294,-0.004350848495960236,0.028691133484244347,0.0,0.0,0.0,0.0,0.0,0.0,0.0,0.0,0.0
1606991194095743215,4198101,1606987593139412160,imu_link,0.006275700405240059,0.0049791354686021805,0.4311690628528595,0.9022356271743774,0.0,0.0,0.0,0.0,0.0,0.0,0.0,0.0,0.0,51.0869026184082,0.20471426844596863,0.8948885798454285,0.0,0.0,0.0,0.0,0.0,0.0,0.0,0.0,0.0,-0.004831213969737291,0.003874939400702715,0.045246630907058716,0.0,0.0,0.0,0.0,0.0,0.0,0.0,0.0,0.0
1606991194105098749,4198102,1606987593139466506,imu_link,0.006275700405240059,0.0049791354686021805,0.4311690628528595,0.9022356271743774,0.0,0.0,0.0,0.0,0.0,0.0,0.0,0.0,0.0,51.0869026184082,0.20471426844596863,0.8948885798454285,0.0,0.0,0.0,0.0,0.0,0.0,0.0,0.0,0.0,-0.004831213969737291,0.003874939400702715,0.045246630907058716,0.0,0.0,0.0,0.0,0.0,0.0,0.0,0.0,0.0
1606991194105122104,4198103,1606987593139535960,imu_link,0.006276292260736227,0.004977402277290821,0.43116798996925354,0.9022361040115356,0.0,0.0,0.0,0.0,0.0,0.0,0.0,0.0,0.0,51.086761474609375,0.20450688898563385,0.8948638439178467,0.0,0.0,0.0,0.0,0.0,0.0,0.0,0.0,0.0,-0.0032197674736380577,0.007707350421696901,0.046528808772563934,0.0,0.0,0.0,0.0,0.0,0.0,0.0,0.0,0.0
1606991194105135660,4198104,1606987593139589855,imu_link,0.006276292260736227,0.004977402277290821,0.43116798996925354,0.9022361040115356,0.0,0.0,0.0,0.0,0.0,0.0,0.0,0.0,0.0,51.086761474609375,0.20450688898563385,0.8948638439178467,0.0,0.0,0.0,0.0,0.0,0.0,0.0,0.0,0.0,-0.0032197674736380577,0.007707350421696901,0.046528808772563934,0.0,0.0,0.0,0.0,0.0,0.0,0.0,0.0,0.0
1606991194105143694,4198105,1606987593139647441,imu_link,0.00627386337146163,0.004976633004844189,0.4311719536781311,0.9022342562675476,0.0,0.0,0.0,0.0,0.0,0.0,0.0,0.0,0.0,51.0872688293457,0.20454345643520355,0.8945756554603577,0.0,0.0,0.0,0.0,0.0,0.0,0.0,0.0,0.0,0.00010237579408567399,0.006773137953132391,0.039757583290338516,0.0,0.0,0.0,0.0,0.0,0.0,0.0,0.0,0.0
1606991194127510874,4198106,1606987593139695830,imu_link,0.00627386337146163,0.004976633004844189,0.4311719536781311,0.9022342562675476,0.0,0.0,0.0,0.0,0.0,0.0,0.0,0.0,0.0,51.0872688293457,0.20454345643520355,0.8945756554603577,0.0,0.0,0.0,0.0,0.0,0.0,0.0,0.0,0.0,0.00010237579408567399,0.006773137953132391,0.039757583290338516,0.0,0.0,0.0,0.0,0.0,0.0,0.0,0.0,0.0
1606991194127538135,4198107,1606987593139749030,imu_link,0.006273677106946707,0.004975559655576944,0.4311736822128296,0.9022334218025208,0.0,0.0,0.0,0.0,0.0,0.0,0.0,0.0,0.0,51.08748245239258,0.20444002747535706,0.8945037126541138,0.0,0.0,0.0,0.0,0.0,0.0,0.0,0.0,0.0,-0.00310050742700696,-5.6920573115348816e-05,0.06643129885196686,0.0,0.0,0.0,0.0,0.0,0.0,0.0,0.0,0.0
1606991194127555914,4198108,1606987593153221188,imu_link,0.006273677106946707,0.004975559655576944,0.4311736822128296,0.9022334218025208,0.0,0.0,0.0,0.0,0.0,0.0,0.0,0.0,0.0,51.08748245239258,0.20444002747535706,0.8945037126541138,0.0,0.0,0.0,0.0,0.0,0.0,0.0,0.0,0.0,-0.00310050742700696,-5.6920573115348816e-05,0.06643129885196686,0.0,0.0,0.0,0.0,0.0,0.0,0.0,0.0,0.0
1606991194127593190,4198109,1606987593153317481,imu_link,0.006273094564676285,0.004977366421371698,0.4311717748641968,0.9022343158721924,0.0,0.0,0.0,0.0,0.0,0.0,0.0,0.0,0.0,51.08724594116211,0.20465746521949768,0.894532322883606,0.0,0.0,0.0,0.0,0.0,0.0,0.0,0.0,0.0,0.0073088668286800385,0.004792236723005772,0.053582318127155304,0.0,0.0,0.0,0.0,0.0,0.0,0.0,0.0,0.0
1606991194127603118,4198110,1606987593153450232,imu_link,0.006273094564676285,0.004977366421371698,0.4311717748641968,0.9022343158721924,0.0,0.0,0.0,0.0,0.0,0.0,0.0,0.0,0.0,51.08724594116211,0.20465746521949768,0.894532322883606,0.0,0.0,0.0,0.0,0.0,0.0,0.0,0.0,0.0,0.0073088668286800385,0.004792236723005772,0.053582318127155304,0.0,0.0,0.0,0.0,0.0,0.0,0.0,0.0,0.0
1606991194179136784,4198111,1606987593153507735,imu_link,0.006274821236729622,0.004975323565304279,0.4311700165271759,0.902235209941864,0.0,0.0,0.0,0.0,0.0,0.0,0.0,0.0,0.0,51.08701705932617,0.204362690448761,0.8946095108985901,0.0,0.0,0.0,0.0,0.0,0.0,0.0,0.0,0.0,0.008484953083097935,0.021528584882616997,0.027766242623329163,0.0,0.0,0.0,0.0,0.0,0.0,0.0,0.0,0.0
1606991194179159699,4198112,1606987593153564964,imu_link,0.006274821236729622,0.004975323565304279,0.4311700165271759,0.902235209941864,0.0,0.0,0.0,0.0,0.0,0.0,0.0,0.0,0.0,51.08701705932617,0.204362690448761,0.8946095108985901,0.0,0.0,0.0,0.0,0.0,0.0,0.0,0.0,0.0,0.008484953083097935,0.021528584882616997,0.027766242623329163,0.0,0.0,0.0,0.0,0.0,0.0,0.0,0.0,0.0
1606991194179171222,4198113,1606987593153619998,imu_link,0.006270481273531914,0.0049744294956326485,0.4311676025390625,0.9022363424301147,0.0,0.0,0.0,0.0,0.0,0.0,0.0,0.0,0.0,51.08671188354492,0.20448708534240723,0.8941160440444946,0.0,0.0,0.0,0.0,0.0,0.0,0.0,0.0,0.0,-0.0048890914767980576,0.008849241770803928,0.040795695036649704,0.0,0.0,0.0,0.0,0.0,0.0,0.0,0.0,0.0
1606991194179178050,4198114,1606987593153689609,imu_link,0.006270481273531914,0.0049744294956326485,0.4311676025390625,0.9022363424301147,0.0,0.0,0.0,0.0,0.0,0.0,0.0,0.0,0.0,51.08671188354492,0.20448708534240723,0.8941160440444946,0.0,0.0,0.0,0.0,0.0,0.0,0.0,0.0,0.0,-0.0048890914767980576,0.008849241770803928,0.040795695036649704,0.0,0.0,0.0,0.0,0.0,0.0,0.0,0.0,0.0
1606991194182901508,4198115,1606987593153746664,imu_link,0.006268924102187157,0.004977412987500429,0.4311712682247162,0.9022346138954163,0.0,0.0,0.0,0.0,0.0,0.0,0.0,0.0,0.0,51.08717727661133,0.2048688381910324,0.8941032886505127,0.0,0.0,0.0,0.0,0.0,0.0,0.0,0.0,0.0,-0.008071149699389935,-0.00028218317311257124,0.06624342501163483,0.0,0.0,0.0,0.0,0.0,0.0,0.0,0.0,0.0
1606991194182925159,4198116,1606987593153800619,imu_link,0.006268924102187157,0.004977412987500429,0.4311712682247162,0.9022346138954163,0.0,0.0,0.0,0.0,0.0,0.0,0.0,0.0,0.0,51.08717727661133,0.2048688381910324,0.8941032886505127,0.0,0.0,0.0,0.0,0.0,0.0,0.0,0.0,0.0,-0.008071149699389935,-0.00028218317311257124,0.06624342501163483,0.0,0.0,0.0,0.0,0.0,0.0,0.0,0.0,0.0
1606991194182958000,4198117,1606987593153855115,imu_link,0.00627207150682807,0.004975297022610903,0.4311763048171997,0.9022321701049805,0.0,0.0,0.0,0.0,0.0,0.0,0.0,0.0,0.0,51.08781814575195,0.2044895440340042,0.894325315952301,0.0,0.0,0.0,0.0,0.0,0.0,0.0,0.0,0.0,-0.0019984361715614796,-0.002457017544656992,0.06339383870363235,0.0,0.0,0.0,0.0,0.0,0.0,0.0,0.0,0.0
1606991194182976962,4198118,1606987593154061633,imu_link,0.00627207150682807,0.004975297022610903,0.4311763048171997,0.9022321701049805,0.0,0.0,0.0,0.0,0.0,0.0,0.0,0.0,0.0,51.08781814575195,0.2044895440340042,0.894325315952301,0.0,0.0,0.0,0.0,0.0,0.0,0.0,0.0,0.0,-0.0019984361715614796,-0.002457017544656992,0.06339383870363235,0.0,0.0,0.0,0.0,0.0,0.0,0.0,0.0,0.0
1606991194182993701,4198119,1606987593166711359,imu_link,0.006272708531469107,0.004974797833710909,0.43117469549179077,0.9022329449653625,0.0,0.0,0.0,0.0,0.0,0.0,0.0,0.0,0.0,51.08761215209961,0.20440810918807983,0.8943662643432617,0.0,0.0,0.0,0.0,0.0,0.0,0.0,0.0,0.0,-0.014176939614117146,-0.011607353575527668,0.036181263625621796,0.0,0.0,0.0,0.0,0.0,0.0,0.0,0.0,0.0
1606991194190671682,4198120,1606987593166808473,imu_link,0.006272708531469107,0.004974797833710909,0.43117469549179077,0.9022329449653625,0.0,0.0,0.0,0.0,0.0,0.0,0.0,0.0,0.0,51.08761215209961,0.20440810918807983,0.8943662643432617,0.0,0.0,0.0,0.0,0.0,0.0,0.0,0.0,0.0,-0.014176939614117146,-0.011607353575527668,0.036181263625621796,0.0,0.0,0.0,0.0,0.0,0.0,0.0,0.0,0.0
1606991194190692866,4198121,1606987593166925043,imu_link,0.006276188883930445,0.004974557086825371,0.43117931485176086,0.9022307395935059,0.0,0.0,0.0,0.0,0.0,0.0,0.0,0.0,0.0,51.08819580078125,0.2042066603899002,0.8947151899337769,0.0,0.0,0.0,0.0,0.0,0.0,0.0,0.0,0.0,-0.018435239791870117,0.012971216812729836,0.028412383049726486,0.0,0.0,0.0,0.0,0.0,0.0,0.0,0.0,0.0
1606991194190699829,4198122,1606987593167021587,imu_link,0.006276188883930445,0.004974557086825371,0.43117931485176086,0.9022307395935059,0.0,0.0,0.0,0.0,0.0,0.0,0.0,0.0,0.0,51.08819580078125,0.2042066603899002,0.8947151899337769,0.0,0.0,0.0,0.0,0.0,0.0,0.0,0.0,0.0,-0.018435239791870117,0.012971216812729836,0.028412383049726486,0.0,0.0,0.0,0.0,0.0,0.0,0.0,0.0,0.0
1606991194190706517,4198123,1606987593167076911,imu_link,0.006276636850088835,0.004974225535988808,0.43118050694465637,0.9022301435470581,0.0,0.0,0.0,0.0,0.0,0.0,0.0,0.0,0.0,51.08835220336914,0.2041490375995636,0.8947454690933228,0.0,0.0,0.0,0.0,0.0,0.0,0.0,0.0,0.0,-0.0029389539267867804,0.007543646730482578,0.035538941621780396,0.0,0.0,0.0,0.0,0.0,0.0,0.0,0.0,0.0
1606991194208682371,4198124,1606987593167131618,imu_link,0.006276636850088835,0.004974225535988808,0.43118050694465637,0.9022301435470581,0.0,0.0,0.0,0.0,0.0,0.0,0.0,0.0,0.0,51.08835220336914,0.2041490375995636,0.8947454690933228,0.0,0.0,0.0,0.0,0.0,0.0,0.0,0.0,0.0,-0.0029389539267867804,0.007543646730482578,0.035538941621780396,0.0,0.0,0.0,0.0,0.0,0.0,0.0,0.0,0.0
1606991194208709046,4198125,1606987593167199438,imu_link,0.006276608444750309,0.004971814341843128,0.43118050694465637,0.9022302031517029,0.0,0.0,0.0,0.0,0.0,0.0,0.0,0.0,0.0,51.08835220336914,0.20390120148658752,0.8946232795715332,0.0,0.0,0.0,0.0,0.0,0.0,0.0,0.0,0.0,0.0032670071814209223,-0.007230541668832302,0.06318289786577225,0.0,0.0,0.0,0.0,0.0,0.0,0.0,0.0,0.0
1606991194208722626,4198126,1606987593167256333,imu_link,0.006276608444750309,0.004971814341843128,0.43118050694465637,0.9022302031517029,0.0,0.0,0.0,0.0,0.0,0.0,0.0,0.0,0.0,51.08835220336914,0.20390120148658752,0.8946232795715332,0.0,0.0,0.0,0.0,0.0,0.0,0.0,0.0,0.0,0.0032670071814209223,-0.007230541668832302,0.06318289786577225,0.0,0.0,0.0,0.0,0.0,0.0,0.0,0.0,0.0
1606991194208731867,4198127,1606987593167316402,imu_link,0.006275235675275326,0.004972969181835651,0.4311816990375519,0.9022296071052551,0.0,0.0,0.0,0.0,0.0,0.0,0.0,0.0,0.0,51.0885009765625,0.20408721268177032,0.8945387005805969,0.0,0.0,0.0,0.0,0.0,0.0,0.0,0.0,0.0,0.008746452629566193,0.007951777428388596,0.06410609185695648,0.0,0.0,0.0,0.0,0.0,0.0,0.0,0.0,0.0
1606991194208746499,4198128,1606987593167478103,imu_link,0.006275235675275326,0.004972969181835651,0.4311816990375519,0.9022296071052551,0.0,0.0,0.0,0.0,0.0,0.0,0.0,0.0,0.0,51.0885009765625,0.20408721268177032,0.8945387005805969,0.0,0.0,0.0,0.0,0.0,0.0,0.0,0.0,0.0,0.008746452629566193,0.007951777428388596,0.06410609185695648,0.0,0.0,0.0,0.0,0.0,0.0,0.0,0.0,0.0
1606991194212125662,4198129,1606987593167551954,imu_link,0.006274578161537647,0.004975105635821819,0.43118295073509216,0.9022290110588074,0.0,0.0,0.0,0.0,0.0,0.0,0.0,0.0,0.0,51.088661193847656,0.20433934032917023,0.8945766091346741,0.0,0.0,0.0,0.0,0.0,0.0,0.0,0.0,0.0,0.01261291466653347,0.015069128945469856,0.05755540356040001,0.0,0.0,0.0,0.0,0.0,0.0,0.0,0.0,0.0
1606991194212146404,4198130,1606987593180654982,imu_link,0.006274578161537647,0.004975105635821819,0.43118295073509216,0.9022290110588074,0.0,0.0,0.0,0.0,0.0,0.0,0.0,0.0,0.0,51.088661193847656,0.20433934032917023,0.8945766091346741,0.0,0.0,0.0,0.0,0.0,0.0,0.0,0.0,0.0,0.01261291466653347,0.015069128945469856,0.05755540356040001,0.0,0.0,0.0,0.0,0.0,0.0,0.0,0.0,0.0
1606991194212167721,4198131,1606987593180753129,imu_link,0.0062756845727562904,0.004975449293851852,0.43118423223495483,0.9022284150123596,0.0,0.0,0.0,0.0,0.0,0.0,0.0,0.0,0.0,51.08882141113281,0.20431894063949585,0.8947082757949829,0.0,0.0,0.0,0.0,0.0,0.0,0.0,0.0,0.0,0.01263703964650631,0.02871452085673809,0.05940636992454529,0.0,0.0,0.0,0.0,0.0,0.0,0.0,0.0,0.0
1606991194212175135,4198132,1606987593180872485,imu_link,0.0062756845727562904,0.004975449293851852,0.43118423223495483,0.9022284150123596,0.0,0.0,0.0,0.0,0.0,0.0,0.0,0.0,0.0,51.08882141113281,0.20431894063949585,0.8947082757949829,0.0,0.0,0.0,0.0,0.0,0.0,0.0,0.0,0.0,0.01263703964650631,0.02871452085673809,0.05940636992454529,0.0,0.0,0.0,0.0,0.0,0.0,0.0,0.0,0.0
1606991194215702813,4198133,1606987593180931117,imu_link,0.006268620956689119,0.004973966162651777,0.4311843812465668,0.9022284150123596,0.0,0.0,0.0,0.0,0.0,0.0,0.0,0.0,0.0,51.08884048461914,0.2045145481824875,0.8939046263694763,0.0,0.0,0.0,0.0,0.0,0.0,0.0,0.0,0.0,0.010765090584754944,0.01574617251753807,0.03468167036771774,0.0,0.0,0.0,0.0,0.0,0.0,0.0,0.0,0.0
1606991194215737008,4198134,1606987593180988073,imu_link,0.006268620956689119,0.004973966162651777,0.4311843812465668,0.9022284150123596,0.0,0.0,0.0,0.0,0.0,0.0,0.0,0.0,0.0,51.08884048461914,0.2045145481824875,0.8939046263694763,0.0,0.0,0.0,0.0,0.0,0.0,0.0,0.0,0.0,0.010765090584754944,0.01574617251753807,0.03468167036771774,0.0,0.0,0.0,0.0,0.0,0.0,0.0,0.0,0.0
1606991194215753997,4198135,1606987593181039491,imu_link,0.006270095240324736,0.004974300507456064,0.43118536472320557,0.9022278189659119,0.0,0.0,0.0,0.0,0.0,0.0,0.0,0.0,0.0,51.08897018432617,0.20447519421577454,0.8940739035606384,0.0,0.0,0.0,0.0,0.0,0.0,0.0,0.0,0.0,0.015572507865726948,0.010891564190387726,0.03423372656106949,0.0,0.0,0.0,0.0,0.0,0.0,0.0,0.0,0.0
1606991194215762463,4198136,1606987593181108234,imu_link,0.006270095240324736,0.004974300507456064,0.43118536472320557,0.9022278189659119,0.0,0.0,0.0,0.0,0.0,0.0,0.0,0.0,0.0,51.08897018432617,0.20447519421577454,0.8940739035606384,0.0,0.0,0.0,0.0,0.0,0.0,0.0,0.0,0.0,0.015572507865726948,0.010891564190387726,0.03423372656106949,0.0,0.0,0.0,0.0,0.0,0.0,0.0,0.0,0.0
1606991194215771024,4198137,1606987593181163863,imu_link,0.006268415134400129,0.004974066279828548,0.4311867952346802,0.9022272825241089,0.0,0.0,0.0,0.0,0.0,0.0,0.0,0.0,0.0,51.089141845703125,0.2045326828956604,0.8938887715339661,0.0,0.0,0.0,0.0,0.0,0.0,0.0,0.0,0.0,0.010951515287160873,0.024758532643318176,0.050459641963243484,0.0,0.0,0.0,0.0,0.0,0.0,0.0,0.0,0.0
1606991194224015156,4198138,1606987593181215021,imu_link,0.006268415134400129,0.004974066279828548,0.4311867952346802,0.9022272825241089,0.0,0.0,0.0,0.0,0.0,0.0,0.0,0.0,0.0,51.089141845703125,0.2045326828956604,0.8938887715339661,0.0,0.0,0.0,0.0,0.0,0.0,0.0,0.0,0.0,0.010951515287160873,0.024758532643318176,0.050459641963243484,0.0,0.0,0.0,0.0,0.0,0.0,0.0,0.0,0.0
1606991194224059956,4198139,1606987593181267663,imu_link,0.006267972756177187,0.004973279777914286,0.4311867654323578,0.9022272825241089,0.0,0.0,0.0,0.0,0.0,0.0,0.0,0.0,0.0,51.08913803100586,0.20447324216365814,0.893804132938385,0.0,0.0,0.0,0.0,0.0,0.0,0.0,0.0,0.0,0.006686527747660875,-0.003482912899926305,0.04657769575715065,0.0,0.0,0.0,0.0,0.0,0.0,0.0,0.0,0.0
1606991194224090198,4198140,1606987593181317675,imu_link,0.006267972756177187,0.004973279777914286,0.4311867654323578,0.9022272825241089,0.0,0.0,0.0,0.0,0.0,0.0,0.0,0.0,0.0,51.08913803100586,0.20447324216365814,0.893804132938385,0.0,0.0,0.0,0.0,0.0,0.0,0.0,0.0,0.0,0.006686527747660875,-0.003482912899926305,0.04657769575715065,0.0,0.0,0.0,0.0,0.0,0.0,0.0,0.0,0.0
1606991194224131496,4198141,1606987593193907883,imu_link,0.006269888952374458,0.004972875118255615,0.43119028210639954,0.9022256135940552,0.0,0.0,0.0,0.0,0.0,0.0,0.0,0.0,0.0,51.08958435058594,0.20433323085308075,0.8939830660820007,0.0,0.0,0.0,0.0,0.0,0.0,0.0,0.0,0.0,-0.011448844335973263,-0.025830984115600586,0.031245218589901924,0.0,0.0,0.0,0.0,0.0,0.0,0.0,0.0,0.0
1606991194362436008,4198142,1606987593194001403,imu_link,0.006269888952374458,0.004972875118255615,0.43119028210639954,0.9022256135940552,0.0,0.0,0.0,0.0,0.0,0.0,0.0,0.0,0.0,51.08958435058594,0.20433323085308075,0.8939830660820007,0.0,0.0,0.0,0.0,0.0,0.0,0.0,0.0,0.0,-0.011448844335973263,-0.025830984115600586,0.031245218589901924,0.0,0.0,0.0,0.0,0.0,0.0,0.0,0.0,0.0
1606991194362453531,4198143,1606987593194133445,imu_link,0.006270923651754856,0.004973589908331633,0.4311921298503876,0.9022247195243835,0.0,0.0,0.0,0.0,0.0,0.0,0.0,0.0,0.0,51.089820861816406,0.2043541520833969,0.8941258192062378,0.0,0.0,0.0,0.0,0.0,0.0,0.0,0.0,0.0,-0.02273615263402462,-0.015121093019843102,0.02324344404041767,0.0,0.0,0.0,0.0,0.0,0.0,0.0,0.0,0.0
1606991194362466697,4198144,1606987593194194122,imu_link,0.006270923651754856,0.004973589908331633,0.4311921298503876,0.9022247195243835,0.0,0.0,0.0,0.0,0.0,0.0,0.0,0.0,0.0,51.089820861816406,0.2043541520833969,0.8941258192062378,0.0,0.0,0.0,0.0,0.0,0.0,0.0,0.0,0.0,-0.02273615263402462,-0.015121093019843102,0.02324344404041767,0.0,0.0,0.0,0.0,0.0,0.0,0.0,0.0,0.0
1606991194362472426,4198145,1606987593194301173,imu_link,0.006276250816881657,0.004973272327333689,0.4311949610710144,0.9022232890129089,0.0,0.0,0.0,0.0,0.0,0.0,0.0,0.0,0.0,51.090179443359375,0.2040552794933319,0.894661545753479,0.0,0.0,0.0,0.0,0.0,0.0,0.0,0.0,0.0,-0.00430664699524641,-0.006141443736851215,0.03441152349114418,0.0,0.0,0.0,0.0,0.0,0.0,0.0,0.0,0.0
1606991194362480123,4198146,1606987593194372328,imu_link,0.006276250816881657,0.004973272327333689,0.4311949610710144,0.9022232890129089,0.0,0.0,0.0,0.0,0.0,0.0,0.0,0.0,0.0,51.090179443359375,0.2040552794933319,0.894661545753479,0.0,0.0,0.0,0.0,0.0,0.0,0.0,0.0,0.0,-0.00430664699524641,-0.006141443736851215,0.03441152349114418,0.0,0.0,0.0,0.0,0.0,0.0,0.0,0.0,0.0
1606991194377504009,4198147,1606987593194427810,imu_link,0.006276636850088835,0.0049744523130357265,0.43119627237319946,0.9022226929664612,0.0,0.0,0.0,0.0,0.0,0.0,0.0,0.0,0.0,51.09034729003906,0.20415690541267395,0.8947601318359375,0.0,0.0,0.0,0.0,0.0,0.0,0.0,0.0,0.0,0.017301950603723526,-0.008703532628715038,0.06809933483600616,0.0,0.0,0.0,0.0,0.0,0.0,0.0,0.0,0.0
1606991194377525437,4198148,1606987593194480097,imu_link,0.006276636850088835,0.0049744523130357265,0.43119627237319946,0.9022226929664612,0.0,0.0,0.0,0.0,0.0,0.0,0.0,0.0,0.0,51.09034729003906,0.20415690541267395,0.8947601318359375,0.0,0.0,0.0,0.0,0.0,0.0,0.0,0.0,0.0,0.017301950603723526,-0.008703532628715038,0.06809933483600616,0.0,0.0,0.0,0.0,0.0,0.0,0.0,0.0,0.0
1606991194377531661,4198149,1606987593194533157,imu_link,0.0062774489633738995,0.004978002980351448,0.43119505047798157,0.9022232294082642,0.0,0.0,0.0,0.0,0.0,0.0,0.0,0.0,0.0,51.09020233154297,0.20448505878448486,0.8950192928314209,0.0,0.0,0.0,0.0,0.0,0.0,0.0,0.0,0.0,0.019281653687357903,-0.004430185537785292,0.07657626271247864,0.0,0.0,0.0,0.0,0.0,0.0,0.0,0.0,0.0
1606991194377538253,4198150,1606987593194596493,imu_link,0.0062774489633738995,0.004978002980351448,0.43119505047798157,0.9022232294082642,0.0,0.0,0.0,0.0,0.0,0.0,0.0,0.0,0.0,51.09020233154297,0.20448505878448486,0.8950192928314209,0.0,0.0,0.0,0.0,0.0,0.0,0.0,0.0,0.0,0.019281653687357903,-0.004430185537785292,0.07657626271247864,0.0,0.0,0.0,0.0,0.0,0.0,0.0,0.0,0.0
1606991194381383786,4198151,1606987593194649215,imu_link,0.006275758147239685,0.004977360833436251,0.4311973452568054,0.9022221565246582,0.0,0.0,0.0,0.0,0.0,0.0,0.0,0.0,0.0,51.09048843383789,0.20449994504451752,0.8948132395744324,0.0,0.0,0.0,0.0,0.0,0.0,0.0,0.0,0.0,0.010601501911878586,-0.003941332921385765,0.054681383073329926,0.0,0.0,0.0,0.0,0.0,0.0,0.0,0.0,0.0
1606991194381411253,4198152,1606987593206905397,imu_link,0.006275758147239685,0.004977360833436251,0.4311973452568054,0.9022221565246582,0.0,0.0,0.0,0.0,0.0,0.0,0.0,0.0,0.0,51.09048843383789,0.20449994504451752,0.8948132395744324,0.0,0.0,0.0,0.0,0.0,0.0,0.0,0.0,0.0,0.010601501911878586,-0.003941332921385765,0.054681383073329926,0.0,0.0,0.0,0.0,0.0,0.0,0.0,0.0,0.0
1606991194381421721,4198153,1606987593207120935,imu_link,0.0062757679261267185,0.0049772183410823345,0.43119728565216064,0.9022221565246582,0.0,0.0,0.0,0.0,0.0,0.0,0.0,0.0,0.0,51.09048080444336,0.204484760761261,0.8948071599006653,0.0,0.0,0.0,0.0,0.0,0.0,0.0,0.0,0.0,0.021885596215724945,-0.0037372808437794447,0.043691620230674744,0.0,0.0,0.0,0.0,0.0,0.0,0.0,0.0,0.0
1606991194381439382,4198154,1606987593207187800,imu_link,0.0062757679261267185,0.0049772183410823345,0.43119728565216064,0.9022221565246582,0.0,0.0,0.0,0.0,0.0,0.0,0.0,0.0,0.0,51.09048080444336,0.204484760761261,0.8948071599006653,0.0,0.0,0.0,0.0,0.0,0.0,0.0,0.0,0.0,0.021885596215724945,-0.0037372808437794447,0.043691620230674744,0.0,0.0,0.0,0.0,0.0,0.0,0.0,0.0,0.0
1606991194381504764,4198155,1606987593207243442,imu_link,0.006274998188018799,0.00497730216011405,0.43119627237319946,0.9022226333618164,0.0,0.0,0.0,0.0,0.0,0.0,0.0,0.0,0.0,51.090354919433594,0.20453250408172607,0.8947315812110901,0.0,0.0,0.0,0.0,0.0,0.0,0.0,0.0,0.0,0.01137753576040268,-0.009209106676280499,0.06285937875509262,0.0,0.0,0.0,0.0,0.0,0.0,0.0,0.0,0.0
1606991194385543149,4198156,1606987593207310003,imu_link,0.006274998188018799,0.00497730216011405,0.43119627237319946,0.9022226333618164,0.0,0.0,0.0,0.0,0.0,0.0,0.0,0.0,0.0,51.090354919433594,0.20453250408172607,0.8947315812110901,0.0,0.0,0.0,0.0,0.0,0.0,0.0,0.0,0.0,0.01137753576040268,-0.009209106676280499,0.06285937875509262,0.0,0.0,0.0,0.0,0.0,0.0,0.0,0.0,0.0
1606991194385565611,4198157,1606987593207413830,imu_link,0.006276258267462254,0.00498009892180562,0.43119531869888306,0.9022230505943298,0.0,0.0,0.0,0.0,0.0,0.0,0.0,0.0,0.0,51.09023666381836,0.20476029813289642,0.8949998021125793,0.0,0.0,0.0,0.0,0.0,0.0,0.0,0.0,0.0,-0.014936482533812523,-0.013036996126174927,0.05484384670853615,0.0,0.0,0.0,0.0,0.0,0.0,0.0,0.0,0.0
1606991194385575566,4198158,1606987593207474604,imu_link,0.006276258267462254,0.00498009892180562,0.43119531869888306,0.9022230505943298,0.0,0.0,0.0,0.0,0.0,0.0,0.0,0.0,0.0,51.09023666381836,0.20476029813289642,0.8949998021125793,0.0,0.0,0.0,0.0,0.0,0.0,0.0,0.0,0.0,-0.014936482533812523,-0.013036996126174927,0.05484384670853615,0.0,0.0,0.0,0.0,0.0,0.0,0.0,0.0,0.0
1606991194385592648,4198159,1606987593207588113,imu_link,0.006276905536651611,0.004981886129826307,0.43119823932647705,0.9022216200828552,0.0,0.0,0.0,0.0,0.0,0.0,0.0,0.0,0.0,51.09061050415039,0.20491015911102295,0.8951558470726013,0.0,0.0,0.0,0.0,0.0,0.0,0.0,0.0,0.0,-0.015362044796347618,0.0012132218107581139,0.05575372651219368,0.0,0.0,0.0,0.0,0.0,0.0,0.0,0.0,0.0
1606991194390046551,4198160,1606987593207645412,imu_link,0.006276905536651611,0.004981886129826307,0.43119823932647705,0.9022216200828552,0.0,0.0,0.0,0.0,0.0,0.0,0.0,0.0,0.0,51.09061050415039,0.20491015911102295,0.8951558470726013,0.0,0.0,0.0,0.0,0.0,0.0,0.0,0.0,0.0,-0.015362044796347618,0.0012132218107581139,0.05575372651219368,0.0,0.0,0.0,0.0,0.0,0.0,0.0,0.0,0.0
1606991194390096577,4198161,1606987593207699270,imu_link,0.0062767695635557175,0.0049800751730799675,0.43119803071022034,0.9022217988967896,0.0,0.0,0.0,0.0,0.0,0.0,0.0,0.0,0.0,51.090579986572266,0.20472988486289978,0.8950521349906921,0.0,0.0,0.0,0.0,0.0,0.0,0.0,0.0,0.0,-0.0010240625124424696,-0.006042821332812309,0.07498383522033691,0.0,0.0,0.0,0.0,0.0,0.0,0.0,0.0,0.0
1606991194390145848,4198162,1606987593220694935,imu_link,0.0062767695635557175,0.0049800751730799675,0.43119803071022034,0.9022217988967896,0.0,0.0,0.0,0.0,0.0,0.0,0.0,0.0,0.0,51.090579986572266,0.20472988486289978,0.8950521349906921,0.0,0.0,0.0,0.0,0.0,0.0,0.0,0.0,0.0,-0.0010240625124424696,-0.006042821332812309,0.07498383522033691,0.0,0.0,0.0,0.0,0.0,0.0,0.0,0.0,0.0
1606991194390177879,4198163,1606987593220799333,imu_link,0.006275689695030451,0.004979976452887058,0.4312000274658203,0.9022208452224731,0.0,0.0,0.0,0.0,0.0,0.0,0.0,0.0,0.0,51.0908317565918,0.20477107167243958,0.8949360251426697,0.0,0.0,0.0,0.0,0.0,0.0,0.0,0.0,0.0,-0.008201857097446918,-0.0031226463615894318,0.054841797798871994,0.0,0.0,0.0,0.0,0.0,0.0,0.0,0.0,0.0
1606991194390194257,4198164,1606987593220911469,imu_link,0.006275689695030451,0.004979976452887058,0.4312000274658203,0.9022208452224731,0.0,0.0,0.0,0.0,0.0,0.0,0.0,0.0,0.0,51.0908317565918,0.20477107167243958,0.8949360251426697,0.0,0.0,0.0,0.0,0.0,0.0,0.0,0.0,0.0,-0.008201857097446918,-0.0031226463615894318,0.054841797798871994,0.0,0.0,0.0,0.0,0.0,0.0,0.0,0.0,0.0
1606991194393791705,4198165,1606987593220980403,imu_link,0.006276253145188093,0.004979944322258234,0.43120402097702026,0.9022189378738403,0.0,0.0,0.0,0.0,0.0,0.0,0.0,0.0,0.0,51.09134292602539,0.20473593473434448,0.8949936628341675,0.0,0.0,0.0,0.0,0.0,0.0,0.0,0.0,0.0,-0.004344005603343248,0.007812771014869213,0.0412638895213604,0.0,0.0,0.0,0.0,0.0,0.0,0.0,0.0,0.0
1606991194393824706,4198166,1606987593221043155,imu_link,0.006276253145188093,0.004979944322258234,0.43120402097702026,0.9022189378738403,0.0,0.0,0.0,0.0,0.0,0.0,0.0,0.0,0.0,51.09134292602539,0.20473593473434448,0.8949936628341675,0.0,0.0,0.0,0.0,0.0,0.0,0.0,0.0,0.0,-0.004344005603343248,0.007812771014869213,0.0412638895213604,0.0,0.0,0.0,0.0,0.0,0.0,0.0,0.0,0.0
1606991194393834987,4198167,1606987593221102628,imu_link,0.006274651736021042,0.004981285892426968,0.43120455741882324,0.9022186994552612,0.0,0.0,0.0,0.0,0.0,0.0,0.0,0.0,0.0,51.09141159057617,0.20495326817035675,0.8948944211006165,0.0,0.0,0.0,0.0,0.0,0.0,0.0,0.0,0.0,0.013255592435598373,0.0036754922475665808,0.04154694080352783,0.0,0.0,0.0,0.0,0.0,0.0,0.0,0.0,0.0
1606991194393843770,4198168,1606987593221173570,imu_link,0.006274651736021042,0.004981285892426968,0.43120455741882324,0.9022186994552612,0.0,0.0,0.0,0.0,0.0,0.0,0.0,0.0,0.0,51.09141159057617,0.20495326817035675,0.8948944211006165,0.0,0.0,0.0,0.0,0.0,0.0,0.0,0.0,0.0,0.013255592435598373,0.0036754922475665808,0.04154694080352783,0.0,0.0,0.0,0.0,0.0,0.0,0.0,0.0,0.0
1606991194451649613,4198169,1606987593221232152,imu_link,0.006272038444876671,0.004984418861567974,0.4312092959880829,0.9022164344787598,0.0,0.0,0.0,0.0,0.0,0.0,0.0,0.0,0.0,51.092018127441406,0.20540161430835724,0.894780158996582,0.0,0.0,0.0,0.0,0.0,0.0,0.0,0.0,0.0,-0.0010729951318353415,0.012467973865568638,0.050626397132873535,0.0,0.0,0.0,0.0,0.0,0.0,0.0,0.0,0.0
1606991194451673804,4198170,1606987593221338515,imu_link,0.006272038444876671,0.004984418861567974,0.4312092959880829,0.9022164344787598,0.0,0.0,0.0,0.0,0.0,0.0,0.0,0.0,0.0,51.092018127441406,0.20540161430835724,0.894780158996582,0.0,0.0,0.0,0.0,0.0,0.0,0.0,0.0,0.0,-0.0010729951318353415,0.012467973865568638,0.050626397132873535,0.0,0.0,0.0,0.0,0.0,0.0,0.0,0.0,0.0
1606991194451683580,4198171,1606987593221403531,imu_link,0.006272986996918917,0.004983146209269762,0.431211918592453,0.9022151231765747,0.0,0.0,0.0,0.0,0.0,0.0,0.0,0.0,0.0,51.09234619140625,0.20522050559520721,0.8948160409927368,0.0,0.0,0.0,0.0,0.0,0.0,0.0,0.0,0.0,-0.002040557563304901,0.008494480513036251,0.03659454733133316,0.0,0.0,0.0,0.0,0.0,0.0,0.0,0.0,0.0
1606991194451694612,4198172,1606987593221469338,imu_link,0.006272986996918917,0.004983146209269762,0.431211918592453,0.9022151231765747,0.0,0.0,0.0,0.0,0.0,0.0,0.0,0.0,0.0,51.09234619140625,0.20522050559520721,0.8948160409927368,0.0,0.0,0.0,0.0,0.0,0.0,0.0,0.0,0.0,-0.002040557563304901,0.008494480513036251,0.03659454733133316,0.0,0.0,0.0,0.0,0.0,0.0,0.0,0.0,0.0
1606991194456029595,4198173,1606987593234127979,imu_link,0.006270951591432095,0.004980481695383787,0.43120673298835754,0.9022176265716553,0.0,0.0,0.0,0.0,0.0,0.0,0.0,0.0,0.0,51.09168243408203,0.2050507664680481,0.8944726586341858,0.0,0.0,0.0,0.0,0.0,0.0,0.0,0.0,0.0,0.016566036269068718,-0.001412370358593762,0.04741636663675308,0.0,0.0,0.0,0.0,0.0,0.0,0.0,0.0,0.0
1606991194456076811,4198174,1606987593234233203,imu_link,0.006270951591432095,0.004980481695383787,0.43120673298835754,0.9022176265716553,0.0,0.0,0.0,0.0,0.0,0.0,0.0,0.0,0.0,51.09168243408203,0.2050507664680481,0.8944726586341858,0.0,0.0,0.0,0.0,0.0,0.0,0.0,0.0,0.0,0.016566036269068718,-0.001412370358593762,0.04741636663675308,0.0,0.0,0.0,0.0,0.0,0.0,0.0,0.0,0.0
1606991194456087255,4198175,1606987593234366942,imu_link,0.006272138562053442,0.0049812705256044865,0.4312080144882202,0.9022170305252075,0.0,0.0,0.0,0.0,0.0,0.0,0.0,0.0,0.0,51.09184646606445,0.20507240295410156,0.8946346044540405,0.0,0.0,0.0,0.0,0.0,0.0,0.0,0.0,0.0,0.006516260094940662,-0.010149318724870682,0.06190581992268562,0.0,0.0,0.0,0.0,0.0,0.0,0.0,0.0,0.0
1606991194456116594,4198176,1606987593234435085,imu_link,0.006272138562053442,0.0049812705256044865,0.4312080144882202,0.9022170305252075,0.0,0.0,0.0,0.0,0.0,0.0,0.0,0.0,0.0,51.09184646606445,0.20507240295410156,0.8946346044540405,0.0,0.0,0.0,0.0,0.0,0.0,0.0,0.0,0.0,0.006516260094940662,-0.010149318724870682,0.06190581992268562,0.0,0.0,0.0,0.0,0.0,0.0,0.0,0.0,0.0
1606991194456128562,4198177,1606987593234503112,imu_link,0.006275602150708437,0.0049828412011265755,0.4312005341053009,0.9022205471992493,0.0,0.0,0.0,0.0,0.0,0.0,0.0,0.0,0.0,51.090904235839844,0.20507104694843292,0.8950686454772949,0.0,0.0,0.0,0.0,0.0,0.0,0.0,0.0,0.0,-0.00019060094200540334,-0.010238716378808022,0.04972333088517189,0.0,0.0,0.0,0.0,0.0,0.0,0.0,0.0,0.0
1606991194462621678,4198178,1606987593234565361,imu_link,0.006275602150708437,0.0049828412011265755,0.4312005341053009,0.9022205471992493,0.0,0.0,0.0,0.0,0.0,0.0,0.0,0.0,0.0,51.090904235839844,0.20507104694843292,0.8950686454772949,0.0,0.0,0.0,0.0,0.0,0.0,0.0,0.0,0.0,-0.00019060094200540334,-0.010238716378808022,0.04972333088517189,0.0,0.0,0.0,0.0,0.0,0.0,0.0,0.0,0.0
1606991194462648024,4198179,1606987593234640863,imu_link,0.006275147665292025,0.004981494043022394,0.4312022030353546,0.9022197723388672,0.0,0.0,0.0,0.0,0.0,0.0,0.0,0.0,0.0,51.09111022949219,0.20495261251926422,0.8949554562568665,0.0,0.0,0.0,0.0,0.0,0.0,0.0,0.0,0.0,0.00037918996531516314,0.005643441341817379,0.04128318279981613,0.0,0.0,0.0,0.0,0.0,0.0,0.0,0.0,0.0
1606991194462662630,4198180,1606987593234701885,imu_link,0.006275147665292025,0.004981494043022394,0.4312022030353546,0.9022197723388672,0.0,0.0,0.0,0.0,0.0,0.0,0.0,0.0,0.0,51.09111022949219,0.20495261251926422,0.8949554562568665,0.0,0.0,0.0,0.0,0.0,0.0,0.0,0.0,0.0,0.00037918996531516314,0.005643441341817379,0.04128318279981613,0.0,0.0,0.0,0.0,0.0,0.0,0.0,0.0,0.0
1606991194462696190,4198181,1606987593234767900,imu_link,0.006272569764405489,0.004982779733836651,0.43119972944259644,0.9022209644317627,0.0,0.0,0.0,0.0,0.0,0.0,0.0,0.0,0.0,51.090797424316406,0.20521530508995056,0.8947519659996033,0.0,0.0,0.0,0.0,0.0,0.0,0.0,0.0,0.0,-0.00871469546109438,0.007295929826796055,0.0464058443903923,0.0,0.0,0.0,0.0,0.0,0.0,0.0,0.0,0.0
1606991194469496057,4198182,1606987593234832911,imu_link,0.006272569764405489,0.004982779733836651,0.43119972944259644,0.9022209644317627,0.0,0.0,0.0,0.0,0.0,0.0,0.0,0.0,0.0,51.090797424316406,0.20521530508995056,0.8947519659996033,0.0,0.0,0.0,0.0,0.0,0.0,0.0,0.0,0.0,-0.00871469546109438,0.007295929826796055,0.0464058443903923,0.0,0.0,0.0,0.0,0.0,0.0,0.0,0.0,0.0
1606991194469522632,4198183,1606987593234892318,imu_link,0.006272755563259125,0.004981737583875656,0.43119922280311584,0.9022212028503418,0.0,0.0,0.0,0.0,0.0,0.0,0.0,0.0,0.0,51.09073257446289,0.2050989270210266,0.8947195410728455,0.0,0.0,0.0,0.0,0.0,0.0,0.0,0.0,0.0,0.0042198593728244305,0.01292194053530693,0.04455305263400078,0.0,0.0,0.0,0.0,0.0,0.0,0.0,0.0,0.0
1606991194469533655,4198184,1606987593247884985,imu_link,0.006272755563259125,0.004981737583875656,0.43119922280311584,0.9022212028503418,0.0,0.0,0.0,0.0,0.0,0.0,0.0,0.0,0.0,51.09073257446289,0.2050989270210266,0.8947195410728455,0.0,0.0,0.0,0.0,0.0,0.0,0.0,0.0,0.0,0.0042198593728244305,0.01292194053530693,0.04455305263400078,0.0,0.0,0.0,0.0,0.0,0.0,0.0,0.0,0.0
1606991194469581591,4198185,1606987593247987819,imu_link,0.006269379053264856,0.004980235826224089,0.431199312210083,0.9022212028503418,0.0,0.0,0.0,0.0,0.0,0.0,0.0,0.0,0.0,51.09074783325195,0.20511041581630707,0.8942962288856506,0.0,0.0,0.0,0.0,0.0,0.0,0.0,0.0,0.0,-0.011064566671848297,0.011522557586431503,0.038435038179159164,0.0,0.0,0.0,0.0,0.0,0.0,0.0,0.0,0.0
1606991194469591469,4198186,1606987593248064877,imu_link,0.006269379053264856,0.004980235826224089,0.431199312210083,0.9022212028503418,0.0,0.0,0.0,0.0,0.0,0.0,0.0,0.0,0.0,51.09074783325195,0.20511041581630707,0.8942962288856506,0.0,0.0,0.0,0.0,0.0,0.0,0.0,0.0,0.0,-0.011064566671848297,0.011522557586431503,0.038435038179159164,0.0,0.0,0.0,0.0,0.0,0.0,0.0,0.0,0.0
1606991194473245204,4198187,1606987593248136905,imu_link,0.006269295234233141,0.00498053478077054,0.43120214343070984,0.902219831943512,0.0,0.0,0.0,0.0,0.0,0.0,0.0,0.0,0.0,51.091102600097656,0.20514267683029175,0.894303023815155,0.0,0.0,0.0,0.0,0.0,0.0,0.0,0.0,0.0,-0.014222503639757633,-0.0008157921256497502,0.04897741228342056,0.0,0.0,0.0,0.0,0.0,0.0,0.0,0.0,0.0
1606991194473283102,4198188,1606987593248207348,imu_link,0.006269295234233141,0.00498053478077054,0.43120214343070984,0.902219831943512,0.0,0.0,0.0,0.0,0.0,0.0,0.0,0.0,0.0,51.091102600097656,0.20514267683029175,0.894303023815155,0.0,0.0,0.0,0.0,0.0,0.0,0.0,0.0,0.0,-0.014222503639757633,-0.0008157921256497502,0.04897741228342056,0.0,0.0,0.0,0.0,0.0,0.0,0.0,0.0,0.0
1606991194473305174,4198189,1606987593248299401,imu_link,0.006271176040172577,0.004979539662599564,0.431206077337265,0.9022179245948792,0.0,0.0,0.0,0.0,0.0,0.0,0.0,0.0,0.0,51.09160232543945,0.20494292676448822,0.8944491147994995,0.0,0.0,0.0,0.0,0.0,0.0,0.0,0.0,0.0,-0.004389612469822168,0.0015266023110598326,0.05110590159893036,0.0,0.0,0.0,0.0,0.0,0.0,0.0,0.0,0.0
1606991194473313361,4198190,1606987593248377814,imu_link,0.006271176040172577,0.004979539662599564,0.431206077337265,0.9022179245948792,0.0,0.0,0.0,0.0,0.0,0.0,0.0,0.0,0.0,51.09160232543945,0.20494292676448822,0.8944491147994995,0.0,0.0,0.0,0.0,0.0,0.0,0.0,0.0,0.0,-0.004389612469822168,0.0015266023110598326,0.05110590159893036,0.0,0.0,0.0,0.0,0.0,0.0,0.0,0.0,0.0
1606991194522174635,4198191,1606987593248486269,imu_link,0.006268903613090515,0.0049771517515182495,0.4312070608139038,0.9022175073623657,0.0,0.0,0.0,0.0,0.0,0.0,0.0,0.0,0.0,51.09172439575195,0.20480738580226898,0.8940964341163635,0.0,0.0,0.0,0.0,0.0,0.0,0.0,0.0,0.0,-0.025365283712744713,0.004446354229003191,0.041687753051519394,0.0,0.0,0.0,0.0,0.0,0.0,0.0,0.0,0.0
1606991194522192506,4198192,1606987593248562741,imu_link,0.006268903613090515,0.0049771517515182495,0.4312070608139038,0.9022175073623657,0.0,0.0,0.0,0.0,0.0,0.0,0.0,0.0,0.0,51.09172439575195,0.20480738580226898,0.8940964341163635,0.0,0.0,0.0,0.0,0.0,0.0,0.0,0.0,0.0,-0.025365283712744713,0.004446354229003191,0.041687753051519394,0.0,0.0,0.0,0.0,0.0,0.0,0.0,0.0,0.0
1606991194522205962,4198193,1606987593248630969,imu_link,0.006269907578825951,0.004973371047526598,0.43121030926704407,0.9022159576416016,0.0,0.0,0.0,0.0,0.0,0.0,0.0,0.0,0.0,51.092132568359375,0.20436370372772217,0.8940140604972839,0.0,0.0,0.0,0.0,0.0,0.0,0.0,0.0,0.0,-0.019138619303703308,-0.005079376511275768,0.04265427589416504,0.0,0.0,0.0,0.0,0.0,0.0,0.0,0.0,0.0
1606991194522215292,4198194,1606987593248701692,imu_link,0.006269907578825951,0.004973371047526598,0.43121030926704407,0.9022159576416016,0.0,0.0,0.0,0.0,0.0,0.0,0.0,0.0,0.0,51.092132568359375,0.20436370372772217,0.8940140604972839,0.0,0.0,0.0,0.0,0.0,0.0,0.0,0.0,0.0,-0.019138619303703308,-0.005079376511275768,0.04265427589416504,0.0,0.0,0.0,0.0,0.0,0.0,0.0,0.0,0.0
1606991194522224817,4198195,1606987593260905208,imu_link,0.00627206452190876,0.004973588977009058,0.43121349811553955,0.9022144079208374,0.0,0.0,0.0,0.0,0.0,0.0,0.0,0.0,0.0,51.0925407409668,0.2042764276266098,0.8942487239837646,0.0,0.0,0.0,0.0,0.0,0.0,0.0,0.0,0.0,0.006334016099572182,-0.016515960916876793,0.03267703577876091,0.0,0.0,0.0,0.0,0.0,0.0,0.0,0.0,0.0
1606991194526108470,4198196,1606987593261028666,imu_link,0.00627206452190876,0.004973588977009058,0.43121349811553955,0.9022144079208374,0.0,0.0,0.0,0.0,0.0,0.0,0.0,0.0,0.0,51.0925407409668,0.2042764276266098,0.8942487239837646,0.0,0.0,0.0,0.0,0.0,0.0,0.0,0.0,0.0,0.006334016099572182,-0.016515960916876793,0.03267703577876091,0.0,0.0,0.0,0.0,0.0,0.0,0.0,0.0,0.0
1606991194526136700,4198197,1606987593261170474,imu_link,0.00627661868929863,0.004975878167897463,0.43121275305747986,0.902214765548706,0.0,0.0,0.0,0.0,0.0,0.0,0.0,0.0,0.0,51.092445373535156,0.2042888104915619,0.89483243227005,0.0,0.0,0.0,0.0,0.0,0.0,0.0,0.0,0.0,0.00987841747701168,-0.01876525953412056,0.01888252981007099,0.0,0.0,0.0,0.0,0.0,0.0,0.0,0.0,0.0
1606991194526142054,4198198,1606987593261259761,imu_link,0.00627661868929863,0.004975878167897463,0.43121275305747986,0.902214765548706,0.0,0.0,0.0,0.0,0.0,0.0,0.0,0.0,0.0,51.092445373535156,0.2042888104915619,0.89483243227005,0.0,0.0,0.0,0.0,0.0,0.0,0.0,0.0,0.0,0.00987841747701168,-0.01876525953412056,0.01888252981007099,0.0,0.0,0.0,0.0,0.0,0.0,0.0,0.0,0.0
1606991194526148469,4198199,1606987593261331082,imu_link,0.0062770964577794075,0.004977100063115358,0.43121400475502014,0.9022141098976135,0.0,0.0,0.0,0.0,0.0,0.0,0.0,0.0,0.0,51.09260940551758,0.2043902724981308,0.894942581653595,0.0,0.0,0.0,0.0,0.0,0.0,0.0,0.0,0.0,-0.002964078914374113,-0.013299996964633465,0.041302960366010666,0.0,0.0,0.0,0.0,0.0,0.0,0.0,0.0,0.0
1606991194535435841,4198200,1606987593261423532,imu_link,0.0062770964577794075,0.004977100063115358,0.43121400475502014,0.9022141098976135,0.0,0.0,0.0,0.0,0.0,0.0,0.0,0.0,0.0,51.09260940551758,0.2043902724981308,0.894942581653595,0.0,0.0,0.0,0.0,0.0,0.0,0.0,0.0,0.0,-0.002964078914374113,-0.013299996964633465,0.041302960366010666,0.0,0.0,0.0,0.0,0.0,0.0,0.0,0.0,0.0
1606991194535472992,4198201,1606987593261497614,imu_link,0.006279810331761837,0.004979368299245834,0.4312136769294739,0.9022142291069031,0.0,0.0,0.0,0.0,0.0,0.0,0.0,0.0,0.0,51.09256362915039,0.2044910043478012,0.8953351974487305,0.0,0.0,0.0,0.0,0.0,0.0,0.0,0.0,0.0,-0.006718462333083153,-0.0021170619875192642,0.05577855929732323,0.0,0.0,0.0,0.0,0.0,0.0,0.0,0.0,0.0
1606991194535488200,4198202,1606987593261570596,imu_link,0.006279810331761837,0.004979368299245834,0.4312136769294739,0.9022142291069031,0.0,0.0,0.0,0.0,0.0,0.0,0.0,0.0,0.0,51.09256362915039,0.2044910043478012,0.8953351974487305,0.0,0.0,0.0,0.0,0.0,0.0,0.0,0.0,0.0,-0.006718462333083153,-0.0021170619875192642,0.05577855929732323,0.0,0.0,0.0,0.0,0.0,0.0,0.0,0.0,0.0
1606991194535501167,4198203,1606987593261643022,imu_link,0.006280411966145039,0.004978152457624674,0.43121567368507385,0.9022133350372314,0.0,0.0,0.0,0.0,0.0,0.0,0.0,0.0,0.0,51.09281921386719,0.20433363318443298,0.8953376412391663,0.0,0.0,0.0,0.0,0.0,0.0,0.0,0.0,0.0,0.0012413449585437775,0.008510034531354904,0.05554646626114845,0.0,0.0,0.0,0.0,0.0,0.0,0.0,0.0,0.0
1606991194535509323,4198204,1606987593261714744,imu_link,0.006280411966145039,0.004978152457624674,0.43121567368507385,0.9022133350372314,0.0,0.0,0.0,0.0,0.0,0.0,0.0,0.0,0.0,51.09281921386719,0.20433363318443298,0.8953376412391663,0.0,0.0,0.0,0.0,0.0,0.0,0.0,0.0,0.0,0.0012413449585437775,0.008510034531354904,0.05554646626114845,0.0,0.0,0.0,0.0,0.0,0.0,0.0,0.0,0.0
1606991194538752751,4198205,1606987593274129274,imu_link,0.0062788245268166065,0.004977866541594267,0.43121638894081116,0.9022129774093628,0.0,0.0,0.0,0.0,0.0,0.0,0.0,0.0,0.0,51.09291458129883,0.2043817639350891,0.8951596617698669,0.0,0.0,0.0,0.0,0.0,0.0,0.0,0.0,0.0,0.0010763987665995955,0.02436683513224125,0.05294989049434662,0.0,0.0,0.0,0.0,0.0,0.0,0.0,0.0,0.0
1606991194538814493,4198206,1606987593274236619,imu_link,0.0062788245268166065,0.004977866541594267,0.43121638894081116,0.9022129774093628,0.0,0.0,0.0,0.0,0.0,0.0,0.0,0.0,0.0,51.09291458129883,0.2043817639350891,0.8951596617698669,0.0,0.0,0.0,0.0,0.0,0.0,0.0,0.0,0.0,0.0010763987665995955,0.02436683513224125,0.05294989049434662,0.0,0.0,0.0,0.0,0.0,0.0,0.0,0.0,0.0
1606991194538836691,4198207,1606987593274313411,imu_link,0.006279443856328726,0.004978313110768795,0.4312179982662201,0.9022122025489807,0.0,0.0,0.0,0.0,0.0,0.0,0.0,0.0,0.0,51.093116760253906,0.20439574122428894,0.895246148109436,0.0,0.0,0.0,0.0,0.0,0.0,0.0,0.0,0.0,-0.002089409390464425,0.010386072099208832,0.062086477875709534,0.0,0.0,0.0,0.0,0.0,0.0,0.0,0.0,0.0
1606991194538844636,4198208,1606987593274386286,imu_link,0.006279443856328726,0.004978313110768795,0.4312179982662201,0.9022122025489807,0.0,0.0,0.0,0.0,0.0,0.0,0.0,0.0,0.0,51.093116760253906,0.20439574122428894,0.895246148109436,0.0,0.0,0.0,0.0,0.0,0.0,0.0,0.0,0.0,-0.002089409390464425,0.010386072099208832,0.062086477875709534,0.0,0.0,0.0,0.0,0.0,0.0,0.0,0.0,0.0
1606991194573697134,4198209,1606987593274458516,imu_link,0.006276886444538832,0.004974582232534885,0.4312199056148529,0.9022113084793091,0.0,0.0,0.0,0.0,0.0,0.0,0.0,0.0,0.0,51.09335708618164,0.2041345238685608,0.8947978019714355,0.0,0.0,0.0,0.0,0.0,0.0,0.0,0.0,0.0,-4.6594301238656044e-05,-0.014558596536517143,0.052539147436618805,0.0,0.0,0.0,0.0,0.0,0.0,0.0,0.0,0.0
1606991194573718346,4198210,1606987593274526785,imu_link,0.006276886444538832,0.004974582232534885,0.4312199056148529,0.9022113084793091,0.0,0.0,0.0,0.0,0.0,0.0,0.0,0.0,0.0,51.09335708618164,0.2041345238685608,0.8947978019714355,0.0,0.0,0.0,0.0,0.0,0.0,0.0,0.0,0.0,-4.6594301238656044e-05,-0.014558596536517143,0.052539147436618805,0.0,0.0,0.0,0.0,0.0,0.0,0.0,0.0,0.0
1606991194573730470,4198211,1606987593274611033,imu_link,0.006276588421314955,0.0049728709273040295,0.43121984601020813,0.9022113680839539,0.0,0.0,0.0,0.0,0.0,0.0,0.0,0.0,0.0,51.09334182739258,0.20397241413593292,0.8946823477745056,0.0,0.0,0.0,0.0,0.0,0.0,0.0,0.0,0.0,-0.003847599495202303,-0.01286601647734642,0.04082944989204407,0.0,0.0,0.0,0.0,0.0,0.0,0.0,0.0,0.0
1606991194573735813,4198212,1606987593274684857,imu_link,0.006276588421314955,0.0049728709273040295,0.43121984601020813,0.9022113680839539,0.0,0.0,0.0,0.0,0.0,0.0,0.0,0.0,0.0,51.09334182739258,0.20397241413593292,0.8946823477745056,0.0,0.0,0.0,0.0,0.0,0.0,0.0,0.0,0.0,-0.003847599495202303,-0.01286601647734642,0.04082944989204407,0.0,0.0,0.0,0.0,0.0,0.0,0.0,0.0,0.0
1606991194573748022,4198213,1606987593274756922,imu_link,0.006278067361563444,0.0049749440513551235,0.4312181770801544,0.9022121429443359,0.0,0.0,0.0,0.0,0.0,0.0,0.0,0.0,0.0,51.09313201904297,0.20411531627178192,0.89493727684021,0.0,0.0,0.0,0.0,0.0,0.0,0.0,0.0,0.0,-0.0032963640987873077,0.0025581861846148968,0.04829530045390129,0.0,0.0,0.0,0.0,0.0,0.0,0.0,0.0,0.0
1606991194576457403,4198214,1606987593274868901,imu_link,0.006278067361563444,0.0049749440513551235,0.4312181770801544,0.9022121429443359,0.0,0.0,0.0,0.0,0.0,0.0,0.0,0.0,0.0,51.09313201904297,0.20411531627178192,0.89493727684021,0.0,0.0,0.0,0.0,0.0,0.0,0.0,0.0,0.0,-0.0032963640987873077,0.0025581861846148968,0.04829530045390129,0.0,0.0,0.0,0.0,0.0,0.0,0.0,0.0,0.0
1606991194576473056,4198215,1606987593274966745,imu_link,0.00627566035836935,0.00497440155595541,0.43122103810310364,0.9022107720375061,0.0,0.0,0.0,0.0,0.0,0.0,0.0,0.0,0.0,51.09349822998047,0.20417529344558716,0.8946623206138611,0.0,0.0,0.0,0.0,0.0,0.0,0.0,0.0,0.0,0.0024833697825670242,0.009055963717401028,0.06842061132192612,0.0,0.0,0.0,0.0,0.0,0.0,0.0,0.0,0.0
1606991194576480629,4198216,1606987593288137222,imu_link,0.00627566035836935,0.00497440155595541,0.43122103810310364,0.9022107720375061,0.0,0.0,0.0,0.0,0.0,0.0,0.0,0.0,0.0,51.09349822998047,0.20417529344558716,0.8946623206138611,0.0,0.0,0.0,0.0,0.0,0.0,0.0,0.0,0.0,0.0024833697825670242,0.009055963717401028,0.06842061132192612,0.0,0.0,0.0,0.0,0.0,0.0,0.0,0.0,0.0
1606991194576487618,4198217,1606987593288347469,imu_link,0.0062742470763623714,0.004971909336745739,0.4312196969985962,0.9022114276885986,0.0,0.0,0.0,0.0,0.0,0.0,0.0,0.0,0.0,51.09332275390625,0.20398879051208496,0.8943926692008972,0.0,0.0,0.0,0.0,0.0,0.0,0.0,0.0,0.0,-0.00992217194288969,0.0038526440039277077,0.06980254501104355,0.0,0.0,0.0,0.0,0.0,0.0,0.0,0.0,0.0
1606991194583023445,4198218,1606987593288495673,imu_link,0.0062742470763623714,0.004971909336745739,0.4312196969985962,0.9022114276885986,0.0,0.0,0.0,0.0,0.0,0.0,0.0,0.0,0.0,51.09332275390625,0.20398879051208496,0.8943926692008972,0.0,0.0,0.0,0.0,0.0,0.0,0.0,0.0,0.0,-0.00992217194288969,0.0038526440039277077,0.06980254501104355,0.0,0.0,0.0,0.0,0.0,0.0,0.0,0.0,0.0
1606991194583074521,4198219,1606987593288632657,imu_link,0.006273282691836357,0.0049713533371686935,0.43122079968452454,0.9022109508514404,0.0,0.0,0.0,0.0,0.0,0.0,0.0,0.0,0.0,51.09346389770508,0.20397791266441345,0.8942657709121704,0.0,0.0,0.0,0.0,0.0,0.0,0.0,0.0,0.0,-0.014231283217668533,0.004371526651084423,0.05552176758646965,0.0,0.0,0.0,0.0,0.0,0.0,0.0,0.0,0.0
1606991194583087626,4198220,1606987593288739492,imu_link,0.006273282691836357,0.0049713533371686935,0.43122079968452454,0.9022109508514404,0.0,0.0,0.0,0.0,0.0,0.0,0.0,0.0,0.0,51.09346389770508,0.20397791266441345,0.8942657709121704,0.0,0.0,0.0,0.0,0.0,0.0,0.0,0.0,0.0,-0.014231283217668533,0.004371526651084423,0.05552176758646965,0.0,0.0,0.0,0.0,0.0,0.0,0.0,0.0,0.0
1606991194583105862,4198221,1606987593288818916,imu_link,0.006274206563830376,0.004966162610799074,0.43122076988220215,0.9022110104560852,0.0,0.0,0.0,0.0,0.0,0.0,0.0,0.0,0.0,51.09345245361328,0.20339567959308624,0.8941047191619873,0.0,0.0,0.0,0.0,0.0,0.0,0.0,0.0,0.0,-0.0026936917565762997,0.004324378911405802,0.04408659040927887,0.0,0.0,0.0,0.0,0.0,0.0,0.0,0.0,0.0
1606991194583116151,4198222,1606987593288914073,imu_link,0.006274206563830376,0.004966162610799074,0.43122076988220215,0.9022110104560852,0.0,0.0,0.0,0.0,0.0,0.0,0.0,0.0,0.0,51.09345245361328,0.20339567959308624,0.8941047191619873,0.0,0.0,0.0,0.0,0.0,0.0,0.0,0.0,0.0,-0.0026936917565762997,0.004324378911405802,0.04408659040927887,0.0,0.0,0.0,0.0,0.0,0.0,0.0,0.0,0.0
1606991194586797688,4198223,1606987593289056145,imu_link,0.006273472215980291,0.004968245513737202,0.4312230348587036,0.9022098779678345,0.0,0.0,0.0,0.0,0.0,0.0,0.0,0.0,0.0,51.093746185302734,0.2036450207233429,0.8941322565078735,0.0,0.0,0.0,0.0,0.0,0.0,0.0,0.0,0.0,-0.007060658186674118,0.0036996237467974424,0.024892322719097137,0.0,0.0,0.0,0.0,0.0,0.0,0.0,0.0,0.0
1606991194586818675,4198224,1606987593289135653,imu_link,0.006273472215980291,0.004968245513737202,0.4312230348587036,0.9022098779678345,0.0,0.0,0.0,0.0,0.0,0.0,0.0,0.0,0.0,51.093746185302734,0.2036450207233429,0.8941322565078735,0.0,0.0,0.0,0.0,0.0,0.0,0.0,0.0,0.0,-0.007060658186674118,0.0036996237467974424,0.024892322719097137,0.0,0.0,0.0,0.0,0.0,0.0,0.0,0.0,0.0
1606991194586831304,4198225,1606987593289208542,imu_link,0.006275002378970385,0.004965830594301224,0.4312228262424469,0.902209997177124,0.0,0.0,0.0,0.0,0.0,0.0,0.0,0.0,0.0,51.09371566772461,0.20331993699073792,0.8941709995269775,0.0,0.0,0.0,0.0,0.0,0.0,0.0,0.0,0.0,-0.014659236185252666,-0.001246055937372148,0.02909541316330433,0.0,0.0,0.0,0.0,0.0,0.0,0.0,0.0,0.0
1606991194586857856,4198226,1606987593289280477,imu_link,0.006275002378970385,0.004965830594301224,0.4312228262424469,0.902209997177124,0.0,0.0,0.0,0.0,0.0,0.0,0.0,0.0,0.0,51.09371566772461,0.20331993699073792,0.8941709995269775,0.0,0.0,0.0,0.0,0.0,0.0,0.0,0.0,0.0,-0.014659236185252666,-0.001246055937372148,0.02909541316330433,0.0,0.0,0.0,0.0,0.0,0.0,0.0,0.0,0.0
1606991194693008958,4198227,1606987593301606723,imu_link,0.006275244522839785,0.004965181462466717,0.4312238097190857,0.9022095203399658,0.0,0.0,0.0,0.0,0.0,0.0,0.0,0.0,0.0,51.09383773803711,0.20323991775512695,0.8941642642021179,0.0,0.0,0.0,0.0,0.0,0.0,0.0,0.0,0.0,-0.029406139627099037,0.003551274072378874,0.03443063423037529,0.0,0.0,0.0,0.0,0.0,0.0,0.0,0.0,0.0
1606991194693045310,4198228,1606987593301732517,imu_link,0.006275244522839785,0.004965181462466717,0.4312238097190857,0.9022095203399658,0.0,0.0,0.0,0.0,0.0,0.0,0.0,0.0,0.0,51.09383773803711,0.20323991775512695,0.8941642642021179,0.0,0.0,0.0,0.0,0.0,0.0,0.0,0.0,0.0,-0.029406139627099037,0.003551274072378874,0.03443063423037529,0.0,0.0,0.0,0.0,0.0,0.0,0.0,0.0,0.0
1606991194693051523,4198229,1606987593301827381,imu_link,0.006275414954870939,0.004961300641298294,0.4312150478363037,0.9022137522697449,0.0,0.0,0.0,0.0,0.0,0.0,0.0,0.0,0.0,51.09272003173828,0.2028389722108841,0.8939880132675171,0.0,0.0,0.0,0.0,0.0,0.0,0.0,0.0,0.0,-0.03359228000044823,0.013044184073805809,0.02761993743479252,0.0,0.0,0.0,0.0,0.0,0.0,0.0,0.0,0.0
1606991194693057131,4198230,1606987593301909371,imu_link,0.006275414954870939,0.004961300641298294,0.4312150478363037,0.9022137522697449,0.0,0.0,0.0,0.0,0.0,0.0,0.0,0.0,0.0,51.09272003173828,0.2028389722108841,0.8939880132675171,0.0,0.0,0.0,0.0,0.0,0.0,0.0,0.0,0.0,-0.03359228000044823,0.013044184073805809,0.02761993743479252,0.0,0.0,0.0,0.0,0.0,0.0,0.0,0.0,0.0
1606991194693068121,4198231,1606987593301999200,imu_link,0.006276808213442564,0.004959760699421167,0.4312151372432709,0.9022136926651001,0.0,0.0,0.0,0.0,0.0,0.0,0.0,0.0,0.0,51.09273147583008,0.20261085033416748,0.8940560221672058,0.0,0.0,0.0,0.0,0.0,0.0,0.0,0.0,0.0,-0.012309649959206581,0.012687405571341515,0.03539421409368515,0.0,0.0,0.0,0.0,0.0,0.0,0.0,0.0,0.0
1606991194696788948,4198232,1606987593302076237,imu_link,0.006276808213442564,0.004959760699421167,0.4312151372432709,0.9022136926651001,0.0,0.0,0.0,0.0,0.0,0.0,0.0,0.0,0.0,51.09273147583008,0.20261085033416748,0.8940560221672058,0.0,0.0,0.0,0.0,0.0,0.0,0.0,0.0,0.0,-0.012309649959206581,0.012687405571341515,0.03539421409368515,0.0,0.0,0.0,0.0,0.0,0.0,0.0,0.0,0.0
1606991194696802050,4198233,1606987593302174526,imu_link,0.006275715306401253,0.004956271965056658,0.43120694160461426,0.9022176265716553,0.0,0.0,0.0,0.0,0.0,0.0,0.0,0.0,0.0,51.09168243408203,0.20231227576732635,0.8937687873840332,0.0,0.0,0.0,0.0,0.0,0.0,0.0,0.0,0.0,0.006600943394005299,0.010354181751608849,0.053924866020679474,0.0,0.0,0.0,0.0,0.0,0.0,0.0,0.0,0.0
1606991194696822281,4198234,1606987593302248453,imu_link,0.006275715306401253,0.004956271965056658,0.43120694160461426,0.9022176265716553,0.0,0.0,0.0,0.0,0.0,0.0,0.0,0.0,0.0,51.09168243408203,0.20231227576732635,0.8937687873840332,0.0,0.0,0.0,0.0,0.0,0.0,0.0,0.0,0.0,0.006600943394005299,0.010354181751608849,0.053924866020679474,0.0,0.0,0.0,0.0,0.0,0.0,0.0,0.0,0.0
1606991194696829659,4198235,1606987593302323158,imu_link,0.00627643708139658,0.004958196543157101,0.4312114715576172,0.9022154808044434,0.0,0.0,0.0,0.0,0.0,0.0,0.0,0.0,0.0,51.092262268066406,0.20247110724449158,0.8939395546913147,0.0,0.0,0.0,0.0,0.0,0.0,0.0,0.0,0.0,0.004688454791903496,0.007943847216665745,0.07872484624385834,0.0,0.0,0.0,0.0,0.0,0.0,0.0,0.0,0.0
1606991194700664701,4198236,1606987593302392966,imu_link,0.00627643708139658,0.004958196543157101,0.4312114715576172,0.9022154808044434,0.0,0.0,0.0,0.0,0.0,0.0,0.0,0.0,0.0,51.092262268066406,0.20247110724449158,0.8939395546913147,0.0,0.0,0.0,0.0,0.0,0.0,0.0,0.0,0.0,0.004688454791903496,0.007943847216665745,0.07872484624385834,0.0,0.0,0.0,0.0,0.0,0.0,0.0,0.0,0.0
1606991194700680340,4198237,1606987593302506553,imu_link,0.0062756771221756935,0.0049577802419662476,0.43121346831321716,0.902214527130127,0.0,0.0,0.0,0.0,0.0,0.0,0.0,0.0,0.0,51.09251403808594,0.20246361196041107,0.8938408493995667,0.0,0.0,0.0,0.0,0.0,0.0,0.0,0.0,0.0,-0.010102599859237671,0.008011633530259132,0.07541335374116898,0.0,0.0,0.0,0.0,0.0,0.0,0.0,0.0,0.0
1606991194700686325,4198238,1606987593315534124,imu_link,0.0062756771221756935,0.0049577802419662476,0.43121346831321716,0.902214527130127,0.0,0.0,0.0,0.0,0.0,0.0,0.0,0.0,0.0,51.09251403808594,0.20246361196041107,0.8938408493995667,0.0,0.0,0.0,0.0,0.0,0.0,0.0,0.0,0.0,-0.010102599859237671,0.008011633530259132,0.07541335374116898,0.0,0.0,0.0,0.0,0.0,0.0,0.0,0.0,0.0
1606991194700693141,4198239,1606987593315658260,imu_link,0.006275353953242302,0.004957451019436121,0.43121522665023804,0.9022136926651001,0.0,0.0,0.0,0.0,0.0,0.0,0.0,0.0,0.0,51.092742919921875,0.20244383811950684,0.8937914967536926,0.0,0.0,0.0,0.0,0.0,0.0,0.0,0.0,0.0,0.0005207550711929798,-0.009302418678998947,0.05931953713297844,0.0,0.0,0.0,0.0,0.0,0.0,0.0,0.0,0.0
1606991194703491901,4198240,1606987593315753575,imu_link,0.006275353953242302,0.004957451019436121,0.43121522665023804,0.9022136926651001,0.0,0.0,0.0,0.0,0.0,0.0,0.0,0.0,0.0,51.092742919921875,0.20244383811950684,0.8937914967536926,0.0,0.0,0.0,0.0,0.0,0.0,0.0,0.0,0.0,0.0005207550711929798,-0.009302418678998947,0.05931953713297844,0.0,0.0,0.0,0.0,0.0,0.0,0.0,0.0,0.0
1606991194703516382,4198241,1606987593315835658,imu_link,0.00627640075981617,0.004959505517035723,0.43121403455734253,0.9022142291069031,0.0,0.0,0.0,0.0,0.0,0.0,0.0,0.0,0.0,51.09259033203125,0.20260567963123322,0.8940010070800781,0.0,0.0,0.0,0.0,0.0,0.0,0.0,0.0,0.0,0.005408076569437981,-0.027065662667155266,0.05958925187587738,0.0,0.0,0.0,0.0,0.0,0.0,0.0,0.0,0.0
1606991194703530181,4198242,1606987593315921657,imu_link,0.00627640075981617,0.004959505517035723,0.43121403455734253,0.9022142291069031,0.0,0.0,0.0,0.0,0.0,0.0,0.0,0.0,0.0,51.09259033203125,0.20260567963123322,0.8940010070800781,0.0,0.0,0.0,0.0,0.0,0.0,0.0,0.0,0.0,0.005408076569437981,-0.027065662667155266,0.05958925187587738,0.0,0.0,0.0,0.0,0.0,0.0,0.0,0.0,0.0
1606991194703575885,4198243,1606987593316016499,imu_link,0.006277639884501696,0.004959327634423971,0.43121564388275146,0.902213454246521,0.0,0.0,0.0,0.0,0.0,0.0,0.0,0.0,0.0,51.09279251098633,0.20252446830272675,0.8941207528114319,0.0,0.0,0.0,0.0,0.0,0.0,0.0,0.0,0.0,-0.010526744648814201,-0.019369294866919518,0.05743563175201416,0.0,0.0,0.0,0.0,0.0,0.0,0.0,0.0,0.0
1606991194703593007,4198244,1606987593316092038,imu_link,0.006277639884501696,0.004959327634423971,0.43121564388275146,0.902213454246521,0.0,0.0,0.0,0.0,0.0,0.0,0.0,0.0,0.0,51.09279251098633,0.20252446830272675,0.8941207528114319,0.0,0.0,0.0,0.0,0.0,0.0,0.0,0.0,0.0,-0.010526744648814201,-0.019369294866919518,0.05743563175201416,0.0,0.0,0.0,0.0,0.0,0.0,0.0,0.0,0.0
1606991194763104159,4198245,1606987593316162842,imu_link,0.00628261873498559,0.0049598561599850655,0.4312059283256531,0.9022180438041687,0.0,0.0,0.0,0.0,0.0,0.0,0.0,0.0,0.0,51.09156799316406,0.202342689037323,0.8946594595909119,0.0,0.0,0.0,0.0,0.0,0.0,0.0,0.0,0.0,-0.0006150287226773798,0.002985644619911909,0.04549689590930939,0.0,0.0,0.0,0.0,0.0,0.0,0.0,0.0,0.0
1606991194763129091,4198246,1606987593316236412,imu_link,0.00628261873498559,0.0049598561599850655,0.4312059283256531,0.9022180438041687,0.0,0.0,0.0,0.0,0.0,0.0,0.0,0.0,0.0,51.09156799316406,0.202342689037323,0.8946594595909119,0.0,0.0,0.0,0.0,0.0,0.0,0.0,0.0,0.0,-0.0006150287226773798,0.002985644619911909,0.04549689590930939,0.0,0.0,0.0,0.0,0.0,0.0,0.0,0.0,0.0
1606991194763136020,4198247,1606987593316315300,imu_link,0.00628297496587038,0.004961834289133549,0.43121013045310974,0.9022160172462463,0.0,0.0,0.0,0.0,0.0,0.0,0.0,0.0,0.0,51.092098236083984,0.20252539217472076,0.8947949409484863,0.0,0.0,0.0,0.0,0.0,0.0,0.0,0.0,0.0,0.012532329186797142,0.015539159998297691,0.03474680706858635,0.0,0.0,0.0,0.0,0.0,0.0,0.0,0.0,0.0
1606991194763145273,4198248,1606987593316387197,imu_link,0.00628297496587038,0.004961834289133549,0.43121013045310974,0.9022160172462463,0.0,0.0,0.0,0.0,0.0,0.0,0.0,0.0,0.0,51.092098236083984,0.20252539217472076,0.8947949409484863,0.0,0.0,0.0,0.0,0.0,0.0,0.0,0.0,0.0,0.012532329186797142,0.015539159998297691,0.03474680706858635,0.0,0.0,0.0,0.0,0.0,0.0,0.0,0.0,0.0
1606991194770697052,4198249,1606987593328439815,imu_link,0.0062769739888608456,0.004962509963661432,0.4312005043029785,0.9022206664085388,0.0,0.0,0.0,0.0,0.0,0.0,0.0,0.0,0.0,51.09087371826172,0.20290137827396393,0.8942058086395264,0.0,0.0,0.0,0.0,0.0,0.0,0.0,0.0,0.0,0.013620329089462757,0.0023481466341763735,0.05161483958363533,0.0,0.0,0.0,0.0,0.0,0.0,0.0,0.0,0.0
1606991194770712645,4198250,1606987593328568232,imu_link,0.0062769739888608456,0.004962509963661432,0.4312005043029785,0.9022206664085388,0.0,0.0,0.0,0.0,0.0,0.0,0.0,0.0,0.0,51.09087371826172,0.20290137827396393,0.8942058086395264,0.0,0.0,0.0,0.0,0.0,0.0,0.0,0.0,0.0,0.013620329089462757,0.0023481466341763735,0.05161483958363533,0.0,0.0,0.0,0.0,0.0,0.0,0.0,0.0,0.0
1606991194770718260,4198251,1606987593328662075,imu_link,0.0062790000811219215,0.004962172359228134,0.43120044469833374,0.9022206664085388,0.0,0.0,0.0,0.0,0.0,0.0,0.0,0.0,0.0,51.09086990356445,0.20276634395122528,0.8943985104560852,0.0,0.0,0.0,0.0,0.0,0.0,0.0,0.0,0.0,0.010514345951378345,-0.003783448599278927,0.05722583457827568,0.0,0.0,0.0,0.0,0.0,0.0,0.0,0.0,0.0
1606991194770724700,4198252,1606987593328738603,imu_link,0.0062790000811219215,0.004962172359228134,0.43120044469833374,0.9022206664085388,0.0,0.0,0.0,0.0,0.0,0.0,0.0,0.0,0.0,51.09086990356445,0.20276634395122528,0.8943985104560852,0.0,0.0,0.0,0.0,0.0,0.0,0.0,0.0,0.0,0.010514345951378345,-0.003783448599278927,0.05722583457827568,0.0,0.0,0.0,0.0,0.0,0.0,0.0,0.0,0.0
1606991194770741314,4198253,1606987593328829164,imu_link,0.006280261091887951,0.00496353954076767,0.4312037527561188,0.9022191166877747,0.0,0.0,0.0,0.0,0.0,0.0,0.0,0.0,0.0,51.091285705566406,0.20284217596054077,0.8945972919464111,0.0,0.0,0.0,0.0,0.0,0.0,0.0,0.0,0.0,0.009635255672037601,0.011198882944881916,0.06612712889909744,0.0,0.0,0.0,0.0,0.0,0.0,0.0,0.0,0.0
1606991194775091823,4198254,1606987593328919350,imu_link,0.006280261091887951,0.00496353954076767,0.4312037527561188,0.9022191166877747,0.0,0.0,0.0,0.0,0.0,0.0,0.0,0.0,0.0,51.091285705566406,0.20284217596054077,0.8945972919464111,0.0,0.0,0.0,0.0,0.0,0.0,0.0,0.0,0.0,0.009635255672037601,0.011198882944881916,0.06612712889909744,0.0,0.0,0.0,0.0,0.0,0.0,0.0,0.0,0.0
1606991194775111300,4198255,1606987593328995642,imu_link,0.006280065514147282,0.004964116960763931,0.43120500445365906,0.9022185206413269,0.0,0.0,0.0,0.0,0.0,0.0,0.0,0.0,0.0,51.09144973754883,0.20291025936603546,0.8946057558059692,0.0,0.0,0.0,0.0,0.0,0.0,0.0,0.0,0.0,0.0006085478817112744,0.004654268734157085,0.058840733021497726,0.0,0.0,0.0,0.0,0.0,0.0,0.0,0.0,0.0
1606991194775125029,4198256,1606987593329066349,imu_link,0.006280065514147282,0.004964116960763931,0.43120500445365906,0.9022185206413269,0.0,0.0,0.0,0.0,0.0,0.0,0.0,0.0,0.0,51.09144973754883,0.20291025936603546,0.8946057558059692,0.0,0.0,0.0,0.0,0.0,0.0,0.0,0.0,0.0,0.0006085478817112744,0.004654268734157085,0.058840733021497726,0.0,0.0,0.0,0.0,0.0,0.0,0.0,0.0,0.0
1606991194775155235,4198257,1606987593329177691,imu_link,0.00627843476831913,0.00496170436963439,0.43120816349983215,0.9022170901298523,0.0,0.0,0.0,0.0,0.0,0.0,0.0,0.0,0.0,51.09184265136719,0.20273835957050323,0.8943186402320862,0.0,0.0,0.0,0.0,0.0,0.0,0.0,0.0,0.0,-0.001976839266717434,-0.009708983823657036,0.024846941232681274,0.0,0.0,0.0,0.0,0.0,0.0,0.0,0.0,0.0
1606991194778615803,4198258,1606987593329249885,imu_link,0.00627843476831913,0.00496170436963439,0.43120816349983215,0.9022170901298523,0.0,0.0,0.0,0.0,0.0,0.0,0.0,0.0,0.0,51.09184265136719,0.20273835957050323,0.8943186402320862,0.0,0.0,0.0,0.0,0.0,0.0,0.0,0.0,0.0,-0.001976839266717434,-0.009708983823657036,0.024846941232681274,0.0,0.0,0.0,0.0,0.0,0.0,0.0,0.0,0.0
1606991194778657959,4198259,1606987593341757702,imu_link,0.006278233136981726,0.004960897844284773,0.4312097132205963,0.9022163152694702,0.0,0.0,0.0,0.0,0.0,0.0,0.0,0.0,0.0,51.092037200927734,0.202663391828537,0.8942583203315735,0.0,0.0,0.0,0.0,0.0,0.0,0.0,0.0,0.0,0.011020825244486332,0.00952234584838152,0.02694956213235855,0.0,0.0,0.0,0.0,0.0,0.0,0.0,0.0,0.0
1606991194778665454,4198260,1606987593341872748,imu_link,0.006278233136981726,0.004960897844284773,0.4312097132205963,0.9022163152694702,0.0,0.0,0.0,0.0,0.0,0.0,0.0,0.0,0.0,51.092037200927734,0.202663391828537,0.8942583203315735,0.0,0.0,0.0,0.0,0.0,0.0,0.0,0.0,0.0,0.011020825244486332,0.00952234584838152,0.02694956213235855,0.0,0.0,0.0,0.0,0.0,0.0,0.0,0.0,0.0
1606991194778672851,4198261,1606987593341956868,imu_link,0.0062744226306676865,0.004962319042533636,0.4312089681625366,0.9022166728973389,0.0,0.0,0.0,0.0,0.0,0.0,0.0,0.0,0.0,51.091949462890625,0.2029993236064911,0.893934428691864,0.0,0.0,0.0,0.0,0.0,0.0,0.0,0.0,0.0,0.016672099009156227,0.0038630978669971228,0.05371757596731186,0.0,0.0,0.0,0.0,0.0,0.0,0.0,0.0,0.0
1606991194778690059,4198262,1606987593342048089,imu_link,0.0062744226306676865,0.004962319042533636,0.4312089681625366,0.9022166728973389,0.0,0.0,0.0,0.0,0.0,0.0,0.0,0.0,0.0,51.091949462890625,0.2029993236064911,0.893934428691864,0.0,0.0,0.0,0.0,0.0,0.0,0.0,0.0,0.0,0.016672099009156227,0.0038630978669971228,0.05371757596731186,0.0,0.0,0.0,0.0,0.0,0.0,0.0,0.0,0.0
1606991194831378796,4198263,1606987593342127337,imu_link,0.006273312959820032,0.00496358098462224,0.4312087297439575,0.9022167921066284,0.0,0.0,0.0,0.0,0.0,0.0,0.0,0.0,0.0,51.0919189453125,0.20318485796451569,0.8938820958137512,0.0,0.0,0.0,0.0,0.0,0.0,0.0,0.0,0.0,0.0013445179210975766,-0.017114263027906418,0.051908425986766815,0.0,0.0,0.0,0.0,0.0,0.0,0.0,0.0,0.0
1606991194831444717,4198264,1606987593342209778,imu_link,0.006273312959820032,0.00496358098462224,0.4312087297439575,0.9022167921066284,0.0,0.0,0.0,0.0,0.0,0.0,0.0,0.0,0.0,51.0919189453125,0.20318485796451569,0.8938820958137512,0.0,0.0,0.0,0.0,0.0,0.0,0.0,0.0,0.0,0.0013445179210975766,-0.017114263027906418,0.051908425986766815,0.0,0.0,0.0,0.0,0.0,0.0,0.0,0.0,0.0
1606991194831455705,4198265,1606987593342305254,imu_link,0.006277065724134445,0.004964962601661682,0.4312084913253784,0.9022168517112732,0.0,0.0,0.0,0.0,0.0,0.0,0.0,0.0,0.0,51.09189224243164,0.20314249396324158,0.8943382501602173,0.0,0.0,0.0,0.0,0.0,0.0,0.0,0.0,0.0,-0.010320021770894527,-0.008869895711541176,0.027586471289396286,0.0,0.0,0.0,0.0,0.0,0.0,0.0,0.0,0.0
1606991194831474913,4198266,1606987593342389253,imu_link,0.006277065724134445,0.004964962601661682,0.4312084913253784,0.9022168517112732,0.0,0.0,0.0,0.0,0.0,0.0,0.0,0.0,0.0,51.09189224243164,0.20314249396324158,0.8943382501602173,0.0,0.0,0.0,0.0,0.0,0.0,0.0,0.0,0.0,-0.010320021770894527,-0.008869895711541176,0.027586471289396286,0.0,0.0,0.0,0.0,0.0,0.0,0.0,0.0,0.0
1606991194837183956,4198267,1606987593342469484,imu_link,0.006277857348322868,0.004962362349033356,0.4312118589878082,0.9022152423858643,0.0,0.0,0.0,0.0,0.0,0.0,0.0,0.0,0.0,51.09231948852539,0.2028312087059021,0.8942923545837402,0.0,0.0,0.0,0.0,0.0,0.0,0.0,0.0,0.0,-0.013415289111435413,0.005390123464167118,0.05290517210960388,0.0,0.0,0.0,0.0,0.0,0.0,0.0,0.0,0.0
1606991194837231829,4198268,1606987593342590244,imu_link,0.006277857348322868,0.004962362349033356,0.4312118589878082,0.9022152423858643,0.0,0.0,0.0,0.0,0.0,0.0,0.0,0.0,0.0,51.09231948852539,0.2028312087059021,0.8942923545837402,0.0,0.0,0.0,0.0,0.0,0.0,0.0,0.0,0.0,-0.013415289111435413,0.005390123464167118,0.05290517210960388,0.0,0.0,0.0,0.0,0.0,0.0,0.0,0.0,0.0
1606991194837253184,4198269,1606987593342673105,imu_link,0.006277759559452534,0.004959683865308762,0.4312167167663574,0.9022129774093628,0.0,0.0,0.0,0.0,0.0,0.0,0.0,0.0,0.0,51.092926025390625,0.20255431532859802,0.8941510319709778,0.0,0.0,0.0,0.0,0.0,0.0,0.0,0.0,0.0,-0.009313681162893772,0.012512899935245514,0.07576265931129456,0.0,0.0,0.0,0.0,0.0,0.0,0.0,0.0,0.0
1606991194837282949,4198270,1606987593355356634,imu_link,0.006277759559452534,0.004959683865308762,0.4312167167663574,0.9022129774093628,0.0,0.0,0.0,0.0,0.0,0.0,0.0,0.0,0.0,51.092926025390625,0.20255431532859802,0.8941510319709778,0.0,0.0,0.0,0.0,0.0,0.0,0.0,0.0,0.0,-0.009313681162893772,0.012512899935245514,0.07576265931129456,0.0,0.0,0.0,0.0,0.0,0.0,0.0,0.0,0.0
1606991194837306498,4198271,1606987593355470633,imu_link,0.006277686450630426,0.004959131125360727,0.4312181770801544,0.9022122621536255,0.0,0.0,0.0,0.0,0.0,0.0,0.0,0.0,0.0,51.093116760253906,0.2024993598461151,0.8941164016723633,0.0,0.0,0.0,0.0,0.0,0.0,0.0,0.0,0.0,0.01126407366245985,0.007937435060739517,0.04649840667843819,0.0,0.0,0.0,0.0,0.0,0.0,0.0,0.0,0.0
1606991194873411233,4198272,1606987593355553765,imu_link,0.006277686450630426,0.004959131125360727,0.4312181770801544,0.9022122621536255,0.0,0.0,0.0,0.0,0.0,0.0,0.0,0.0,0.0,51.093116760253906,0.2024993598461151,0.8941164016723633,0.0,0.0,0.0,0.0,0.0,0.0,0.0,0.0,0.0,0.01126407366245985,0.007937435060739517,0.04649840667843819,0.0,0.0,0.0,0.0,0.0,0.0,0.0,0.0,0.0
1606991194873449795,4198273,1606987593355645999,imu_link,0.006274460814893246,0.004960930906236172,0.43122196197509766,0.9022104740142822,0.0,0.0,0.0,0.0,0.0,0.0,0.0,0.0,0.0,51.09359359741211,0.20284107327461243,0.8938726782798767,0.0,0.0,0.0,0.0,0.0,0.0,0.0,0.0,0.0,0.01701418124139309,0.0033814324997365475,0.03463124856352806,0.0,0.0,0.0,0.0,0.0,0.0,0.0,0.0,0.0
1606991194873465679,4198274,1606987593355725462,imu_link,0.006274460814893246,0.004960930906236172,0.43122196197509766,0.9022104740142822,0.0,0.0,0.0,0.0,0.0,0.0,0.0,0.0,0.0,51.09359359741211,0.20284107327461243,0.8938726782798767,0.0,0.0,0.0,0.0,0.0,0.0,0.0,0.0,0.0,0.01701418124139309,0.0033814324997365475,0.03463124856352806,0.0,0.0,0.0,0.0,0.0,0.0,0.0,0.0,0.0
1606991194873484519,4198275,1606987593355845034,imu_link,0.0062769195064902306,0.004959690384566784,0.4312240779399872,0.902209460735321,0.0,0.0,0.0,0.0,0.0,0.0,0.0,0.0,0.0,51.093868255615234,0.20258918404579163,0.8940659761428833,0.0,0.0,0.0,0.0,0.0,0.0,0.0,0.0,0.0,0.0025753146037459373,0.0027252871077507734,0.05583425238728523,0.0,0.0,0.0,0.0,0.0,0.0,0.0,0.0,0.0
1606991194877515267,4198276,1606987593356063811,imu_link,0.0062769195064902306,0.004959690384566784,0.4312240779399872,0.902209460735321,0.0,0.0,0.0,0.0,0.0,0.0,0.0,0.0,0.0,51.093868255615234,0.20258918404579163,0.8940659761428833,0.0,0.0,0.0,0.0,0.0,0.0,0.0,0.0,0.0,0.0025753146037459373,0.0027252871077507734,0.05583425238728523,0.0,0.0,0.0,0.0,0.0,0.0,0.0,0.0,0.0
1606991194877546162,4198277,1606987593356151108,imu_link,0.006275390740483999,0.004960081074386835,0.4312143325805664,0.9022141098976135,0.0,0.0,0.0,0.0,0.0,0.0,0.0,0.0,0.0,51.09262466430664,0.20271480083465576,0.8939251899719238,0.0,0.0,0.0,0.0,0.0,0.0,0.0,0.0,0.0,0.001742459717206657,-0.001552416244521737,0.0716070830821991,0.0,0.0,0.0,0.0,0.0,0.0,0.0,0.0,0.0
1606991194877619221,4198278,1606987593356231920,imu_link,0.006275390740483999,0.004960081074386835,0.4312143325805664,0.9022141098976135,0.0,0.0,0.0,0.0,0.0,0.0,0.0,0.0,0.0,51.09262466430664,0.20271480083465576,0.8939251899719238,0.0,0.0,0.0,0.0,0.0,0.0,0.0,0.0,0.0,0.001742459717206657,-0.001552416244521737,0.0716070830821991,0.0,0.0,0.0,0.0,0.0,0.0,0.0,0.0,0.0
1606991194877634700,4198279,1606987593356361164,imu_link,0.006276232190430164,0.004957180004566908,0.43121594190597534,0.9022133350372314,0.0,0.0,0.0,0.0,0.0,0.0,0.0,0.0,0.0,51.09282684326172,0.2023717164993286,0.8938691020011902,0.0,0.0,0.0,0.0,0.0,0.0,0.0,0.0,0.0,0.0016862766351550817,-0.0029029035940766335,0.07025542855262756,0.0,0.0,0.0,0.0,0.0,0.0,0.0,0.0,0.0
1606991194877652230,4198280,1606987593356441936,imu_link,0.006276232190430164,0.004957180004566908,0.43121594190597534,0.9022133350372314,0.0,0.0,0.0,0.0,0.0,0.0,0.0,0.0,0.0,51.09282684326172,0.2023717164993286,0.8938691020011902,0.0,0.0,0.0,0.0,0.0,0.0,0.0,0.0,0.0,0.0016862766351550817,-0.0029029035940766335,0.07025542855262756,0.0,0.0,0.0,0.0,0.0,0.0,0.0,0.0,0.0
1606991194944699780,4198281,1606987593368769225,imu_link,0.006280217319726944,0.00495770201086998,0.4312077462673187,0.9022172093391418,0.0,0.0,0.0,0.0,0.0,0.0,0.0,0.0,0.0,51.09178924560547,0.20223680138587952,0.8943051695823669,0.0,0.0,0.0,0.0,0.0,0.0,0.0,0.0,0.0,-0.011015266180038452,0.0013625042047351599,0.05694444477558136,0.0,0.0,0.0,0.0,0.0,0.0,0.0,0.0,0.0
1606991194944727407,4198282,1606987593368910336,imu_link,0.006280217319726944,0.00495770201086998,0.4312077462673187,0.9022172093391418,0.0,0.0,0.0,0.0,0.0,0.0,0.0,0.0,0.0,51.09178924560547,0.20223680138587952,0.8943051695823669,0.0,0.0,0.0,0.0,0.0,0.0,0.0,0.0,0.0,-0.011015266180038452,0.0013625042047351599,0.05694444477558136,0.0,0.0,0.0,0.0,0.0,0.0,0.0,0.0,0.0
1606991194944737496,4198283,1606987593369103448,imu_link,0.0062795295380055904,0.004957417491823435,0.4312085211277008,0.9022168517112732,0.0,0.0,0.0,0.0,0.0,0.0,0.0,0.0,0.0,51.091888427734375,0.20224061608314514,0.8942201733589172,0.0,0.0,0.0,0.0,0.0,0.0,0.0,0.0,0.0,-0.01276569813489914,0.011980922892689705,0.04434933513402939,0.0,0.0,0.0,0.0,0.0,0.0,0.0,0.0,0.0
1606991194944760711,4198284,1606987593369193887,imu_link,0.0062795295380055904,0.004957417491823435,0.4312085211277008,0.9022168517112732,0.0,0.0,0.0,0.0,0.0,0.0,0.0,0.0,0.0,51.091888427734375,0.20224061608314514,0.8942201733589172,0.0,0.0,0.0,0.0,0.0,0.0,0.0,0.0,0.0,-0.01276569813489914,0.011980922892689705,0.04434933513402939,0.0,0.0,0.0,0.0,0.0,0.0,0.0,0.0,0.0
1606991194947625828,4198285,1606987593369275657,imu_link,0.00627875467762351,0.004954204894602299,0.43120428919792175,0.9022189378738403,0.0,0.0,0.0,0.0,0.0,0.0,0.0,0.0,0.0,51.09134292602539,0.2019510120153427,0.8939802646636963,0.0,0.0,0.0,0.0,0.0,0.0,0.0,0.0,0.0,-0.004944027401506901,0.00794632826000452,0.043672170490026474,0.0,0.0,0.0,0.0,0.0,0.0,0.0,0.0,0.0
1606991194947644441,4198286,1606987593369380630,imu_link,0.00627875467762351,0.004954204894602299,0.43120428919792175,0.9022189378738403,0.0,0.0,0.0,0.0,0.0,0.0,0.0,0.0,0.0,51.09134292602539,0.2019510120153427,0.8939802646636963,0.0,0.0,0.0,0.0,0.0,0.0,0.0,0.0,0.0,-0.004944027401506901,0.00794632826000452,0.043672170490026474,0.0,0.0,0.0,0.0,0.0,0.0,0.0,0.0,0.0
1606991194947665451,4198287,1606987593369464424,imu_link,0.006278956774622202,0.004954913631081581,0.4312058389186859,0.9022181630134583,0.0,0.0,0.0,0.0,0.0,0.0,0.0,0.0,0.0,51.09154510498047,0.20201274752616882,0.8940364718437195,0.0,0.0,0.0,0.0,0.0,0.0,0.0,0.0,0.0,-0.004713175352662802,0.005802287720143795,0.051199451088905334,0.0,0.0,0.0,0.0,0.0,0.0,0.0,0.0,0.0
1606991194947674797,4198288,1606987593369545546,imu_link,0.006278956774622202,0.004954913631081581,0.4312058389186859,0.9022181630134583,0.0,0.0,0.0,0.0,0.0,0.0,0.0,0.0,0.0,51.09154510498047,0.20201274752616882,0.8940364718437195,0.0,0.0,0.0,0.0,0.0,0.0,0.0,0.0,0.0,-0.004713175352662802,0.005802287720143795,0.051199451088905334,0.0,0.0,0.0,0.0,0.0,0.0,0.0,0.0,0.0
1606991194947686792,4198289,1606987593369628218,imu_link,0.006276225205510855,0.004953519906848669,0.4312010705471039,0.9022204875946045,0.0,0.0,0.0,0.0,0.0,0.0,0.0,0.0,0.0,51.09093475341797,0.20200833678245544,0.8936842083930969,0.0,0.0,0.0,0.0,0.0,0.0,0.0,0.0,0.0,-0.0011341017670929432,0.004182094242423773,0.07407031208276749,0.0,0.0,0.0,0.0,0.0,0.0,0.0,0.0,0.0
1606991194951230380,4198290,1606987593369712904,imu_link,0.006276225205510855,0.004953519906848669,0.4312010705471039,0.9022204875946045,0.0,0.0,0.0,0.0,0.0,0.0,0.0,0.0,0.0,51.09093475341797,0.20200833678245544,0.8936842083930969,0.0,0.0,0.0,0.0,0.0,0.0,0.0,0.0,0.0,-0.0011341017670929432,0.004182094242423773,0.07407031208276749,0.0,0.0,0.0,0.0,0.0,0.0,0.0,0.0,0.0
1606991194951276359,4198291,1606987593369794197,imu_link,0.0062755378894507885,0.004954218864440918,0.43120047450065613,0.9022207260131836,0.0,0.0,0.0,0.0,0.0,0.0,0.0,0.0,0.0,51.09086227416992,0.20211514830589294,0.8936475515365601,0.0,0.0,0.0,0.0,0.0,0.0,0.0,0.0,0.0,0.018334710970520973,-0.009168609976768494,0.08022643625736237,0.0,0.0,0.0,0.0,0.0,0.0,0.0,0.0,0.0
1606991194951291679,4198292,1606987593378493475,imu_link,0.0062755378894507885,0.004954218864440918,0.43120047450065613,0.9022207260131836,0.0,0.0,0.0,0.0,0.0,0.0,0.0,0.0,0.0,51.09086227416992,0.20211514830589294,0.8936475515365601,0.0,0.0,0.0,0.0,0.0,0.0,0.0,0.0,0.0,0.018334710970520973,-0.009168609976768494,0.08022643625736237,0.0,0.0,0.0,0.0,0.0,0.0,0.0,0.0,0.0
1606991194951308032,4198293,1606987593378614204,imu_link,0.006277851294726133,0.004960604477673769,0.4311998784542084,0.9022209644317627,0.0,0.0,0.0,0.0,0.0,0.0,0.0,0.0,0.0,51.090797424316406,0.2026616334915161,0.8942021131515503,0.0,0.0,0.0,0.0,0.0,0.0,0.0,0.0,0.0,0.020490964874625206,-0.0028764638118445873,0.046084653586149216,0.0,0.0,0.0,0.0,0.0,0.0,0.0,0.0,0.0
1606991194954900548,4198294,1606987593378722936,imu_link,0.006277851294726133,0.004960604477673769,0.4311998784542084,0.9022209644317627,0.0,0.0,0.0,0.0,0.0,0.0,0.0,0.0,0.0,51.090797424316406,0.2026616334915161,0.8942021131515503,0.0,0.0,0.0,0.0,0.0,0.0,0.0,0.0,0.0,0.020490964874625206,-0.0028764638118445873,0.046084653586149216,0.0,0.0,0.0,0.0,0.0,0.0,0.0,0.0,0.0
1606991194954942841,4198295,1606987593378807852,imu_link,0.006278541404753923,0.004962136037647724,0.4312002658843994,0.9022207856178284,0.0,0.0,0.0,0.0,0.0,0.0,0.0,0.0,0.0,51.090843200683594,0.20278547704219818,0.894349217414856,0.0,0.0,0.0,0.0,0.0,0.0,0.0,0.0,0.0,0.012158715166151524,-0.00230381079018116,0.05232129991054535,0.0,0.0,0.0,0.0,0.0,0.0,0.0,0.0,0.0
1606991194954957410,4198296,1606987593378888419,imu_link,0.006278541404753923,0.004962136037647724,0.4312002658843994,0.9022207856178284,0.0,0.0,0.0,0.0,0.0,0.0,0.0,0.0,0.0,51.090843200683594,0.20278547704219818,0.894349217414856,0.0,0.0,0.0,0.0,0.0,0.0,0.0,0.0,0.0,0.012158715166151524,-0.00230381079018116,0.05232129991054535,0.0,0.0,0.0,0.0,0.0,0.0,0.0,0.0,0.0
1606991194954965669,4198297,1606987593379006767,imu_link,0.006276499480009079,0.004965937230736017,0.43119916319847107,0.9022213220596313,0.0,0.0,0.0,0.0,0.0,0.0,0.0,0.0,0.0,51.09070587158203,0.2032804787158966,0.8943257927894592,0.0,0.0,0.0,0.0,0.0,0.0,0.0,0.0,0.0,0.008770222775638103,-0.013436884619295597,0.07401417195796967,0.0,0.0,0.0,0.0,0.0,0.0,0.0,0.0,0.0
1606991194954984239,4198298,1606987593379097041,imu_link,0.006276499480009079,0.004965937230736017,0.43119916319847107,0.9022213220596313,0.0,0.0,0.0,0.0,0.0,0.0,0.0,0.0,0.0,51.09070587158203,0.2032804787158966,0.8943257927894592,0.0,0.0,0.0,0.0,0.0,0.0,0.0,0.0,0.0,0.008770222775638103,-0.013436884619295597,0.07401417195796967,0.0,0.0,0.0,0.0,0.0,0.0,0.0,0.0,0.0
1606991195004081654,4198299,1606987593391726620,imu_link,0.006278074346482754,0.004966400098055601,0.43120047450065613,0.9022206664085388,0.0,0.0,0.0,0.0,0.0,0.0,0.0,0.0,0.0,51.09087371826172,0.20324921607971191,0.8945117592811584,0.0,0.0,0.0,0.0,0.0,0.0,0.0,0.0,0.0,0.0018855540547519922,-0.002689533634111285,0.0468810498714447,0.0,0.0,0.0,0.0,0.0,0.0,0.0,0.0,0.0
1606991195004097624,4198300,1606987593391845776,imu_link,0.006278074346482754,0.004966400098055601,0.43120047450065613,0.9022206664085388,0.0,0.0,0.0,0.0,0.0,0.0,0.0,0.0,0.0,51.09087371826172,0.20324921607971191,0.8945117592811584,0.0,0.0,0.0,0.0,0.0,0.0,0.0,0.0,0.0,0.0018855540547519922,-0.002689533634111285,0.0468810498714447,0.0,0.0,0.0,0.0,0.0,0.0,0.0,0.0,0.0
1606991195004103801,4198301,1606987593391931574,imu_link,0.006280259229242802,0.004967803135514259,0.431202232837677,0.902219831943512,0.0,0.0,0.0,0.0,0.0,0.0,0.0,0.0,0.0,51.091102600097656,0.20328453183174133,0.8948074579238892,0.0,0.0,0.0,0.0,0.0,0.0,0.0,0.0,0.0,-0.003218812867999077,0.015199515037238598,0.04205683618783951,0.0,0.0,0.0,0.0,0.0,0.0,0.0,0.0,0.0
1606991195004118814,4198302,1606987593392013855,imu_link,0.006280259229242802,0.004967803135514259,0.431202232837677,0.902219831943512,0.0,0.0,0.0,0.0,0.0,0.0,0.0,0.0,0.0,51.091102600097656,0.20328453183174133,0.8948074579238892,0.0,0.0,0.0,0.0,0.0,0.0,0.0,0.0,0.0,-0.003218812867999077,0.015199515037238598,0.04205683618783951,0.0,0.0,0.0,0.0,0.0,0.0,0.0,0.0,0.0
1606991195007635937,4198303,1606987593392097163,imu_link,0.006281804293394089,0.004967204295098782,0.43120360374450684,0.9022191166877747,0.0,0.0,0.0,0.0,0.0,0.0,0.0,0.0,0.0,51.091278076171875,0.2031448930501938,0.8949378728866577,0.0,0.0,0.0,0.0,0.0,0.0,0.0,0.0,0.0,-0.013792130164802074,0.020062388852238655,0.05403845012187958,0.0,0.0,0.0,0.0,0.0,0.0,0.0,0.0,0.0
1606991195007652449,4198304,1606987593392177508,imu_link,0.006281804293394089,0.004967204295098782,0.43120360374450684,0.9022191166877747,0.0,0.0,0.0,0.0,0.0,0.0,0.0,0.0,0.0,51.091278076171875,0.2031448930501938,0.8949378728866577,0.0,0.0,0.0,0.0,0.0,0.0,0.0,0.0,0.0,-0.013792130164802074,0.020062388852238655,0.05403845012187958,0.0,0.0,0.0,0.0,0.0,0.0,0.0,0.0,0.0
1606991195007671119,4198305,1606987593392324609,imu_link,0.006278377026319504,0.004961132071912289,0.4312055706977844,0.902218222618103,0.0,0.0,0.0,0.0,0.0,0.0,0.0,0.0,0.0,51.091514587402344,0.20268455147743225,0.8942838311195374,0.0,0.0,0.0,0.0,0.0,0.0,0.0,0.0,0.0,-0.0015316203935071826,0.02208319865167141,0.05920778587460518,0.0,0.0,0.0,0.0,0.0,0.0,0.0,0.0,0.0
1606991195007680958,4198306,1606987593392408694,imu_link,0.006278377026319504,0.004961132071912289,0.4312055706977844,0.902218222618103,0.0,0.0,0.0,0.0,0.0,0.0,0.0,0.0,0.0,51.091514587402344,0.20268455147743225,0.8942838311195374,0.0,0.0,0.0,0.0,0.0,0.0,0.0,0.0,0.0,-0.0015316203935071826,0.02208319865167141,0.05920778587460518,0.0,0.0,0.0,0.0,0.0,0.0,0.0,0.0,0.0
1606991195007692284,4198307,1606987593392484078,imu_link,0.006278442218899727,0.004961752332746983,0.431205153465271,0.9022184610366821,0.0,0.0,0.0,0.0,0.0,0.0,0.0,0.0,0.0,51.09146499633789,0.20274585485458374,0.8943212032318115,0.0,0.0,0.0,0.0,0.0,0.0,0.0,0.0,0.0,0.012376923114061356,0.02200709469616413,0.047072481364011765,0.0,0.0,0.0,0.0,0.0,0.0,0.0,0.0,0.0
1606991195016858752,4198308,1606987593392558445,imu_link,0.006278442218899727,0.004961752332746983,0.431205153465271,0.9022184610366821,0.0,0.0,0.0,0.0,0.0,0.0,0.0,0.0,0.0,51.09146499633789,0.20274585485458374,0.8943212032318115,0.0,0.0,0.0,0.0,0.0,0.0,0.0,0.0,0.0,0.012376923114061356,0.02200709469616413,0.047072481364011765,0.0,0.0,0.0,0.0,0.0,0.0,0.0,0.0,0.0
1606991195016878920,4198309,1606987593392632782,imu_link,0.006272818427532911,0.004959601443260908,0.43120235204696655,0.902219831943512,0.0,0.0,0.0,0.0,0.0,0.0,0.0,0.0,0.0,51.09111022949219,0.20280414819717407,0.8936327695846558,0.0,0.0,0.0,0.0,0.0,0.0,0.0,0.0,0.0,0.01427413895726204,0.024637116119265556,0.03856205195188522,0.0,0.0,0.0,0.0,0.0,0.0,0.0,0.0,0.0
1606991195016884489,4198310,1606987593405646099,imu_link,0.006272818427532911,0.004959601443260908,0.43120235204696655,0.902219831943512,0.0,0.0,0.0,0.0,0.0,0.0,0.0,0.0,0.0,51.09111022949219,0.20280414819717407,0.8936327695846558,0.0,0.0,0.0,0.0,0.0,0.0,0.0,0.0,0.0,0.01427413895726204,0.024637116119265556,0.03856205195188522,0.0,0.0,0.0,0.0,0.0,0.0,0.0,0.0,0.0
1606991195016889747,4198311,1606987593405804531,imu_link,0.006271258927881718,0.004959716461598873,0.43120548129081726,0.9022183418273926,0.0,0.0,0.0,0.0,0.0,0.0,0.0,0.0,0.0,51.09150695800781,0.20289000868797302,0.8934780359268188,0.0,0.0,0.0,0.0,0.0,0.0,0.0,0.0,0.0,0.018999945372343063,0.027921000495553017,0.04527481645345688,0.0,0.0,0.0,0.0,0.0,0.0,0.0,0.0,0.0
1606991195050010486,4198312,1606987593405908611,imu_link,0.006271258927881718,0.004959716461598873,0.43120548129081726,0.9022183418273926,0.0,0.0,0.0,0.0,0.0,0.0,0.0,0.0,0.0,51.09150695800781,0.20289000868797302,0.8934780359268188,0.0,0.0,0.0,0.0,0.0,0.0,0.0,0.0,0.0,0.018999945372343063,0.027921000495553017,0.04527481645345688,0.0,0.0,0.0,0.0,0.0,0.0,0.0,0.0,0.0
1606991195050088159,4198313,1606987593406005245,imu_link,0.006264355964958668,0.004960985388606787,0.431201696395874,0.9022201895713806,0.0,0.0,0.0,0.0,0.0,0.0,0.0,0.0,0.0,51.091026306152344,0.20336610078811646,0.8928260803222656,0.0,0.0,0.0,0.0,0.0,0.0,0.0,0.0,0.0,0.014680217951536179,0.002559737768024206,0.05582837015390396,0.0,0.0,0.0,0.0,0.0,0.0,0.0,0.0,0.0
1606991195050096539,4198314,1606987593406087009,imu_link,0.006264355964958668,0.004960985388606787,0.431201696395874,0.9022201895713806,0.0,0.0,0.0,0.0,0.0,0.0,0.0,0.0,0.0,51.091026306152344,0.20336610078811646,0.8928260803222656,0.0,0.0,0.0,0.0,0.0,0.0,0.0,0.0,0.0,0.014680217951536179,0.002559737768024206,0.05582837015390396,0.0,0.0,0.0,0.0,0.0,0.0,0.0,0.0,0.0
1606991195050108019,4198315,1606987593406161492,imu_link,0.006264164112508297,0.004961197264492512,0.43120163679122925,0.9022202491760254,0.0,0.0,0.0,0.0,0.0,0.0,0.0,0.0,0.0,51.09101867675781,0.20339755713939667,0.8928166627883911,0.0,0.0,0.0,0.0,0.0,0.0,0.0,0.0,0.0,0.01183120533823967,-0.016220081597566605,0.05906674638390541,0.0,0.0,0.0,0.0,0.0,0.0,0.0,0.0,0.0
1606991195106060301,4198316,1606987593406262150,imu_link,0.006264164112508297,0.004961197264492512,0.43120163679122925,0.9022202491760254,0.0,0.0,0.0,0.0,0.0,0.0,0.0,0.0,0.0,51.09101867675781,0.20339755713939667,0.8928166627883911,0.0,0.0,0.0,0.0,0.0,0.0,0.0,0.0,0.0,0.01183120533823967,-0.016220081597566605,0.05906674638390541,0.0,0.0,0.0,0.0,0.0,0.0,0.0,0.0,0.0
1606991195106098263,4198317,1606987593406343593,imu_link,0.006266860757023096,0.004963672254234552,0.43119972944259644,0.902221143245697,0.0,0.0,0.0,0.0,0.0,0.0,0.0,0.0,0.0,51.09077453613281,0.20352207124233246,0.8932173848152161,0.0,0.0,0.0,0.0,0.0,0.0,0.0,0.0,0.0,0.0029221533332020044,-0.01076783798635006,0.0368708036839962,0.0,0.0,0.0,0.0,0.0,0.0,0.0,0.0,0.0
1606991195106154922,4198318,1606987593406424345,imu_link,0.006266860757023096,0.004963672254234552,0.43119972944259644,0.902221143245697,0.0,0.0,0.0,0.0,0.0,0.0,0.0,0.0,0.0,51.09077453613281,0.20352207124233246,0.8932173848152161,0.0,0.0,0.0,0.0,0.0,0.0,0.0,0.0,0.0,0.0029221533332020044,-0.01076783798635006,0.0368708036839962,0.0,0.0,0.0,0.0,0.0,0.0,0.0,0.0,0.0
1606991195106168150,4198319,1606987593406506515,imu_link,0.0062653133645653725,0.004965078551322222,0.43119919300079346,0.9022213816642761,0.0,0.0,0.0,0.0,0.0,0.0,0.0,0.0,0.0,51.0907096862793,0.20374445617198944,0.8931267857551575,0.0,0.0,0.0,0.0,0.0,0.0,0.0,0.0,0.0,0.008474001660943031,-0.002507921075448394,0.03430098295211792,0.0,0.0,0.0,0.0,0.0,0.0,0.0,0.0,0.0
1606991195106209603,4198320,1606987593406588405,imu_link,0.0062653133645653725,0.004965078551322222,0.43119919300079346,0.9022213816642761,0.0,0.0,0.0,0.0,0.0,0.0,0.0,0.0,0.0,51.0907096862793,0.20374445617198944,0.8931267857551575,0.0,0.0,0.0,0.0,0.0,0.0,0.0,0.0,0.0,0.008474001660943031,-0.002507921075448394,0.03430098295211792,0.0,0.0,0.0,0.0,0.0,0.0,0.0,0.0,0.0
1606991195109300637,4198321,1606987593419100386,imu_link,0.006265363190323114,0.004966288339346647,0.43119826912879944,0.9022217988967896,0.0,0.0,0.0,0.0,0.0,0.0,0.0,0.0,0.0,51.09059143066406,0.20386792719364166,0.8931915163993835,0.0,0.0,0.0,0.0,0.0,0.0,0.0,0.0,0.0,0.016289543360471725,0.0013030455447733402,0.03829442337155342,0.0,0.0,0.0,0.0,0.0,0.0,0.0,0.0,0.0
1606991195109349891,4198322,1606987593419237082,imu_link,0.006265363190323114,0.004966288339346647,0.43119826912879944,0.9022217988967896,0.0,0.0,0.0,0.0,0.0,0.0,0.0,0.0,0.0,51.09059143066406,0.20386792719364166,0.8931915163993835,0.0,0.0,0.0,0.0,0.0,0.0,0.0,0.0,0.0,0.016289543360471725,0.0013030455447733402,0.03829442337155342,0.0,0.0,0.0,0.0,0.0,0.0,0.0,0.0,0.0
1606991195109364920,4198323,1606987593419323858,imu_link,0.006265363190323114,0.004966288339346647,0.43119826912879944,0.9022217988967896,0.0,0.0,0.0,0.0,0.0,0.0,0.0,0.0,0.0,51.09059143066406,0.20386792719364166,0.8931915163993835,0.0,0.0,0.0,0.0,0.0,0.0,0.0,0.0,0.0,-0.001168165705166757,-0.005412875674664974,0.034868042916059494,0.0,0.0,0.0,0.0,0.0,0.0,0.0,0.0,0.0
1606991195109379633,4198324,1606987593419415140,imu_link,0.006265363190323114,0.004966288339346647,0.43119826912879944,0.9022217988967896,0.0,0.0,0.0,0.0,0.0,0.0,0.0,0.0,0.0,51.09059143066406,0.20386792719364166,0.8931915163993835,0.0,0.0,0.0,0.0,0.0,0.0,0.0,0.0,0.0,-0.001168165705166757,-0.005412875674664974,0.034868042916059494,0.0,0.0,0.0,0.0,0.0,0.0,0.0,0.0,0.0
1606991195119550916,4198325,1606987593419507343,imu_link,0.006267544813454151,0.004966185428202152,0.43119320273399353,0.9022242426872253,0.0,0.0,0.0,0.0,0.0,0.0,0.0,0.0,0.0,51.08995056152344,0.20375454425811768,0.893410861492157,0.0,0.0,0.0,0.0,0.0,0.0,0.0,0.0,0.0,0.006099985912442207,-0.010739188641309738,0.03401174023747444,0.0,0.0,0.0,0.0,0.0,0.0,0.0,0.0,0.0
1606991195119607186,4198326,1606987593419597672,imu_link,0.006267544813454151,0.004966185428202152,0.43119320273399353,0.9022242426872253,0.0,0.0,0.0,0.0,0.0,0.0,0.0,0.0,0.0,51.08995056152344,0.20375454425811768,0.893410861492157,0.0,0.0,0.0,0.0,0.0,0.0,0.0,0.0,0.0,0.006099985912442207,-0.010739188641309738,0.03401174023747444,0.0,0.0,0.0,0.0,0.0,0.0,0.0,0.0,0.0
1606991195119617883,4198327,1606987593419699207,imu_link,0.006268410477787256,0.004965279716998339,0.431194007396698,0.9022238254547119,0.0,0.0,0.0,0.0,0.0,0.0,0.0,0.0,0.0,51.090049743652344,0.20361731946468353,0.8934558033943176,0.0,0.0,0.0,0.0,0.0,0.0,0.0,0.0,0.0,0.014852568507194519,-0.007830423302948475,0.03981945291161537,0.0,0.0,0.0,0.0,0.0,0.0,0.0,0.0,0.0
1606991195119630399,4198328,1606987593419802145,imu_link,0.006268410477787256,0.004965279716998339,0.431194007396698,0.9022238254547119,0.0,0.0,0.0,0.0,0.0,0.0,0.0,0.0,0.0,51.090049743652344,0.20361731946468353,0.8934558033943176,0.0,0.0,0.0,0.0,0.0,0.0,0.0,0.0,0.0,0.014852568507194519,-0.007830423302948475,0.03981945291161537,0.0,0.0,0.0,0.0,0.0,0.0,0.0,0.0,0.0
1606991195119664442,4198329,1606987593419922283,imu_link,0.006272064987570047,0.004967670887708664,0.4311903417110443,0.9022255539894104,0.0,0.0,0.0,0.0,0.0,0.0,0.0,0.0,0.0,51.0895881652832,0.20368756353855133,0.893950879573822,0.0,0.0,0.0,0.0,0.0,0.0,0.0,0.0,0.0,-0.008777949959039688,0.0008626658236607909,0.05419106408953667,0.0,0.0,0.0,0.0,0.0,0.0,0.0,0.0,0.0
1606991195123884551,4198330,1606987593420008523,imu_link,0.006272064987570047,0.004967670887708664,0.4311903417110443,0.9022255539894104,0.0,0.0,0.0,0.0,0.0,0.0,0.0,0.0,0.0,51.0895881652832,0.20368756353855133,0.893950879573822,0.0,0.0,0.0,0.0,0.0,0.0,0.0,0.0,0.0,-0.008777949959039688,0.0008626658236607909,0.05419106408953667,0.0,0.0,0.0,0.0,0.0,0.0,0.0,0.0,0.0
1606991195123923694,4198331,1606987593420091635,imu_link,0.006271662190556526,0.004968809429556131,0.43119263648986816,0.9022244811058044,0.0,0.0,0.0,0.0,0.0,0.0,0.0,0.0,0.0,51.089881896972656,0.20382289588451385,0.8939660787582397,0.0,0.0,0.0,0.0,0.0,0.0,0.0,0.0,0.0,-0.0019245961448177695,0.0013407450169324875,0.061983317136764526,0.0,0.0,0.0,0.0,0.0,0.0,0.0,0.0,0.0
1606991195123939087,4198332,1606987593432964261,imu_link,0.006271662190556526,0.004968809429556131,0.43119263648986816,0.9022244811058044,0.0,0.0,0.0,0.0,0.0,0.0,0.0,0.0,0.0,51.089881896972656,0.20382289588451385,0.8939660787582397,0.0,0.0,0.0,0.0,0.0,0.0,0.0,0.0,0.0,-0.0019245961448177695,0.0013407450169324875,0.061983317136764526,0.0,0.0,0.0,0.0,0.0,0.0,0.0,0.0,0.0
1606991195123955903,4198333,1606987593433105588,imu_link,0.006271053105592728,0.0049682846292853355,0.4311918020248413,0.9022248983383179,0.0,0.0,0.0,0.0,0.0,0.0,0.0,0.0,0.0,51.08977127075195,0.20379960536956787,0.8938769698143005,0.0,0.0,0.0,0.0,0.0,0.0,0.0,0.0,0.0,0.011357706040143967,0.005983327515423298,0.06610715389251709,0.0,0.0,0.0,0.0,0.0,0.0,0.0,0.0,0.0
1606991195183574685,4198334,1606987593433207830,imu_link,0.006271053105592728,0.0049682846292853355,0.4311918020248413,0.9022248983383179,0.0,0.0,0.0,0.0,0.0,0.0,0.0,0.0,0.0,51.08977127075195,0.20379960536956787,0.8938769698143005,0.0,0.0,0.0,0.0,0.0,0.0,0.0,0.0,0.0,0.011357706040143967,0.005983327515423298,0.06610715389251709,0.0,0.0,0.0,0.0,0.0,0.0,0.0,0.0,0.0
1606991195183592326,4198335,1606987593433296901,imu_link,0.006271274294704199,0.004967477638274431,0.43119463324546814,0.902223527431488,0.0,0.0,0.0,0.0,0.0,0.0,0.0,0.0,0.0,51.09013366699219,0.2037024348974228,0.8938606381416321,0.0,0.0,0.0,0.0,0.0,0.0,0.0,0.0,0.0,-0.002245530718937516,0.0027995272539556026,0.06303911656141281,0.0,0.0,0.0,0.0,0.0,0.0,0.0,0.0,0.0
1606991195183598384,4198336,1606987593433391425,imu_link,0.006271274294704199,0.004967477638274431,0.43119463324546814,0.902223527431488,0.0,0.0,0.0,0.0,0.0,0.0,0.0,0.0,0.0,51.09013366699219,0.2037024348974228,0.8938606381416321,0.0,0.0,0.0,0.0,0.0,0.0,0.0,0.0,0.0,-0.002245530718937516,0.0027995272539556026,0.06303911656141281,0.0,0.0,0.0,0.0,0.0,0.0,0.0,0.0,0.0
1606991195183608347,4198337,1606987593433495340,imu_link,0.006270844489336014,0.0049667879939079285,0.4311923682689667,0.902224600315094,0.0,0.0,0.0,0.0,0.0,0.0,0.0,0.0,0.0,51.08984375,0.20365458726882935,0.8937816023826599,0.0,0.0,0.0,0.0,0.0,0.0,0.0,0.0,0.0,-0.007582824677228928,-0.009808098897337914,0.04432594031095505,0.0,0.0,0.0,0.0,0.0,0.0,0.0,0.0,0.0
1606991195183627130,4198338,1606987593433579034,imu_link,0.006270844489336014,0.0049667879939079285,0.4311923682689667,0.902224600315094,0.0,0.0,0.0,0.0,0.0,0.0,0.0,0.0,0.0,51.08984375,0.20365458726882935,0.8937816023826599,0.0,0.0,0.0,0.0,0.0,0.0,0.0,0.0,0.0,-0.007582824677228928,-0.009808098897337914,0.04432594031095505,0.0,0.0,0.0,0.0,0.0,0.0,0.0,0.0,0.0
1606991195188730567,4198339,1606987593433661550,imu_link,0.006270610261708498,0.004967528861016035,0.4311932623386383,0.9022241830825806,0.0,0.0,0.0,0.0,0.0,0.0,0.0,0.0,0.0,51.0899543762207,0.2037418931722641,0.8937942385673523,0.0,0.0,0.0,0.0,0.0,0.0,0.0,0.0,0.0,-0.0004351424868218601,0.003923441283404827,0.03894275054335594,0.0,0.0,0.0,0.0,0.0,0.0,0.0,0.0,0.0
1606991195188752633,4198340,1606987593433743069,imu_link,0.006270610261708498,0.004967528861016035,0.4311932623386383,0.9022241830825806,0.0,0.0,0.0,0.0,0.0,0.0,0.0,0.0,0.0,51.0899543762207,0.2037418931722641,0.8937942385673523,0.0,0.0,0.0,0.0,0.0,0.0,0.0,0.0,0.0,-0.0004351424868218601,0.003923441283404827,0.03894275054335594,0.0,0.0,0.0,0.0,0.0,0.0,0.0,0.0,0.0
1606991195188759239,4198341,1606987593433824026,imu_link,0.006269804202020168,0.004967595916241407,0.43119490146636963,0.9022234082221985,0.0,0.0,0.0,0.0,0.0,0.0,0.0,0.0,0.0,51.09016418457031,0.20378702878952026,0.8937144875526428,0.0,0.0,0.0,0.0,0.0,0.0,0.0,0.0,0.0,0.002474424196407199,-0.0008908746531233191,0.05287924036383629,0.0,0.0,0.0,0.0,0.0,0.0,0.0,0.0,0.0
1606991195188769859,4198342,1606987593433907209,imu_link,0.006269804202020168,0.004967595916241407,0.43119490146636963,0.9022234082221985,0.0,0.0,0.0,0.0,0.0,0.0,0.0,0.0,0.0,51.09016418457031,0.20378702878952026,0.8937144875526428,0.0,0.0,0.0,0.0,0.0,0.0,0.0,0.0,0.0,0.002474424196407199,-0.0008908746531233191,0.05287924036383629,0.0,0.0,0.0,0.0,0.0,0.0,0.0,0.0,0.0
1606991195198917108,4198343,1606987593445799877,imu_link,0.006271184887737036,0.004967669490724802,0.43119287490844727,0.9022243618965149,0.0,0.0,0.0,0.0,0.0,0.0,0.0,0.0,0.0,51.08991241455078,0.20372843742370605,0.8938604593276978,0.0,0.0,0.0,0.0,0.0,0.0,0.0,0.0,0.0,0.0014717181911692023,-0.0015790420584380627,0.05562571436166763,0.0,0.0,0.0,0.0,0.0,0.0,0.0,0.0,0.0
1606991195198950853,4198344,1606987593445940903,imu_link,0.006271184887737036,0.004967669490724802,0.43119287490844727,0.9022243618965149,0.0,0.0,0.0,0.0,0.0,0.0,0.0,0.0,0.0,51.08991241455078,0.20372843742370605,0.8938604593276978,0.0,0.0,0.0,0.0,0.0,0.0,0.0,0.0,0.0,0.0014717181911692023,-0.0015790420584380627,0.05562571436166763,0.0,0.0,0.0,0.0,0.0,0.0,0.0,0.0,0.0
1606991195198959801,4198345,1606987593446043746,imu_link,0.006272295955568552,0.004971268121153116,0.4311947226524353,0.9022234678268433,0.0,0.0,0.0,0.0,0.0,0.0,0.0,0.0,0.0,51.09014892578125,0.2040437012910843,0.8941536545753479,0.0,0.0,0.0,0.0,0.0,0.0,0.0,0.0,0.0,0.004485466983169317,0.017995472997426987,0.041099369525909424,0.0,0.0,0.0,0.0,0.0,0.0,0.0,0.0,0.0
