%time,field.header.seq,field.header.stamp,field.header.frame_id,field.orientation.x,field.orientation.y,field.orientation.z,field.orientation.w,field.orientation_covariance0,field.orientation_covariance1,field.orientation_covariance2,field.orientation_covariance3,field.orientation_covariance4,field.orientation_covariance5,field.orientation_covariance6,field.orientation_covariance7,field.orientation_covariance8,field.angular_velocity.x,field.angular_velocity.y,field.angular_velocity.z,field.angular_velocity_covariance0,field.angular_velocity_covariance1,field.angular_velocity_covariance2,field.angular_velocity_covariance3,field.angular_velocity_covariance4,field.angular_velocity_covariance5,field.angular_velocity_covariance6,field.angular_velocity_covariance7,field.angular_velocity_covariance8,field.linear_acceleration.x,field.linear_acceleration.y,field.linear_acceleration.z,field.linear_acceleration_covariance0,field.linear_acceleration_covariance1,field.linear_acceleration_covariance2,field.linear_acceleration_covariance3,field.linear_acceleration_covariance4,field.linear_acceleration_covariance5,field.linear_acceleration_covariance6,field.linear_acceleration_covariance7,field.linear_acceleration_covariance8
1606990591490403014,3716200,1606986990760576806,imu_link,-0.0024509483482688665,0.006665689405053854,-0.36297449469566345,0.9317720532417297,0.0,0.0,0.0,0.0,0.0,0.0,0.0,0.0,0.0,-42.56995391845703,0.6097842454910278,-0.5389854311943054,0.0,0.0,0.0,0.0,0.0,0.0,0.0,0.0,0.0,0.014872392639517784,0.0021923750173300505,0.0400436706840992,0.0,0.0,0.0,0.0,0.0,0.0,0.0,0.0,0.0
1606990591490426090,3716201,1606986990760716199,imu_link,-0.0024503099266439676,0.006668541580438614,-0.362972229719162,0.9317729473114014,0.0,0.0,0.0,0.0,0.0,0.0,0.0,0.0,0.0,-42.569679260253906,0.610116720199585,-0.5390344262123108,0.0,0.0,0.0,0.0,0.0,0.0,0.0,0.0,0.0,-0.003999606240540743,0.002339412923902273,0.06063828244805336,0.0,0.0,0.0,0.0,0.0,0.0,0.0,0.0,0.0
1606990591490437413,3716202,1606986990760868191,imu_link,-0.0024503099266439676,0.006668541580438614,-0.362972229719162,0.9317729473114014,0.0,0.0,0.0,0.0,0.0,0.0,0.0,0.0,0.0,-42.569679260253906,0.610116720199585,-0.5390344262123108,0.0,0.0,0.0,0.0,0.0,0.0,0.0,0.0,0.0,-0.003999606240540743,0.002339412923902273,0.06063828244805336,0.0,0.0,0.0,0.0,0.0,0.0,0.0,0.0,0.0
1606990591490462387,3716203,1606986990760957818,imu_link,-0.0024522298481315374,0.006666508037596941,-0.362973153591156,0.9317725896835327,0.0,0.0,0.0,0.0,0.0,0.0,0.0,0.0,0.0,-42.56978988647461,0.609819233417511,-0.5391554832458496,0.0,0.0,0.0,0.0,0.0,0.0,0.0,0.0,0.0,-0.009506991133093834,0.013452772051095963,0.05294346064329147,0.0,0.0,0.0,0.0,0.0,0.0,0.0,0.0,0.0
1606990591498936688,3716204,1606986990761047781,imu_link,-0.0024522298481315374,0.006666508037596941,-0.362973153591156,0.9317725896835327,0.0,0.0,0.0,0.0,0.0,0.0,0.0,0.0,0.0,-42.56978988647461,0.609819233417511,-0.5391554832458496,0.0,0.0,0.0,0.0,0.0,0.0,0.0,0.0,0.0,-0.009506991133093834,0.013452772051095963,0.05294346064329147,0.0,0.0,0.0,0.0,0.0,0.0,0.0,0.0,0.0
1606990591498972649,3716205,1606986990761129686,imu_link,-0.002453647553920746,0.006665396504104137,-0.36297017335891724,0.9317737221717834,0.0,0.0,0.0,0.0,0.0,0.0,0.0,0.0,0.0,-42.56942367553711,0.6096432209014893,-0.5392587184906006,0.0,0.0,0.0,0.0,0.0,0.0,0.0,0.0,0.0,-0.002003620844334364,0.012506653554737568,0.029322786256670952,0.0,0.0,0.0,0.0,0.0,0.0,0.0,0.0,0.0
1606990591498980943,3716206,1606986990761232714,imu_link,-0.002453647553920746,0.006665396504104137,-0.36297017335891724,0.9317737221717834,0.0,0.0,0.0,0.0,0.0,0.0,0.0,0.0,0.0,-42.56942367553711,0.6096432209014893,-0.5392587184906006,0.0,0.0,0.0,0.0,0.0,0.0,0.0,0.0,0.0,-0.002003620844334364,0.012506653554737568,0.029322786256670952,0.0,0.0,0.0,0.0,0.0,0.0,0.0,0.0,0.0
1606990591498988575,3716207,1606986990761316638,imu_link,-0.0024525297340005636,0.006666937842965126,-0.36296969652175903,0.9317739009857178,0.0,0.0,0.0,0.0,0.0,0.0,0.0,0.0,0.0,-42.56937026977539,0.609854519367218,-0.5392031073570251,0.0,0.0,0.0,0.0,0.0,0.0,0.0,0.0,0.0,-0.0014475237112492323,0.006005969829857349,0.05105353519320488,0.0,0.0,0.0,0.0,0.0,0.0,0.0,0.0,0.0
1606990591574685132,3716208,1606986990761393296,imu_link,-0.0024525297340005636,0.006666937842965126,-0.36296969652175903,0.9317739009857178,0.0,0.0,0.0,0.0,0.0,0.0,0.0,0.0,0.0,-42.56937026977539,0.609854519367218,-0.5392031073570251,0.0,0.0,0.0,0.0,0.0,0.0,0.0,0.0,0.0,-0.0014475237112492323,0.006005969829857349,0.05105353519320488,0.0,0.0,0.0,0.0,0.0,0.0,0.0,0.0,0.0
1606990591574722959,3716209,1606986990761473421,imu_link,-0.002453708555549383,0.006665745750069618,-0.3629686236381531,0.9317743182182312,0.0,0.0,0.0,0.0,0.0,0.0,0.0,0.0,0.0,-42.56923294067383,0.6096788644790649,-0.5392787456512451,0.0,0.0,0.0,0.0,0.0,0.0,0.0,0.0,0.0,-0.00936071015894413,0.018464097753167152,0.038979437202215195,0.0,0.0,0.0,0.0,0.0,0.0,0.0,0.0,0.0
1606990591574737089,3716210,1606986990761553131,imu_link,-0.002453708555549383,0.006665745750069618,-0.3629686236381531,0.9317743182182312,0.0,0.0,0.0,0.0,0.0,0.0,0.0,0.0,0.0,-42.56923294067383,0.6096788644790649,-0.5392787456512451,0.0,0.0,0.0,0.0,0.0,0.0,0.0,0.0,0.0,-0.00936071015894413,0.018464097753167152,0.038979437202215195,0.0,0.0,0.0,0.0,0.0,0.0,0.0,0.0,0.0
1606990591574770302,3716211,1606986990774049366,imu_link,-0.0024537243880331516,0.006663583219051361,-0.3629682958126068,0.9317744374275208,0.0,0.0,0.0,0.0,0.0,0.0,0.0,0.0,0.0,-42.56919860839844,0.6094474196434021,-0.5391902327537537,0.0,0.0,0.0,0.0,0.0,0.0,0.0,0.0,0.0,0.0003055142587982118,0.02607692964375019,0.020218705758452415,0.0,0.0,0.0,0.0,0.0,0.0,0.0,0.0,0.0
1606990591574783943,3716212,1606986990774195359,imu_link,-0.0024537243880331516,0.006663583219051361,-0.3629682958126068,0.9317744374275208,0.0,0.0,0.0,0.0,0.0,0.0,0.0,0.0,0.0,-42.56919860839844,0.6094474196434021,-0.5391902327537537,0.0,0.0,0.0,0.0,0.0,0.0,0.0,0.0,0.0,0.0003055142587982118,0.02607692964375019,0.020218705758452415,0.0,0.0,0.0,0.0,0.0,0.0,0.0,0.0,0.0
1606990591618880523,3716213,1606986990774332366,imu_link,-0.002457126509398222,0.006663686595857143,-0.36296746134757996,0.9317747950553894,0.0,0.0,0.0,0.0,0.0,0.0,0.0,0.0,0.0,-42.569091796875,0.6093175411224365,-0.539557158946991,0.0,0.0,0.0,0.0,0.0,0.0,0.0,0.0,0.0,0.008334429934620857,0.01915806531906128,0.051042087376117706,0.0,0.0,0.0,0.0,0.0,0.0,0.0,0.0,0.0
1606990591618922473,3716214,1606986990774414090,imu_link,-0.002457126509398222,0.006663686595857143,-0.36296746134757996,0.9317747950553894,0.0,0.0,0.0,0.0,0.0,0.0,0.0,0.0,0.0,-42.569091796875,0.6093175411224365,-0.539557158946991,0.0,0.0,0.0,0.0,0.0,0.0,0.0,0.0,0.0,0.008334429934620857,0.01915806531906128,0.051042087376117706,0.0,0.0,0.0,0.0,0.0,0.0,0.0,0.0,0.0
1606990591618945085,3716215,1606986990774506268,imu_link,-0.0024578545708209276,0.0066651408560574055,-0.3629663586616516,0.9317752122879028,0.0,0.0,0.0,0.0,0.0,0.0,0.0,0.0,0.0,-42.56895446777344,0.6094430685043335,-0.5396947860717773,0.0,0.0,0.0,0.0,0.0,0.0,0.0,0.0,0.0,0.00284601841121912,0.0009074241970665753,0.07524077594280243,0.0,0.0,0.0,0.0,0.0,0.0,0.0,0.0,0.0
1606990591618963809,3716216,1606986990774590022,imu_link,-0.0024578545708209276,0.0066651408560574055,-0.3629663586616516,0.9317752122879028,0.0,0.0,0.0,0.0,0.0,0.0,0.0,0.0,0.0,-42.56895446777344,0.6094430685043335,-0.5396947860717773,0.0,0.0,0.0,0.0,0.0,0.0,0.0,0.0,0.0,0.00284601841121912,0.0009074241970665753,0.07524077594280243,0.0,0.0,0.0,0.0,0.0,0.0,0.0,0.0,0.0
1606990591627837965,3716217,1606986990774687006,imu_link,-0.0024578918237239122,0.006665793713182211,-0.36296555399894714,0.9317755103111267,0.0,0.0,0.0,0.0,0.0,0.0,0.0,0.0,0.0,-42.5688591003418,0.60951167345047,-0.5397254228591919,0.0,0.0,0.0,0.0,0.0,0.0,0.0,0.0,0.0,0.00623072125017643,-0.02602091059088707,0.06932052224874496,0.0,0.0,0.0,0.0,0.0,0.0,0.0,0.0,0.0
1606990591627881359,3716218,1606986990774769382,imu_link,-0.0024578918237239122,0.006665793713182211,-0.36296555399894714,0.9317755103111267,0.0,0.0,0.0,0.0,0.0,0.0,0.0,0.0,0.0,-42.5688591003418,0.60951167345047,-0.5397254228591919,0.0,0.0,0.0,0.0,0.0,0.0,0.0,0.0,0.0,0.00623072125017643,-0.02602091059088707,0.06932052224874496,0.0,0.0,0.0,0.0,0.0,0.0,0.0,0.0,0.0
1606990591627906747,3716219,1606986990774847012,imu_link,-0.002457514638081193,0.006662508938461542,-0.36296525597572327,0.9317756295204163,0.0,0.0,0.0,0.0,0.0,0.0,0.0,0.0,0.0,-42.568817138671875,0.6091768741607666,-0.5395482182502747,0.0,0.0,0.0,0.0,0.0,0.0,0.0,0.0,0.0,-0.005232332739979029,-0.022254884243011475,0.050446767359972,0.0,0.0,0.0,0.0,0.0,0.0,0.0,0.0,0.0
1606990591627941170,3716220,1606986990774925534,imu_link,-0.002457514638081193,0.006662508938461542,-0.36296525597572327,0.9317756295204163,0.0,0.0,0.0,0.0,0.0,0.0,0.0,0.0,0.0,-42.568817138671875,0.6091768741607666,-0.5395482182502747,0.0,0.0,0.0,0.0,0.0,0.0,0.0,0.0,0.0,-0.005232332739979029,-0.022254884243011475,0.050446767359972,0.0,0.0,0.0,0.0,0.0,0.0,0.0,0.0,0.0
1606990591628006377,3716221,1606986990775039011,imu_link,-0.0024546149652451277,0.006659198086708784,-0.36296650767326355,0.9317751526832581,0.0,0.0,0.0,0.0,0.0,0.0,0.0,0.0,0.0,-42.568965911865234,0.6089431643486023,-0.5391017198562622,0.0,0.0,0.0,0.0,0.0,0.0,0.0,0.0,0.0,-0.02048100344836712,0.008265257813036442,0.03677576407790184,0.0,0.0,0.0,0.0,0.0,0.0,0.0,0.0,0.0
1606990591635699133,3716222,1606986990787829397,imu_link,-0.0024546149652451277,0.006659198086708784,-0.36296650767326355,0.9317751526832581,0.0,0.0,0.0,0.0,0.0,0.0,0.0,0.0,0.0,-42.568965911865234,0.6089431643486023,-0.5391017198562622,0.0,0.0,0.0,0.0,0.0,0.0,0.0,0.0,0.0,-0.02048100344836712,0.008265257813036442,0.03677576407790184,0.0,0.0,0.0,0.0,0.0,0.0,0.0,0.0,0.0
1606990591635747945,3716223,1606986990787969887,imu_link,-0.002456242684274912,0.006658689118921757,-0.36296743154525757,0.9317747950553894,0.0,0.0,0.0,0.0,0.0,0.0,0.0,0.0,0.0,-42.56908416748047,0.6088206768035889,-0.539254903793335,0.0,0.0,0.0,0.0,0.0,0.0,0.0,0.0,0.0,-0.0068122525699436665,0.01561192236840725,0.030450226739048958,0.0,0.0,0.0,0.0,0.0,0.0,0.0,0.0,0.0
1606990591635777223,3716224,1606986990788124380,imu_link,-0.002456242684274912,0.006658689118921757,-0.36296743154525757,0.9317747950553894,0.0,0.0,0.0,0.0,0.0,0.0,0.0,0.0,0.0,-42.56908416748047,0.6088206768035889,-0.539254903793335,0.0,0.0,0.0,0.0,0.0,0.0,0.0,0.0,0.0,-0.0068122525699436665,0.01561192236840725,0.030450226739048958,0.0,0.0,0.0,0.0,0.0,0.0,0.0,0.0,0.0
1606990591635839547,3716225,1606986990788221013,imu_link,-0.002459635492414236,0.006657891906797886,-0.36296793818473816,0.9317746162414551,0.0,0.0,0.0,0.0,0.0,0.0,0.0,0.0,0.0,-42.56914520263672,0.6085940599441528,-0.5395843982696533,0.0,0.0,0.0,0.0,0.0,0.0,0.0,0.0,0.0,0.009679632261395454,0.014704618602991104,0.0444762296974659,0.0,0.0,0.0,0.0,0.0,0.0,0.0,0.0,0.0
1606990591716775709,3716226,1606986990788308972,imu_link,-0.002459635492414236,0.006657891906797886,-0.36296793818473816,0.9317746162414551,0.0,0.0,0.0,0.0,0.0,0.0,0.0,0.0,0.0,-42.56914520263672,0.6085940599441528,-0.5395843982696533,0.0,0.0,0.0,0.0,0.0,0.0,0.0,0.0,0.0,0.009679632261395454,0.014704618602991104,0.0444762296974659,0.0,0.0,0.0,0.0,0.0,0.0,0.0,0.0,0.0
1606990591716807768,3716227,1606986990788389684,imu_link,-0.002461198950186372,0.006658611819148064,-0.3629681468009949,0.9317745566368103,0.0,0.0,0.0,0.0,0.0,0.0,0.0,0.0,0.0,-42.56917190551758,0.6086058616638184,-0.5397814512252808,0.0,0.0,0.0,0.0,0.0,0.0,0.0,0.0,0.0,0.0004564925329759717,0.007334458641707897,0.05686335265636444,0.0,0.0,0.0,0.0,0.0,0.0,0.0,0.0,0.0
1606990591716825160,3716228,1606986990788484598,imu_link,-0.002461198950186372,0.006658611819148064,-0.3629681468009949,0.9317745566368103,0.0,0.0,0.0,0.0,0.0,0.0,0.0,0.0,0.0,-42.56917190551758,0.6086058616638184,-0.5397814512252808,0.0,0.0,0.0,0.0,0.0,0.0,0.0,0.0,0.0,0.0004564925329759717,0.007334458641707897,0.05686335265636444,0.0,0.0,0.0,0.0,0.0,0.0,0.0,0.0,0.0
1606990591716857372,3716229,1606986990788566007,imu_link,-0.002462702337652445,0.006659270729869604,-0.36296918988227844,0.9317741394042969,0.0,0.0,0.0,0.0,0.0,0.0,0.0,0.0,0.0,-42.56930160522461,0.6086130142211914,-0.5399700403213501,0.0,0.0,0.0,0.0,0.0,0.0,0.0,0.0,0.0,-0.00604632031172514,0.004152912646532059,0.04984280467033386,0.0,0.0,0.0,0.0,0.0,0.0,0.0,0.0,0.0
1606990591716870307,3716230,1606986990788731039,imu_link,-0.002462702337652445,0.006659270729869604,-0.36296918988227844,0.9317741394042969,0.0,0.0,0.0,0.0,0.0,0.0,0.0,0.0,0.0,-42.56930160522461,0.6086130142211914,-0.5399700403213501,0.0,0.0,0.0,0.0,0.0,0.0,0.0,0.0,0.0,-0.00604632031172514,0.004152912646532059,0.04984280467033386,0.0,0.0,0.0,0.0,0.0,0.0,0.0,0.0,0.0
1606990591729438623,3716231,1606986990788816126,imu_link,-0.002460943069308996,0.006657115183770657,-0.36296918988227844,0.9317741394042969,0.0,0.0,0.0,0.0,0.0,0.0,0.0,0.0,0.0,-42.56930160522461,0.6084560751914978,-0.5396924614906311,0.0,0.0,0.0,0.0,0.0,0.0,0.0,0.0,0.0,0.0023768313694745302,0.007634863723069429,0.0381411537528038,0.0,0.0,0.0,0.0,0.0,0.0,0.0,0.0,0.0
1606990591729469755,3716232,1606986990788909341,imu_link,-0.002460943069308996,0.006657115183770657,-0.36296918988227844,0.9317741394042969,0.0,0.0,0.0,0.0,0.0,0.0,0.0,0.0,0.0,-42.56930160522461,0.6084560751914978,-0.5396924614906311,0.0,0.0,0.0,0.0,0.0,0.0,0.0,0.0,0.0,0.0023768313694745302,0.007634863723069429,0.0381411537528038,0.0,0.0,0.0,0.0,0.0,0.0,0.0,0.0,0.0
1606990591729480508,3716233,1606986990801294965,imu_link,-0.002463203389197588,0.006657054182142019,-0.362967848777771,0.9317746758460999,0.0,0.0,0.0,0.0,0.0,0.0,0.0,0.0,0.0,-42.569129943847656,0.6083562970161438,-0.5399304032325745,0.0,0.0,0.0,0.0,0.0,0.0,0.0,0.0,0.0,0.0007906534010544419,0.004872510209679604,0.0396663136780262,0.0,0.0,0.0,0.0,0.0,0.0,0.0,0.0,0.0
1606990591729490110,3716234,1606986990801440773,imu_link,-0.002463203389197588,0.006657054182142019,-0.362967848777771,0.9317746758460999,0.0,0.0,0.0,0.0,0.0,0.0,0.0,0.0,0.0,-42.569129943847656,0.6083562970161438,-0.5399304032325745,0.0,0.0,0.0,0.0,0.0,0.0,0.0,0.0,0.0,0.0007906534010544419,0.004872510209679604,0.0396663136780262,0.0,0.0,0.0,0.0,0.0,0.0,0.0,0.0,0.0
1606990591737716711,3716235,1606986990801594083,imu_link,-0.002463753568008542,0.006656124722212553,-0.3629662096500397,0.9317753314971924,0.0,0.0,0.0,0.0,0.0,0.0,0.0,0.0,0.0,-42.568931579589844,0.6082351207733154,-0.5399494171142578,0.0,0.0,0.0,0.0,0.0,0.0,0.0,0.0,0.0,-0.012303698807954788,-0.006867874413728714,0.06141631677746773,0.0,0.0,0.0,0.0,0.0,0.0,0.0,0.0,0.0
1606990591737764796,3716236,1606986990801687003,imu_link,-0.002463753568008542,0.006656124722212553,-0.3629662096500397,0.9317753314971924,0.0,0.0,0.0,0.0,0.0,0.0,0.0,0.0,0.0,-42.568931579589844,0.6082351207733154,-0.5399494171142578,0.0,0.0,0.0,0.0,0.0,0.0,0.0,0.0,0.0,-0.012303698807954788,-0.006867874413728714,0.06141631677746773,0.0,0.0,0.0,0.0,0.0,0.0,0.0,0.0,0.0
1606990591737787325,3716237,1606986990801771488,imu_link,-0.002463853219524026,0.006652152165770531,-0.3629670739173889,0.9317749738693237,0.0,0.0,0.0,0.0,0.0,0.0,0.0,0.0,0.0,-42.56903839111328,0.6078063249588013,-0.5397953987121582,0.0,0.0,0.0,0.0,0.0,0.0,0.0,0.0,0.0,-0.006591962184756994,0.004674241412431002,0.05880456417798996,0.0,0.0,0.0,0.0,0.0,0.0,0.0,0.0,0.0
1606990591737801232,3716238,1606986990801878506,imu_link,-0.002463853219524026,0.006652152165770531,-0.3629670739173889,0.9317749738693237,0.0,0.0,0.0,0.0,0.0,0.0,0.0,0.0,0.0,-42.56903839111328,0.6078063249588013,-0.5397953987121582,0.0,0.0,0.0,0.0,0.0,0.0,0.0,0.0,0.0,-0.006591962184756994,0.004674241412431002,0.05880456417798996,0.0,0.0,0.0,0.0,0.0,0.0,0.0,0.0,0.0
1606990591737846211,3716239,1606986990801958802,imu_link,-0.0024648800026625395,0.006651635747402906,-0.3629649877548218,0.9317758083343506,0.0,0.0,0.0,0.0,0.0,0.0,0.0,0.0,0.0,-42.56877517700195,0.6077097058296204,-0.5398821830749512,0.0,0.0,0.0,0.0,0.0,0.0,0.0,0.0,0.0,-0.009008273482322693,0.008526179939508438,0.054814182221889496,0.0,0.0,0.0,0.0,0.0,0.0,0.0,0.0,0.0
1606990591745658634,3716240,1606986990802036657,imu_link,-0.0024648800026625395,0.006651635747402906,-0.3629649877548218,0.9317758083343506,0.0,0.0,0.0,0.0,0.0,0.0,0.0,0.0,0.0,-42.56877517700195,0.6077097058296204,-0.5398821830749512,0.0,0.0,0.0,0.0,0.0,0.0,0.0,0.0,0.0,-0.009008273482322693,0.008526179939508438,0.054814182221889496,0.0,0.0,0.0,0.0,0.0,0.0,0.0,0.0,0.0
1606990591745695421,3716241,1606986990802117574,imu_link,-0.0024671973660588264,0.006652063224464655,-0.36296412348747253,0.9317761063575745,0.0,0.0,0.0,0.0,0.0,0.0,0.0,0.0,0.0,-42.56867218017578,0.6076593399047852,-0.5401468276977539,0.0,0.0,0.0,0.0,0.0,0.0,0.0,0.0,0.0,-0.010607859119772911,-0.005734664388000965,0.04653097689151764,0.0,0.0,0.0,0.0,0.0,0.0,0.0,0.0,0.0
1606990591745708214,3716242,1606986990802189891,imu_link,-0.0024671973660588264,0.006652063224464655,-0.36296412348747253,0.9317761063575745,0.0,0.0,0.0,0.0,0.0,0.0,0.0,0.0,0.0,-42.56867218017578,0.6076593399047852,-0.5401468276977539,0.0,0.0,0.0,0.0,0.0,0.0,0.0,0.0,0.0,-0.010607859119772911,-0.005734664388000965,0.04653097689151764,0.0,0.0,0.0,0.0,0.0,0.0,0.0,0.0,0.0
1606990591745720890,3716243,1606986990802270217,imu_link,-0.002464683959260583,0.006652496755123138,-0.36296436190605164,0.9317759871482849,0.0,0.0,0.0,0.0,0.0,0.0,0.0,0.0,0.0,-42.568702697753906,0.6078100800514221,-0.5398967266082764,0.0,0.0,0.0,0.0,0.0,0.0,0.0,0.0,0.0,-0.008622168563306332,0.014387056231498718,0.04518890380859375,0.0,0.0,0.0,0.0,0.0,0.0,0.0,0.0,0.0
1606990591806209018,3716244,1606986990814206852,imu_link,-0.002464683959260583,0.006652496755123138,-0.36296436190605164,0.9317759871482849,0.0,0.0,0.0,0.0,0.0,0.0,0.0,0.0,0.0,-42.568702697753906,0.6078100800514221,-0.5398967266082764,0.0,0.0,0.0,0.0,0.0,0.0,0.0,0.0,0.0,-0.008622168563306332,0.014387056231498718,0.04518890380859375,0.0,0.0,0.0,0.0,0.0,0.0,0.0,0.0,0.0
1606990591806267792,3716245,1606986990814345598,imu_link,-0.002468557795509696,0.006654784549027681,-0.3629642426967621,0.9317760467529297,0.0,0.0,0.0,0.0,0.0,0.0,0.0,0.0,0.0,-42.568695068359375,0.6078932881355286,-0.5404053926467896,0.0,0.0,0.0,0.0,0.0,0.0,0.0,0.0,0.0,-0.015062571503221989,0.01927909441292286,0.038294918835163116,0.0,0.0,0.0,0.0,0.0,0.0,0.0,0.0,0.0
1606990591806286430,3716246,1606986990814501063,imu_link,-0.002468557795509696,0.006654784549027681,-0.3629642426967621,0.9317760467529297,0.0,0.0,0.0,0.0,0.0,0.0,0.0,0.0,0.0,-42.568695068359375,0.6078932881355286,-0.5404053926467896,0.0,0.0,0.0,0.0,0.0,0.0,0.0,0.0,0.0,-0.015062571503221989,0.01927909441292286,0.038294918835163116,0.0,0.0,0.0,0.0,0.0,0.0,0.0,0.0,0.0
1606990591806325009,3716247,1606986990814594294,imu_link,-0.002467612037435174,0.006657017860561609,-0.36296528577804565,0.9317756295204163,0.0,0.0,0.0,0.0,0.0,0.0,0.0,0.0,0.0,-42.568824768066406,0.6081705093383789,-0.5403980016708374,0.0,0.0,0.0,0.0,0.0,0.0,0.0,0.0,0.0,-0.0008672444964759052,-0.0026107756420969963,0.018044888973236084,0.0,0.0,0.0,0.0,0.0,0.0,0.0,0.0,0.0
1606990591806342507,3716248,1606986990814681962,imu_link,-0.002467612037435174,0.006657017860561609,-0.36296528577804565,0.9317756295204163,0.0,0.0,0.0,0.0,0.0,0.0,0.0,0.0,0.0,-42.568824768066406,0.6081705093383789,-0.5403980016708374,0.0,0.0,0.0,0.0,0.0,0.0,0.0,0.0,0.0,-0.0008672444964759052,-0.0026107756420969963,0.018044888973236084,0.0,0.0,0.0,0.0,0.0,0.0,0.0,0.0,0.0
1606990591819931104,3716249,1606986990814784760,imu_link,-0.0024665887467563152,0.0066545079462230206,-0.362964928150177,0.9317758083343506,0.0,0.0,0.0,0.0,0.0,0.0,0.0,0.0,0.0,-42.56877517700195,0.6079453229904175,-0.5401840806007385,0.0,0.0,0.0,0.0,0.0,0.0,0.0,0.0,0.0,0.016374705359339714,-0.008937308564782143,0.025826992467045784,0.0,0.0,0.0,0.0,0.0,0.0,0.0,0.0,0.0
1606990591819953978,3716250,1606986990814867677,imu_link,-0.0024665887467563152,0.0066545079462230206,-0.362964928150177,0.9317758083343506,0.0,0.0,0.0,0.0,0.0,0.0,0.0,0.0,0.0,-42.56877517700195,0.6079453229904175,-0.5401840806007385,0.0,0.0,0.0,0.0,0.0,0.0,0.0,0.0,0.0,0.016374705359339714,-0.008937308564782143,0.025826992467045784,0.0,0.0,0.0,0.0,0.0,0.0,0.0,0.0,0.0
1606990591819966206,3716251,1606986990814983610,imu_link,-0.002466789213940501,0.0066576311364769936,-0.36296314001083374,0.9317764639854431,0.0,0.0,0.0,0.0,0.0,0.0,0.0,0.0,0.0,-42.56855773925781,0.6082714796066284,-0.5403343439102173,0.0,0.0,0.0,0.0,0.0,0.0,0.0,0.0,0.0,0.008147526532411575,-0.010681807063519955,0.036229997873306274,0.0,0.0,0.0,0.0,0.0,0.0,0.0,0.0,0.0
1606990591819974045,3716252,1606986990815068386,imu_link,-0.002466789213940501,0.0066576311364769936,-0.36296314001083374,0.9317764639854431,0.0,0.0,0.0,0.0,0.0,0.0,0.0,0.0,0.0,-42.56855773925781,0.6082714796066284,-0.5403343439102173,0.0,0.0,0.0,0.0,0.0,0.0,0.0,0.0,0.0,0.008147526532411575,-0.010681807063519955,0.036229997873306274,0.0,0.0,0.0,0.0,0.0,0.0,0.0,0.0,0.0
1606990591860732292,3716253,1606986990815146312,imu_link,-0.0024637426249682903,0.006658558268100023,-0.36296215653419495,0.9317768216133118,0.0,0.0,0.0,0.0,0.0,0.0,0.0,0.0,0.0,-42.56843948364258,0.6084977388381958,-0.5400469303131104,0.0,0.0,0.0,0.0,0.0,0.0,0.0,0.0,0.0,-0.006131714675575495,-0.0036306290421634912,0.02755141071975231,0.0,0.0,0.0,0.0,0.0,0.0,0.0,0.0,0.0
1606990591860780182,3716254,1606986990827964717,imu_link,-0.0024637426249682903,0.006658558268100023,-0.36296215653419495,0.9317768216133118,0.0,0.0,0.0,0.0,0.0,0.0,0.0,0.0,0.0,-42.56843948364258,0.6084977388381958,-0.5400469303131104,0.0,0.0,0.0,0.0,0.0,0.0,0.0,0.0,0.0,-0.006131714675575495,-0.0036306290421634912,0.02755141071975231,0.0,0.0,0.0,0.0,0.0,0.0,0.0,0.0,0.0
1606990591860816170,3716255,1606986990828106460,imu_link,-0.002464515157043934,0.006658378057181835,-0.3629632294178009,0.9317764043807983,0.0,0.0,0.0,0.0,0.0,0.0,0.0,0.0,0.0,-42.568572998046875,0.6084457039833069,-0.5401226282119751,0.0,0.0,0.0,0.0,0.0,0.0,0.0,0.0,0.0,-0.018660476431250572,0.0033661634661257267,-0.0026252656243741512,0.0,0.0,0.0,0.0,0.0,0.0,0.0,0.0,0.0
1606990591860838732,3716256,1606986990828245362,imu_link,-0.002464515157043934,0.006658378057181835,-0.3629632294178009,0.9317764043807983,0.0,0.0,0.0,0.0,0.0,0.0,0.0,0.0,0.0,-42.568572998046875,0.6084457039833069,-0.5401226282119751,0.0,0.0,0.0,0.0,0.0,0.0,0.0,0.0,0.0,-0.018660476431250572,0.0033661634661257267,-0.0026252656243741512,0.0,0.0,0.0,0.0,0.0,0.0,0.0,0.0,0.0
1606990591860855848,3716257,1606986990828339550,imu_link,-0.0024640606716275215,0.006659162230789661,-0.36296337842941284,0.9317764043807983,0.0,0.0,0.0,0.0,0.0,0.0,0.0,0.0,0.0,-42.56858825683594,0.6085482835769653,-0.5401067733764648,0.0,0.0,0.0,0.0,0.0,0.0,0.0,0.0,0.0,-0.008197920396924019,-0.0039456612430512905,0.008465384133160114,0.0,0.0,0.0,0.0,0.0,0.0,0.0,0.0,0.0
1606990591874764660,3716258,1606986990828423855,imu_link,-0.0024640606716275215,0.006659162230789661,-0.36296337842941284,0.9317764043807983,0.0,0.0,0.0,0.0,0.0,0.0,0.0,0.0,0.0,-42.56858825683594,0.6085482835769653,-0.5401067733764648,0.0,0.0,0.0,0.0,0.0,0.0,0.0,0.0,0.0,-0.008197920396924019,-0.0039456612430512905,0.008465384133160114,0.0,0.0,0.0,0.0,0.0,0.0,0.0,0.0,0.0
1606990591874798822,3716259,1606986990828507017,imu_link,-0.002462459495291114,0.00665928702801466,-0.36296308040618896,0.9317765235900879,0.0,0.0,0.0,0.0,0.0,0.0,0.0,0.0,0.0,-42.568546295166016,0.6086284518241882,-0.5399407744407654,0.0,0.0,0.0,0.0,0.0,0.0,0.0,0.0,0.0,0.013235194608569145,-0.0011698200833052397,0.06180134043097496,0.0,0.0,0.0,0.0,0.0,0.0,0.0,0.0,0.0
1606990591874821023,3716260,1606986990828620104,imu_link,-0.002462459495291114,0.00665928702801466,-0.36296308040618896,0.9317765235900879,0.0,0.0,0.0,0.0,0.0,0.0,0.0,0.0,0.0,-42.568546295166016,0.6086284518241882,-0.5399407744407654,0.0,0.0,0.0,0.0,0.0,0.0,0.0,0.0,0.0,0.013235194608569145,-0.0011698200833052397,0.06180134043097496,0.0,0.0,0.0,0.0,0.0,0.0,0.0,0.0,0.0
1606990591874864497,3716261,1606986990828701953,imu_link,-0.002460808027535677,0.00666041299700737,-0.3629617691040039,0.9317770600318909,0.0,0.0,0.0,0.0,0.0,0.0,0.0,0.0,0.0,-42.56838607788086,0.6088181734085083,-0.5398104190826416,0.0,0.0,0.0,0.0,0.0,0.0,0.0,0.0,0.0,-0.004615542944520712,-0.0039108009077608585,0.08450973778963089,0.0,0.0,0.0,0.0,0.0,0.0,0.0,0.0,0.0
1606990591942323676,3716262,1606986990828868223,imu_link,-0.002460808027535677,0.00666041299700737,-0.3629617691040039,0.9317770600318909,0.0,0.0,0.0,0.0,0.0,0.0,0.0,0.0,0.0,-42.56838607788086,0.6088181734085083,-0.5398104190826416,0.0,0.0,0.0,0.0,0.0,0.0,0.0,0.0,0.0,-0.004615542944520712,-0.0039108009077608585,0.08450973778963089,0.0,0.0,0.0,0.0,0.0,0.0,0.0,0.0,0.0
1606990591942361509,3716263,1606986990828952047,imu_link,-0.002461846685037017,0.006661311257630587,-0.3629630506038666,0.9317765235900879,0.0,0.0,0.0,0.0,0.0,0.0,0.0,0.0,0.0,-42.568546295166016,0.6088700890541077,-0.5399594306945801,0.0,0.0,0.0,0.0,0.0,0.0,0.0,0.0,0.0,-0.011484405025839806,-0.00018189637921750546,0.07004132121801376,0.0,0.0,0.0,0.0,0.0,0.0,0.0,0.0,0.0
1606990591942373380,3716264,1606986990829034062,imu_link,-0.002461846685037017,0.006661311257630587,-0.3629630506038666,0.9317765235900879,0.0,0.0,0.0,0.0,0.0,0.0,0.0,0.0,0.0,-42.568546295166016,0.6088700890541077,-0.5399594306945801,0.0,0.0,0.0,0.0,0.0,0.0,0.0,0.0,0.0,-0.011484405025839806,-0.00018189637921750546,0.07004132121801376,0.0,0.0,0.0,0.0,0.0,0.0,0.0,0.0,0.0
1606990591942386860,3716265,1606986990841452362,imu_link,-0.0024609710089862347,0.006659205071628094,-0.3629605770111084,0.9317775368690491,0.0,0.0,0.0,0.0,0.0,0.0,0.0,0.0,0.0,-42.568241119384766,0.6086831092834473,-0.5397767424583435,0.0,0.0,0.0,0.0,0.0,0.0,0.0,0.0,0.0,-0.004373908508569002,0.012981129810214043,0.047228336334228516,0.0,0.0,0.0,0.0,0.0,0.0,0.0,0.0,0.0
1606990591942402882,3716266,1606986990841591499,imu_link,-0.0024609710089862347,0.006659205071628094,-0.3629605770111084,0.9317775368690491,0.0,0.0,0.0,0.0,0.0,0.0,0.0,0.0,0.0,-42.568241119384766,0.6086831092834473,-0.5397767424583435,0.0,0.0,0.0,0.0,0.0,0.0,0.0,0.0,0.0,-0.004373908508569002,0.012981129810214043,0.047228336334228516,0.0,0.0,0.0,0.0,0.0,0.0,0.0,0.0,0.0
1606990591953006989,3716267,1606986990841737246,imu_link,-0.0024609845131635666,0.0066589126363396645,-0.3629593849182129,0.9317779541015625,0.0,0.0,0.0,0.0,0.0,0.0,0.0,0.0,0.0,-42.568092346191406,0.6086519360542297,-0.5397652983665466,0.0,0.0,0.0,0.0,0.0,0.0,0.0,0.0,0.0,-0.002319339895620942,0.0052096666768193245,0.04765097051858902,0.0,0.0,0.0,0.0,0.0,0.0,0.0,0.0,0.0
1606990591953026151,3716268,1606986990841830001,imu_link,-0.0024609845131635666,0.0066589126363396645,-0.3629593849182129,0.9317779541015625,0.0,0.0,0.0,0.0,0.0,0.0,0.0,0.0,0.0,-42.568092346191406,0.6086519360542297,-0.5397652983665466,0.0,0.0,0.0,0.0,0.0,0.0,0.0,0.0,0.0,-0.002319339895620942,0.0052096666768193245,0.04765097051858902,0.0,0.0,0.0,0.0,0.0,0.0,0.0,0.0,0.0
1606990591953042210,3716269,1606986990841913013,imu_link,-0.002461507683619857,0.0066589429043233395,-0.36295896768569946,0.9317781329154968,0.0,0.0,0.0,0.0,0.0,0.0,0.0,0.0,0.0,-42.56804275512695,0.6086336970329285,-0.5398221015930176,0.0,0.0,0.0,0.0,0.0,0.0,0.0,0.0,0.0,0.0034731863997876644,0.011683518067002296,0.06760335713624954,0.0,0.0,0.0,0.0,0.0,0.0,0.0,0.0,0.0
1606990591953057522,3716270,1606986990841995338,imu_link,-0.002461507683619857,0.0066589429043233395,-0.36295896768569946,0.9317781329154968,0.0,0.0,0.0,0.0,0.0,0.0,0.0,0.0,0.0,-42.56804275512695,0.6086336970329285,-0.5398221015930176,0.0,0.0,0.0,0.0,0.0,0.0,0.0,0.0,0.0,0.0034731863997876644,0.011683518067002296,0.06760335713624954,0.0,0.0,0.0,0.0,0.0,0.0,0.0,0.0,0.0
1606990591974766996,3716271,1606986990842091220,imu_link,-0.002461507683619857,0.0066589429043233395,-0.36295896768569946,0.9317781329154968,0.0,0.0,0.0,0.0,0.0,0.0,0.0,0.0,0.0,-42.56804275512695,0.6086336970329285,-0.5398221015930176,0.0,0.0,0.0,0.0,0.0,0.0,0.0,0.0,0.0,-0.008286569267511368,0.01342853344976902,0.058273814618587494,0.0,0.0,0.0,0.0,0.0,0.0,0.0,0.0,0.0
1606990591974791396,3716272,1606986990842171421,imu_link,-0.002461507683619857,0.0066589429043233395,-0.36295896768569946,0.9317781329154968,0.0,0.0,0.0,0.0,0.0,0.0,0.0,0.0,0.0,-42.56804275512695,0.6086336970329285,-0.5398221015930176,0.0,0.0,0.0,0.0,0.0,0.0,0.0,0.0,0.0,-0.008286569267511368,0.01342853344976902,0.058273814618587494,0.0,0.0,0.0,0.0,0.0,0.0,0.0,0.0,0.0
1606990591974805665,3716273,1606986990842341078,imu_link,-0.0024639498442411423,0.006656297016888857,-0.3629570007324219,0.9317788481712341,0.0,0.0,0.0,0.0,0.0,0.0,0.0,0.0,0.0,-42.56779861450195,0.608250617980957,-0.5399715900421143,0.0,0.0,0.0,0.0,0.0,0.0,0.0,0.0,0.0,-0.007864894345402718,-0.005825231783092022,0.047948792576789856,0.0,0.0,0.0,0.0,0.0,0.0,0.0,0.0,0.0
1606990591974817663,3716274,1606986990842426842,imu_link,-0.0024639498442411423,0.006656297016888857,-0.3629570007324219,0.9317788481712341,0.0,0.0,0.0,0.0,0.0,0.0,0.0,0.0,0.0,-42.56779861450195,0.608250617980957,-0.5399715900421143,0.0,0.0,0.0,0.0,0.0,0.0,0.0,0.0,0.0,-0.007864894345402718,-0.005825231783092022,0.047948792576789856,0.0,0.0,0.0,0.0,0.0,0.0,0.0,0.0,0.0
1606990591979692131,3716275,1606986990842499555,imu_link,-0.0024635635782033205,0.0066552311182022095,-0.3629564046859741,0.9317790865898132,0.0,0.0,0.0,0.0,0.0,0.0,0.0,0.0,0.0,-42.56772232055664,0.6081532835960388,-0.5398856401443481,0.0,0.0,0.0,0.0,0.0,0.0,0.0,0.0,0.0,0.009754386730492115,-0.006272485479712486,0.053958214819431305,0.0,0.0,0.0,0.0,0.0,0.0,0.0,0.0,0.0
1606990591979744428,3716276,1606986990855239900,imu_link,-0.0024635635782033205,0.0066552311182022095,-0.3629564046859741,0.9317790865898132,0.0,0.0,0.0,0.0,0.0,0.0,0.0,0.0,0.0,-42.56772232055664,0.6081532835960388,-0.5398856401443481,0.0,0.0,0.0,0.0,0.0,0.0,0.0,0.0,0.0,0.009754386730492115,-0.006272485479712486,0.053958214819431305,0.0,0.0,0.0,0.0,0.0,0.0,0.0,0.0,0.0
1606990591979754652,3716277,1606986990855378185,imu_link,-0.0024626883678138256,0.006654467433691025,-0.3629533648490906,0.9317803382873535,0.0,0.0,0.0,0.0,0.0,0.0,0.0,0.0,0.0,-42.56734848022461,0.6081098914146423,-0.5397583842277527,0.0,0.0,0.0,0.0,0.0,0.0,0.0,0.0,0.0,-0.00041430359124206007,0.0036425478756427765,0.032687973231077194,0.0,0.0,0.0,0.0,0.0,0.0,0.0,0.0,0.0
1606990591979770394,3716278,1606986990855539774,imu_link,-0.0024626883678138256,0.006654467433691025,-0.3629533648490906,0.9317803382873535,0.0,0.0,0.0,0.0,0.0,0.0,0.0,0.0,0.0,-42.56734848022461,0.6081098914146423,-0.5397583842277527,0.0,0.0,0.0,0.0,0.0,0.0,0.0,0.0,0.0,-0.00041430359124206007,0.0036425478756427765,0.032687973231077194,0.0,0.0,0.0,0.0,0.0,0.0,0.0,0.0,0.0
1606990591979776558,3716279,1606986990855634143,imu_link,-0.0024642026983201504,0.0066525256261229515,-0.3629515767097473,0.931780993938446,0.0,0.0,0.0,0.0,0.0,0.0,0.0,0.0,0.0,-42.567134857177734,0.6078405976295471,-0.5398381948471069,0.0,0.0,0.0,0.0,0.0,0.0,0.0,0.0,0.0,-0.017567168921232224,-0.0004891537828370929,0.03312039002776146,0.0,0.0,0.0,0.0,0.0,0.0,0.0,0.0,0.0
1606990592048378387,3716280,1606986990855719635,imu_link,-0.0024642026983201504,0.0066525256261229515,-0.3629515767097473,0.931780993938446,0.0,0.0,0.0,0.0,0.0,0.0,0.0,0.0,0.0,-42.567134857177734,0.6078405976295471,-0.5398381948471069,0.0,0.0,0.0,0.0,0.0,0.0,0.0,0.0,0.0,-0.017567168921232224,-0.0004891537828370929,0.03312039002776146,0.0,0.0,0.0,0.0,0.0,0.0,0.0,0.0,0.0
1606990592048405401,3716281,1606986990855824268,imu_link,-0.002467451384291053,0.006649674382060766,-0.36295148730278015,0.9317810535430908,0.0,0.0,0.0,0.0,0.0,0.0,0.0,0.0,0.0,-42.56712341308594,0.6074010729789734,-0.5400663614273071,0.0,0.0,0.0,0.0,0.0,0.0,0.0,0.0,0.0,-0.005831178277730942,-0.023483162745833397,0.060322243720293045,0.0,0.0,0.0,0.0,0.0,0.0,0.0,0.0,0.0
1606990592048431831,3716282,1606986990855908954,imu_link,-0.002467451384291053,0.006649674382060766,-0.36295148730278015,0.9317810535430908,0.0,0.0,0.0,0.0,0.0,0.0,0.0,0.0,0.0,-42.56712341308594,0.6074010729789734,-0.5400663614273071,0.0,0.0,0.0,0.0,0.0,0.0,0.0,0.0,0.0,-0.005831178277730942,-0.023483162745833397,0.060322243720293045,0.0,0.0,0.0,0.0,0.0,0.0,0.0,0.0,0.0
1606990592048451866,3716283,1606986990855990307,imu_link,-0.0024675088934600353,0.0066497172228991985,-0.3629505932331085,0.9317814111709595,0.0,0.0,0.0,0.0,0.0,0.0,0.0,0.0,0.0,-42.56700897216797,0.6074037551879883,-0.5400736331939697,0.0,0.0,0.0,0.0,0.0,0.0,0.0,0.0,0.0,0.008876168169081211,-0.0273999385535717,0.055977605283260345,0.0,0.0,0.0,0.0,0.0,0.0,0.0,0.0,0.0
1606990592057004552,3716284,1606986990856068954,imu_link,-0.0024675088934600353,0.0066497172228991985,-0.3629505932331085,0.9317814111709595,0.0,0.0,0.0,0.0,0.0,0.0,0.0,0.0,0.0,-42.56700897216797,0.6074037551879883,-0.5400736331939697,0.0,0.0,0.0,0.0,0.0,0.0,0.0,0.0,0.0,0.008876168169081211,-0.0273999385535717,0.055977605283260345,0.0,0.0,0.0,0.0,0.0,0.0,0.0,0.0,0.0
1606990592057039732,3716285,1606986990856149074,imu_link,-0.0024657361209392548,0.006651534698903561,-0.3629489541053772,0.931782066822052,0.0,0.0,0.0,0.0,0.0,0.0,0.0,0.0,0.0,-42.566802978515625,0.6076725721359253,-0.5399588942527771,0.0,0.0,0.0,0.0,0.0,0.0,0.0,0.0,0.0,0.013353387825191021,-0.006885790266096592,0.051864564418792725,0.0,0.0,0.0,0.0,0.0,0.0,0.0,0.0,0.0
1606990592057061308,3716286,1606986990856227837,imu_link,-0.0024657361209392548,0.006651534698903561,-0.3629489541053772,0.931782066822052,0.0,0.0,0.0,0.0,0.0,0.0,0.0,0.0,0.0,-42.566802978515625,0.6076725721359253,-0.5399588942527771,0.0,0.0,0.0,0.0,0.0,0.0,0.0,0.0,0.0,0.013353387825191021,-0.006885790266096592,0.051864564418792725,0.0,0.0,0.0,0.0,0.0,0.0,0.0,0.0,0.0
1606990592057076371,3716287,1606986990868166095,imu_link,-0.0024675745517015457,0.006651206873357296,-0.36295077204704285,0.9317813515663147,0.0,0.0,0.0,0.0,0.0,0.0,0.0,0.0,0.0,-42.56703567504883,0.6075600385665894,-0.5401427745819092,0.0,0.0,0.0,0.0,0.0,0.0,0.0,0.0,0.0,0.005669168662279844,-0.009084210731089115,0.056645605713129044,0.0,0.0,0.0,0.0,0.0,0.0,0.0,0.0,0.0
1606990592057096361,3716288,1606986990868308765,imu_link,-0.0024675745517015457,0.006651206873357296,-0.36295077204704285,0.9317813515663147,0.0,0.0,0.0,0.0,0.0,0.0,0.0,0.0,0.0,-42.56703567504883,0.6075600385665894,-0.5401427745819092,0.0,0.0,0.0,0.0,0.0,0.0,0.0,0.0,0.0,0.005669168662279844,-0.009084210731089115,0.056645605713129044,0.0,0.0,0.0,0.0,0.0,0.0,0.0,0.0,0.0
1606990592087490969,3716289,1606986990868462987,imu_link,-0.002465703058987856,0.006650203373283148,-0.3629499673843384,0.9317816495895386,0.0,0.0,0.0,0.0,0.0,0.0,0.0,0.0,0.0,-42.566925048828125,0.6075311303138733,-0.5399007201194763,0.0,0.0,0.0,0.0,0.0,0.0,0.0,0.0,0.0,-0.010278726927936077,-0.02196626365184784,0.04504627361893654,0.0,0.0,0.0,0.0,0.0,0.0,0.0,0.0,0.0
1606990592087544439,3716290,1606986990868557075,imu_link,-0.002465703058987856,0.006650203373283148,-0.3629499673843384,0.9317816495895386,0.0,0.0,0.0,0.0,0.0,0.0,0.0,0.0,0.0,-42.566925048828125,0.6075311303138733,-0.5399007201194763,0.0,0.0,0.0,0.0,0.0,0.0,0.0,0.0,0.0,-0.010278726927936077,-0.02196626365184784,0.04504627361893654,0.0,0.0,0.0,0.0,0.0,0.0,0.0,0.0,0.0
1606990592087604865,3716291,1606986990868637752,imu_link,-0.0024665803648531437,0.006651471834629774,-0.3629499673843384,0.9317816495895386,0.0,0.0,0.0,0.0,0.0,0.0,0.0,0.0,0.0,-42.566932678222656,0.6076300740242004,-0.5400471091270447,0.0,0.0,0.0,0.0,0.0,0.0,0.0,0.0,0.0,-0.0091796163469553,-0.01201603002846241,0.03590961918234825,0.0,0.0,0.0,0.0,0.0,0.0,0.0,0.0,0.0
1606990592087619295,3716292,1606986990868739392,imu_link,-0.0024665803648531437,0.006651471834629774,-0.3629499673843384,0.9317816495895386,0.0,0.0,0.0,0.0,0.0,0.0,0.0,0.0,0.0,-42.566932678222656,0.6076300740242004,-0.5400471091270447,0.0,0.0,0.0,0.0,0.0,0.0,0.0,0.0,0.0,-0.0091796163469553,-0.01201603002846241,0.03590961918234825,0.0,0.0,0.0,0.0,0.0,0.0,0.0,0.0,0.0
1606990592091652669,3716293,1606986990868822570,imu_link,-0.002463703276589513,0.006649609189480543,-0.36295172572135925,0.931780993938446,0.0,0.0,0.0,0.0,0.0,0.0,0.0,0.0,0.0,-42.56714630126953,0.6075499653816223,-0.539663553237915,0.0,0.0,0.0,0.0,0.0,0.0,0.0,0.0,0.0,-0.004586925730109215,-0.013506485149264336,0.07201310247182846,0.0,0.0,0.0,0.0,0.0,0.0,0.0,0.0,0.0
1606990592091698105,3716294,1606986990868896651,imu_link,-0.002463703276589513,0.006649609189480543,-0.36295172572135925,0.931780993938446,0.0,0.0,0.0,0.0,0.0,0.0,0.0,0.0,0.0,-42.56714630126953,0.6075499653816223,-0.539663553237915,0.0,0.0,0.0,0.0,0.0,0.0,0.0,0.0,0.0,-0.004586925730109215,-0.013506485149264336,0.07201310247182846,0.0,0.0,0.0,0.0,0.0,0.0,0.0,0.0,0.0
1606990592091770188,3716295,1606986990868977032,imu_link,-0.002463055308908224,0.006650230847299099,-0.36295315623283386,0.9317804574966431,0.0,0.0,0.0,0.0,0.0,0.0,0.0,0.0,0.0,-42.56732177734375,0.607642412185669,-0.5396211743354797,0.0,0.0,0.0,0.0,0.0,0.0,0.0,0.0,0.0,-0.006135530304163694,-0.009032869711518288,0.06726329028606415,0.0,0.0,0.0,0.0,0.0,0.0,0.0,0.0,0.0
1606990592091793584,3716296,1606986990869056536,imu_link,-0.002463055308908224,0.006650230847299099,-0.36295315623283386,0.9317804574966431,0.0,0.0,0.0,0.0,0.0,0.0,0.0,0.0,0.0,-42.56732177734375,0.607642412185669,-0.5396211743354797,0.0,0.0,0.0,0.0,0.0,0.0,0.0,0.0,0.0,-0.006135530304163694,-0.009032869711518288,0.06726329028606415,0.0,0.0,0.0,0.0,0.0,0.0,0.0,0.0,0.0
1606990592091822141,3716297,1606986990881606455,imu_link,-0.002463181735947728,0.00664786109700799,-0.3629534840583801,0.9317803382873535,0.0,0.0,0.0,0.0,0.0,0.0,0.0,0.0,0.0,-42.56735610961914,0.6073839068412781,-0.5395362973213196,0.0,0.0,0.0,0.0,0.0,0.0,0.0,0.0,0.0,0.0037914772983640432,-0.000998806906864047,0.02615741826593876,0.0,0.0,0.0,0.0,0.0,0.0,0.0,0.0,0.0
1606990592148654509,3716298,1606986990881750353,imu_link,-0.002463181735947728,0.00664786109700799,-0.3629534840583801,0.9317803382873535,0.0,0.0,0.0,0.0,0.0,0.0,0.0,0.0,0.0,-42.56735610961914,0.6073839068412781,-0.5395362973213196,0.0,0.0,0.0,0.0,0.0,0.0,0.0,0.0,0.0,0.0037914772983640432,-0.000998806906864047,0.02615741826593876,0.0,0.0,0.0,0.0,0.0,0.0,0.0,0.0,0.0
1606990592148678651,3716299,1606986990881892783,imu_link,-0.00246235029771924,0.006648027338087559,-0.36295169591903687,0.9317810535430908,0.0,0.0,0.0,0.0,0.0,0.0,0.0,0.0,0.0,-42.567134857177734,0.6074373126029968,-0.5394532084465027,0.0,0.0,0.0,0.0,0.0,0.0,0.0,0.0,0.0,0.013210206292569637,-0.00481506297364831,0.042093049734830856,0.0,0.0,0.0,0.0,0.0,0.0,0.0,0.0,0.0
1606990592148691801,3716300,1606986990881989597,imu_link,-0.00246235029771924,0.006648027338087559,-0.36295169591903687,0.9317810535430908,0.0,0.0,0.0,0.0,0.0,0.0,0.0,0.0,0.0,-42.567134857177734,0.6074373126029968,-0.5394532084465027,0.0,0.0,0.0,0.0,0.0,0.0,0.0,0.0,0.0,0.013210206292569637,-0.00481506297364831,0.042093049734830856,0.0,0.0,0.0,0.0,0.0,0.0,0.0,0.0,0.0
1606990592148732581,3716301,1606986990882072845,imu_link,-0.002460596850141883,0.006649370305240154,-0.36295250058174133,0.9317807555198669,0.0,0.0,0.0,0.0,0.0,0.0,0.0,0.0,0.0,-42.567237854003906,0.6076532006263733,-0.5393223762512207,0.0,0.0,0.0,0.0,0.0,0.0,0.0,0.0,0.0,0.0005155074177309871,0.009552272036671638,0.06087249517440796,0.0,0.0,0.0,0.0,0.0,0.0,0.0,0.0,0.0
1606990592156671996,3716302,1606986990882157190,imu_link,-0.002460596850141883,0.006649370305240154,-0.36295250058174133,0.9317807555198669,0.0,0.0,0.0,0.0,0.0,0.0,0.0,0.0,0.0,-42.567237854003906,0.6076532006263733,-0.5393223762512207,0.0,0.0,0.0,0.0,0.0,0.0,0.0,0.0,0.0,0.0005155074177309871,0.009552272036671638,0.06087249517440796,0.0,0.0,0.0,0.0,0.0,0.0,0.0,0.0,0.0
1606990592156705892,3716303,1606986990882257547,imu_link,-0.0024616464506834745,0.006650762632489204,-0.362949401140213,0.9317819476127625,0.0,0.0,0.0,0.0,0.0,0.0,0.0,0.0,0.0,-42.566856384277344,0.6077600121498108,-0.5394903421401978,0.0,0.0,0.0,0.0,0.0,0.0,0.0,0.0,0.0,-0.0057672676630318165,0.01524691004306078,0.04037727788090706,0.0,0.0,0.0,0.0,0.0,0.0,0.0,0.0,0.0
1606990592156735805,3716304,1606986990882338259,imu_link,-0.0024616464506834745,0.006650762632489204,-0.362949401140213,0.9317819476127625,0.0,0.0,0.0,0.0,0.0,0.0,0.0,0.0,0.0,-42.566856384277344,0.6077600121498108,-0.5394903421401978,0.0,0.0,0.0,0.0,0.0,0.0,0.0,0.0,0.0,-0.0057672676630318165,0.01524691004306078,0.04037727788090706,0.0,0.0,0.0,0.0,0.0,0.0,0.0,0.0,0.0
1606990592156755779,3716305,1606986990882505701,imu_link,-0.002463324461132288,0.006651036441326141,-0.3629489541053772,0.9317820072174072,0.0,0.0,0.0,0.0,0.0,0.0,0.0,0.0,0.0,-42.56680679321289,0.6077196598052979,-0.5396807193756104,0.0,0.0,0.0,0.0,0.0,0.0,0.0,0.0,0.0,0.0009359642863273621,0.007115634623914957,0.04163367673754692,0.0,0.0,0.0,0.0,0.0,0.0,0.0,0.0,0.0
1606990592156772312,3716306,1606986990882589601,imu_link,-0.002463324461132288,0.006651036441326141,-0.3629489541053772,0.9317820072174072,0.0,0.0,0.0,0.0,0.0,0.0,0.0,0.0,0.0,-42.56680679321289,0.6077196598052979,-0.5396807193756104,0.0,0.0,0.0,0.0,0.0,0.0,0.0,0.0,0.0,0.0009359642863273621,0.007115634623914957,0.04163367673754692,0.0,0.0,0.0,0.0,0.0,0.0,0.0,0.0,0.0
1606990592166982448,3716307,1606986990882668694,imu_link,-0.0024627766106277704,0.006650548428297043,-0.3629482090473175,0.9317823052406311,0.0,0.0,0.0,0.0,0.0,0.0,0.0,0.0,0.0,-42.56671142578125,0.6076907515525818,-0.5396013259887695,0.0,0.0,0.0,0.0,0.0,0.0,0.0,0.0,0.0,-0.014330449514091015,0.011707921512424946,0.062178418040275574,0.0,0.0,0.0,0.0,0.0,0.0,0.0,0.0,0.0
1606990592167004096,3716308,1606986990895383605,imu_link,-0.0024627766106277704,0.006650548428297043,-0.3629482090473175,0.9317823052406311,0.0,0.0,0.0,0.0,0.0,0.0,0.0,0.0,0.0,-42.56671142578125,0.6076907515525818,-0.5396013259887695,0.0,0.0,0.0,0.0,0.0,0.0,0.0,0.0,0.0,-0.014330449514091015,0.011707921512424946,0.062178418040275574,0.0,0.0,0.0,0.0,0.0,0.0,0.0,0.0,0.0
1606990592167017323,3716309,1606986990895533827,imu_link,-0.0024644972290843725,0.006649684626609087,-0.36294758319854736,0.9317825436592102,0.0,0.0,0.0,0.0,0.0,0.0,0.0,0.0,0.0,-42.5666389465332,0.6075273156166077,-0.5397488474845886,0.0,0.0,0.0,0.0,0.0,0.0,0.0,0.0,0.0,-0.017834922298789024,0.012929808348417282,0.048715170472860336,0.0,0.0,0.0,0.0,0.0,0.0,0.0,0.0,0.0
1606990592167038206,3716310,1606986990895669306,imu_link,-0.0024644972290843725,0.006649684626609087,-0.36294758319854736,0.9317825436592102,0.0,0.0,0.0,0.0,0.0,0.0,0.0,0.0,0.0,-42.5666389465332,0.6075273156166077,-0.5397488474845886,0.0,0.0,0.0,0.0,0.0,0.0,0.0,0.0,0.0,-0.017834922298789024,0.012929808348417282,0.048715170472860336,0.0,0.0,0.0,0.0,0.0,0.0,0.0,0.0,0.0
1606990592176606320,3716311,1606986990895764446,imu_link,-0.0024648646358400583,0.006650899071246386,-0.362946093082428,0.931783139705658,0.0,0.0,0.0,0.0,0.0,0.0,0.0,0.0,0.0,-42.56645584106445,0.6076425313949585,-0.5398375988006592,0.0,0.0,0.0,0.0,0.0,0.0,0.0,0.0,0.0,0.005674223881214857,-0.0032003731466829777,0.047921694815158844,0.0,0.0,0.0,0.0,0.0,0.0,0.0,0.0,0.0
1606990592176638828,3716312,1606986990895848476,imu_link,-0.0024648646358400583,0.006650899071246386,-0.362946093082428,0.931783139705658,0.0,0.0,0.0,0.0,0.0,0.0,0.0,0.0,0.0,-42.56645584106445,0.6076425313949585,-0.5398375988006592,0.0,0.0,0.0,0.0,0.0,0.0,0.0,0.0,0.0,0.005674223881214857,-0.0032003731466829777,0.047921694815158844,0.0,0.0,0.0,0.0,0.0,0.0,0.0,0.0,0.0
1606990592176648093,3716313,1606986990895930079,imu_link,-0.0024623190984129906,0.006653202697634697,-0.36294686794281006,0.9317828416824341,0.0,0.0,0.0,0.0,0.0,0.0,0.0,0.0,0.0,-42.566551208496094,0.607994019985199,-0.5396621227264404,0.0,0.0,0.0,0.0,0.0,0.0,0.0,0.0,0.0,-0.00420720037072897,-0.022811757400631905,0.05225794389843941,0.0,0.0,0.0,0.0,0.0,0.0,0.0,0.0,0.0
1606990592176676452,3716314,1606986990896031760,imu_link,-0.0024623190984129906,0.006653202697634697,-0.36294686794281006,0.9317828416824341,0.0,0.0,0.0,0.0,0.0,0.0,0.0,0.0,0.0,-42.566551208496094,0.607994019985199,-0.5396621227264404,0.0,0.0,0.0,0.0,0.0,0.0,0.0,0.0,0.0,-0.00420720037072897,-0.022811757400631905,0.05225794389843941,0.0,0.0,0.0,0.0,0.0,0.0,0.0,0.0,0.0
1606990592176692253,3716315,1606986990896115960,imu_link,-0.0024631298147141933,0.00665434543043375,-0.36294710636138916,0.9317827820777893,0.0,0.0,0.0,0.0,0.0,0.0,0.0,0.0,0.0,-42.56658172607422,0.6080821752548218,-0.5397964119911194,0.0,0.0,0.0,0.0,0.0,0.0,0.0,0.0,0.0,-0.00868147611618042,-0.008035915903747082,0.045319367200136185,0.0,0.0,0.0,0.0,0.0,0.0,0.0,0.0,0.0
1606990592290821515,3716316,1606986990896200079,imu_link,-0.0024631298147141933,0.00665434543043375,-0.36294710636138916,0.9317827820777893,0.0,0.0,0.0,0.0,0.0,0.0,0.0,0.0,0.0,-42.56658172607422,0.6080821752548218,-0.5397964119911194,0.0,0.0,0.0,0.0,0.0,0.0,0.0,0.0,0.0,-0.00868147611618042,-0.008035915903747082,0.045319367200136185,0.0,0.0,0.0,0.0,0.0,0.0,0.0,0.0,0.0
1606990592290842331,3716317,1606986990896276551,imu_link,-0.0024633726570755243,0.0066539449617266655,-0.36294814944267273,0.9317823648452759,0.0,0.0,0.0,0.0,0.0,0.0,0.0,0.0,0.0,-42.566707611083984,0.6080287098884583,-0.5398063063621521,0.0,0.0,0.0,0.0,0.0,0.0,0.0,0.0,0.0,0.010574708692729473,0.0020795566961169243,0.07705245167016983,0.0,0.0,0.0,0.0,0.0,0.0,0.0,0.0,0.0
1606990592290858588,3716318,1606986990896361804,imu_link,-0.0024633726570755243,0.0066539449617266655,-0.36294814944267273,0.9317823648452759,0.0,0.0,0.0,0.0,0.0,0.0,0.0,0.0,0.0,-42.566707611083984,0.6080287098884583,-0.5398063063621521,0.0,0.0,0.0,0.0,0.0,0.0,0.0,0.0,0.0,0.010574708692729473,0.0020795566961169243,0.07705245167016983,0.0,0.0,0.0,0.0,0.0,0.0,0.0,0.0,0.0
1606990592290864965,3716319,1606986990908977726,imu_link,-0.0024631947744637728,0.006654030177742243,-0.36294782161712646,0.9317824840545654,0.0,0.0,0.0,0.0,0.0,0.0,0.0,0.0,0.0,-42.56666564941406,0.6080453991889954,-0.5397906303405762,0.0,0.0,0.0,0.0,0.0,0.0,0.0,0.0,0.0,0.0035283719189465046,-0.01154166366904974,0.08711763471364975,0.0,0.0,0.0,0.0,0.0,0.0,0.0,0.0,0.0
1606990592299631455,3716320,1606986990909133837,imu_link,-0.0024631947744637728,0.006654030177742243,-0.36294782161712646,0.9317824840545654,0.0,0.0,0.0,0.0,0.0,0.0,0.0,0.0,0.0,-42.56666564941406,0.6080453991889954,-0.5397906303405762,0.0,0.0,0.0,0.0,0.0,0.0,0.0,0.0,0.0,0.0035283719189465046,-0.01154166366904974,0.08711763471364975,0.0,0.0,0.0,0.0,0.0,0.0,0.0,0.0,0.0
1606990592299668647,3716321,1606986990909231588,imu_link,-0.002462439937517047,0.00665530189871788,-0.36294907331466675,0.9317820072174072,0.0,0.0,0.0,0.0,0.0,0.0,0.0,0.0,0.0,-42.56682205200195,0.6082118153572083,-0.5397638082504272,0.0,0.0,0.0,0.0,0.0,0.0,0.0,0.0,0.0,0.0013420814648270607,0.005772203207015991,0.0658053457736969,0.0,0.0,0.0,0.0,0.0,0.0,0.0,0.0,0.0
1606990592299681737,3716322,1606986990909336576,imu_link,-0.002462439937517047,0.00665530189871788,-0.36294907331466675,0.9317820072174072,0.0,0.0,0.0,0.0,0.0,0.0,0.0,0.0,0.0,-42.56682205200195,0.6082118153572083,-0.5397638082504272,0.0,0.0,0.0,0.0,0.0,0.0,0.0,0.0,0.0,0.0013420814648270607,0.005772203207015991,0.0658053457736969,0.0,0.0,0.0,0.0,0.0,0.0,0.0,0.0,0.0
1606990592299705924,3716323,1606986990909428915,imu_link,-0.002464634831994772,0.006654290482401848,-0.36294862627983093,0.9317821860313416,0.0,0.0,0.0,0.0,0.0,0.0,0.0,0.0,0.0,-42.566768646240234,0.608012855052948,-0.539955735206604,0.0,0.0,0.0,0.0,0.0,0.0,0.0,0.0,0.0,-0.00618313904851675,0.008861707523465157,0.06443459540605545,0.0,0.0,0.0,0.0,0.0,0.0,0.0,0.0,0.0
1606990592299722233,3716324,1606986990909511606,imu_link,-0.002464634831994772,0.006654290482401848,-0.36294862627983093,0.9317821860313416,0.0,0.0,0.0,0.0,0.0,0.0,0.0,0.0,0.0,-42.566768646240234,0.608012855052948,-0.539955735206604,0.0,0.0,0.0,0.0,0.0,0.0,0.0,0.0,0.0,-0.00618313904851675,0.008861707523465157,0.06443459540605545,0.0,0.0,0.0,0.0,0.0,0.0,0.0,0.0,0.0
1606990592312863165,3716325,1606986990909614640,imu_link,-0.002465412952005863,0.006654320750385523,-0.3629494607448578,0.9317818880081177,0.0,0.0,0.0,0.0,0.0,0.0,0.0,0.0,0.0,-42.566871643066406,0.6079832315444946,-0.5400406122207642,0.0,0.0,0.0,0.0,0.0,0.0,0.0,0.0,0.0,-0.0033861142583191395,-0.006798572838306427,0.06445784866809845,0.0,0.0,0.0,0.0,0.0,0.0,0.0,0.0,0.0
1606990592312893865,3716326,1606986990909698504,imu_link,-0.002465412952005863,0.006654320750385523,-0.3629494607448578,0.9317818880081177,0.0,0.0,0.0,0.0,0.0,0.0,0.0,0.0,0.0,-42.566871643066406,0.6079832315444946,-0.5400406122207642,0.0,0.0,0.0,0.0,0.0,0.0,0.0,0.0,0.0,-0.0033861142583191395,-0.006798572838306427,0.06445784866809845,0.0,0.0,0.0,0.0,0.0,0.0,0.0,0.0,0.0
1606990592312905615,3716327,1606986990909778850,imu_link,-0.0024660304188728333,0.006654613185673952,-0.362949401140213,0.9317818880081177,0.0,0.0,0.0,0.0,0.0,0.0,0.0,0.0,0.0,-42.56686782836914,0.6079887747764587,-0.5401186347007751,0.0,0.0,0.0,0.0,0.0,0.0,0.0,0.0,0.0,0.015264209359884262,-0.009347149170935154,0.038183677941560745,0.0,0.0,0.0,0.0,0.0,0.0,0.0,0.0,0.0
1606990592312915140,3716328,1606986990909855808,imu_link,-0.0024660304188728333,0.006654613185673952,-0.362949401140213,0.9317818880081177,0.0,0.0,0.0,0.0,0.0,0.0,0.0,0.0,0.0,-42.56686782836914,0.6079887747764587,-0.5401186347007751,0.0,0.0,0.0,0.0,0.0,0.0,0.0,0.0,0.0,0.015264209359884262,-0.009347149170935154,0.038183677941560745,0.0,0.0,0.0,0.0,0.0,0.0,0.0,0.0,0.0
1606990592320035145,3716329,1606986990909935046,imu_link,-0.002463091164827347,0.0066541144624352455,-0.3629496395587921,0.9317818284034729,0.0,0.0,0.0,0.0,0.0,0.0,0.0,0.0,0.0,-42.566890716552734,0.6080576777458191,-0.5397842526435852,0.0,0.0,0.0,0.0,0.0,0.0,0.0,0.0,0.0,0.02872815541923046,0.002157339360564947,0.03293178230524063,0.0,0.0,0.0,0.0,0.0,0.0,0.0,0.0,0.0
1606990592320086283,3716330,1606986990922759621,imu_link,-0.002463091164827347,0.0066541144624352455,-0.3629496395587921,0.9317818284034729,0.0,0.0,0.0,0.0,0.0,0.0,0.0,0.0,0.0,-42.566890716552734,0.6080576777458191,-0.5397842526435852,0.0,0.0,0.0,0.0,0.0,0.0,0.0,0.0,0.0,0.02872815541923046,0.002157339360564947,0.03293178230524063,0.0,0.0,0.0,0.0,0.0,0.0,0.0,0.0,0.0
1606990592320107870,3716331,1606986990922898558,imu_link,-0.0024638117756694555,0.006650736089795828,-0.36295151710510254,0.9317811131477356,0.0,0.0,0.0,0.0,0.0,0.0,0.0,0.0,0.0,-42.567115783691406,0.6076658368110657,-0.5397218465805054,0.0,0.0,0.0,0.0,0.0,0.0,0.0,0.0,0.0,0.02314114198088646,0.01902872510254383,0.04301818087697029,0.0,0.0,0.0,0.0,0.0,0.0,0.0,0.0,0.0
1606990592320118852,3716332,1606986990923058668,imu_link,-0.0024638117756694555,0.006650736089795828,-0.36295151710510254,0.9317811131477356,0.0,0.0,0.0,0.0,0.0,0.0,0.0,0.0,0.0,-42.567115783691406,0.6076658368110657,-0.5397218465805054,0.0,0.0,0.0,0.0,0.0,0.0,0.0,0.0,0.0,0.02314114198088646,0.01902872510254383,0.04301818087697029,0.0,0.0,0.0,0.0,0.0,0.0,0.0,0.0,0.0
1606990592320133796,3716333,1606986990923145810,imu_link,-0.0024657745379954576,0.006653461139649153,-0.3629528284072876,0.9317805171012878,0.0,0.0,0.0,0.0,0.0,0.0,0.0,0.0,0.0,-42.56728744506836,0.6078743934631348,-0.5400456786155701,0.0,0.0,0.0,0.0,0.0,0.0,0.0,0.0,0.0,-0.008564352989196777,0.02990962751209736,0.04514988139271736,0.0,0.0,0.0,0.0,0.0,0.0,0.0,0.0,0.0
1606990592385360965,3716334,1606986990923231629,imu_link,-0.0024657745379954576,0.006653461139649153,-0.3629528284072876,0.9317805171012878,0.0,0.0,0.0,0.0,0.0,0.0,0.0,0.0,0.0,-42.56728744506836,0.6078743934631348,-0.5400456786155701,0.0,0.0,0.0,0.0,0.0,0.0,0.0,0.0,0.0,-0.008564352989196777,0.02990962751209736,0.04514988139271736,0.0,0.0,0.0,0.0,0.0,0.0,0.0,0.0,0.0
1606990592385379238,3716335,1606986990923334311,imu_link,-0.0024640948977321386,0.00665279570966959,-0.3629533350467682,0.9317803382873535,0.0,0.0,0.0,0.0,0.0,0.0,0.0,0.0,0.0,-42.567344665527344,0.6078729033470154,-0.5398390293121338,0.0,0.0,0.0,0.0,0.0,0.0,0.0,0.0,0.0,0.0022246171720325947,0.017091281712055206,0.04543055593967438,0.0,0.0,0.0,0.0,0.0,0.0,0.0,0.0,0.0
1606990592385387202,3716336,1606986990923416236,imu_link,-0.0024640948977321386,0.00665279570966959,-0.3629533350467682,0.9317803382873535,0.0,0.0,0.0,0.0,0.0,0.0,0.0,0.0,0.0,-42.567344665527344,0.6078729033470154,-0.5398390293121338,0.0,0.0,0.0,0.0,0.0,0.0,0.0,0.0,0.0,0.0022246171720325947,0.017091281712055206,0.04543055593967438,0.0,0.0,0.0,0.0,0.0,0.0,0.0,0.0,0.0
1606990592385401790,3716337,1606986990923581919,imu_link,-0.0024656406603753567,0.006652525160461664,-0.36295318603515625,0.9317803978919983,0.0,0.0,0.0,0.0,0.0,0.0,0.0,0.0,0.0,-42.56732940673828,0.607779860496521,-0.5399926900863647,0.0,0.0,0.0,0.0,0.0,0.0,0.0,0.0,0.0,0.01592453569173813,-0.008804145269095898,0.03415463864803314,0.0,0.0,0.0,0.0,0.0,0.0,0.0,0.0,0.0
1606990592413967740,3716338,1606986990923665222,imu_link,-0.0024656406603753567,0.006652525160461664,-0.36295318603515625,0.9317803978919983,0.0,0.0,0.0,0.0,0.0,0.0,0.0,0.0,0.0,-42.56732940673828,0.607779860496521,-0.5399926900863647,0.0,0.0,0.0,0.0,0.0,0.0,0.0,0.0,0.0,0.01592453569173813,-0.008804145269095898,0.03415463864803314,0.0,0.0,0.0,0.0,0.0,0.0,0.0,0.0,0.0
1606990592413994484,3716339,1606986990923761500,imu_link,-0.0024659023620188236,0.00665383692830801,-0.3629530072212219,0.9317803978919983,0.0,0.0,0.0,0.0,0.0,0.0,0.0,0.0,0.0,-42.56731414794922,0.607909083366394,-0.5400750637054443,0.0,0.0,0.0,0.0,0.0,0.0,0.0,0.0,0.0,-0.002695443108677864,-0.003234146162867546,0.0209973007440567,0.0,0.0,0.0,0.0,0.0,0.0,0.0,0.0,0.0
1606990592414003500,3716340,1606986990923850240,imu_link,-0.0024659023620188236,0.00665383692830801,-0.3629530072212219,0.9317803978919983,0.0,0.0,0.0,0.0,0.0,0.0,0.0,0.0,0.0,-42.56731414794922,0.607909083366394,-0.5400750637054443,0.0,0.0,0.0,0.0,0.0,0.0,0.0,0.0,0.0,-0.002695443108677864,-0.003234146162867546,0.0209973007440567,0.0,0.0,0.0,0.0,0.0,0.0,0.0,0.0,0.0
1606990592414012145,3716341,1606986990935701347,imu_link,-0.002466971054673195,0.006655214354395866,-0.3629520833492279,0.9317808151245117,0.0,0.0,0.0,0.0,0.0,0.0,0.0,0.0,0.0,-42.567195892333984,0.608012318611145,-0.5402458906173706,0.0,0.0,0.0,0.0,0.0,0.0,0.0,0.0,0.0,-0.018992453813552856,0.0008673453703522682,0.016097018495202065,0.0,0.0,0.0,0.0,0.0,0.0,0.0,0.0,0.0
1606990592414037887,3716342,1606986990935840529,imu_link,-0.002466971054673195,0.006655214354395866,-0.3629520833492279,0.9317808151245117,0.0,0.0,0.0,0.0,0.0,0.0,0.0,0.0,0.0,-42.567195892333984,0.608012318611145,-0.5402458906173706,0.0,0.0,0.0,0.0,0.0,0.0,0.0,0.0,0.0,-0.018992453813552856,0.0008673453703522682,0.016097018495202065,0.0,0.0,0.0,0.0,0.0,0.0,0.0,0.0,0.0
1606990592421551838,3716343,1606986990935974900,imu_link,-0.002467680722475052,0.0066573177464306355,-0.36295151710510254,0.931780993938446,0.0,0.0,0.0,0.0,0.0,0.0,0.0,0.0,0.0,-42.56713104248047,0.608207643032074,-0.5404088497161865,0.0,0.0,0.0,0.0,0.0,0.0,0.0,0.0,0.0,-0.00816830713301897,0.0009697552304714918,0.02829805761575699,0.0,0.0,0.0,0.0,0.0,0.0,0.0,0.0,0.0
1606990592421576100,3716344,1606986990936065274,imu_link,-0.002467680722475052,0.0066573177464306355,-0.36295151710510254,0.931780993938446,0.0,0.0,0.0,0.0,0.0,0.0,0.0,0.0,0.0,-42.56713104248047,0.608207643032074,-0.5404088497161865,0.0,0.0,0.0,0.0,0.0,0.0,0.0,0.0,0.0,-0.00816830713301897,0.0009697552304714918,0.02829805761575699,0.0,0.0,0.0,0.0,0.0,0.0,0.0,0.0,0.0
1606990592421585854,3716345,1606986990936145585,imu_link,-0.002466455800458789,0.006653222255408764,-0.3629489541053772,0.9317820072174072,0.0,0.0,0.0,0.0,0.0,0.0,0.0,0.0,0.0,-42.566810607910156,0.607822835445404,-0.5401060581207275,0.0,0.0,0.0,0.0,0.0,0.0,0.0,0.0,0.0,0.01552268024533987,0.00746913580223918,0.024497106671333313,0.0,0.0,0.0,0.0,0.0,0.0,0.0,0.0,0.0
1606990592421603698,3716346,1606986990936246123,imu_link,-0.002466455800458789,0.006653222255408764,-0.3629489541053772,0.9317820072174072,0.0,0.0,0.0,0.0,0.0,0.0,0.0,0.0,0.0,-42.566810607910156,0.607822835445404,-0.5401060581207275,0.0,0.0,0.0,0.0,0.0,0.0,0.0,0.0,0.0,0.01552268024533987,0.00746913580223918,0.024497106671333313,0.0,0.0,0.0,0.0,0.0,0.0,0.0,0.0,0.0
1606990592448754035,3716347,1606986990936330834,imu_link,-0.0024653191212564707,0.006651334464550018,-0.36294853687286377,0.9317821860313416,0.0,0.0,0.0,0.0,0.0,0.0,0.0,0.0,0.0,-42.56675338745117,0.6076686978340149,-0.539905846118927,0.0,0.0,0.0,0.0,0.0,0.0,0.0,0.0,0.0,0.011037836782634258,0.0015715942718088627,0.036015585064888,0.0,0.0,0.0,0.0,0.0,0.0,0.0,0.0,0.0
1606990592448795881,3716348,1606986990936418276,imu_link,-0.0024653191212564707,0.006651334464550018,-0.36294853687286377,0.9317821860313416,0.0,0.0,0.0,0.0,0.0,0.0,0.0,0.0,0.0,-42.56675338745117,0.6076686978340149,-0.539905846118927,0.0,0.0,0.0,0.0,0.0,0.0,0.0,0.0,0.0,0.011037836782634258,0.0015715942718088627,0.036015585064888,0.0,0.0,0.0,0.0,0.0,0.0,0.0,0.0,0.0
1606990592448816038,3716349,1606986990936498432,imu_link,-0.0024661661591380835,0.00665360176935792,-0.3629480004310608,0.9317823648452759,0.0,0.0,0.0,0.0,0.0,0.0,0.0,0.0,0.0,-42.56669998168945,0.6078759431838989,-0.5400902628898621,0.0,0.0,0.0,0.0,0.0,0.0,0.0,0.0,0.0,0.002011327538639307,-0.0063901375979185104,0.03121425025165081,0.0,0.0,0.0,0.0,0.0,0.0,0.0,0.0,0.0
1606990592448830935,3716350,1606986990936583253,imu_link,-0.0024661661591380835,0.00665360176935792,-0.3629480004310608,0.9317823648452759,0.0,0.0,0.0,0.0,0.0,0.0,0.0,0.0,0.0,-42.56669998168945,0.6078759431838989,-0.5400902628898621,0.0,0.0,0.0,0.0,0.0,0.0,0.0,0.0,0.0,0.002011327538639307,-0.0063901375979185104,0.03121425025165081,0.0,0.0,0.0,0.0,0.0,0.0,0.0,0.0,0.0
1606990592499062827,3716351,1606986990948946691,imu_link,-0.0024671240244060755,0.0066519202664494514,-0.36294829845428467,0.9317823052406311,0.0,0.0,0.0,0.0,0.0,0.0,0.0,0.0,0.0,-42.56672668457031,0.6076563596725464,-0.5401226878166199,0.0,0.0,0.0,0.0,0.0,0.0,0.0,0.0,0.0,0.009259484708309174,-0.014026770368218422,0.020971816033124924,0.0,0.0,0.0,0.0,0.0,0.0,0.0,0.0,0.0
1606990592499085860,3716352,1606986990949061081,imu_link,-0.0024671240244060755,0.0066519202664494514,-0.36294829845428467,0.9317823052406311,0.0,0.0,0.0,0.0,0.0,0.0,0.0,0.0,0.0,-42.56672668457031,0.6076563596725464,-0.5401226878166199,0.0,0.0,0.0,0.0,0.0,0.0,0.0,0.0,0.0,0.009259484708309174,-0.014026770368218422,0.020971816033124924,0.0,0.0,0.0,0.0,0.0,0.0,0.0,0.0,0.0
1606990592499107858,3716353,1606986990949141241,imu_link,-0.002464924706146121,0.006650387309491634,-0.36294814944267273,0.9317823648452759,0.0,0.0,0.0,0.0,0.0,0.0,0.0,0.0,0.0,-42.566707611083984,0.6075841784477234,-0.5398240685462952,0.0,0.0,0.0,0.0,0.0,0.0,0.0,0.0,0.0,0.011876818723976612,-0.002916093450039625,0.03226533532142639,0.0,0.0,0.0,0.0,0.0,0.0,0.0,0.0,0.0
1606990592499116068,3716354,1606986990949216114,imu_link,-0.002464924706146121,0.006650387309491634,-0.36294814944267273,0.9317823648452759,0.0,0.0,0.0,0.0,0.0,0.0,0.0,0.0,0.0,-42.566707611083984,0.6075841784477234,-0.5398240685462952,0.0,0.0,0.0,0.0,0.0,0.0,0.0,0.0,0.0,0.011876818723976612,-0.002916093450039625,0.03226533532142639,0.0,0.0,0.0,0.0,0.0,0.0,0.0,0.0,0.0
1606990592499126933,3716355,1606986990949306955,imu_link,-0.0024653684813529253,0.006649766582995653,-0.3629458546638489,0.9317832589149475,0.0,0.0,0.0,0.0,0.0,0.0,0.0,0.0,0.0,-42.56642150878906,0.6075008511543274,-0.5398440957069397,0.0,0.0,0.0,0.0,0.0,0.0,0.0,0.0,0.0,0.005378906615078449,0.007073226384818554,0.04617934301495552,0.0,0.0,0.0,0.0,0.0,0.0,0.0,0.0,0.0
1606990592515070481,3716356,1606986990949384053,imu_link,-0.0024653684813529253,0.006649766582995653,-0.3629458546638489,0.9317832589149475,0.0,0.0,0.0,0.0,0.0,0.0,0.0,0.0,0.0,-42.56642150878906,0.6075008511543274,-0.5398440957069397,0.0,0.0,0.0,0.0,0.0,0.0,0.0,0.0,0.0,0.005378906615078449,0.007073226384818554,0.04617934301495552,0.0,0.0,0.0,0.0,0.0,0.0,0.0,0.0,0.0
1606990592515098786,3716357,1606986990949483002,imu_link,-0.002465189201757312,0.006653623189777136,-0.362943172454834,0.9317842721939087,0.0,0.0,0.0,0.0,0.0,0.0,0.0,0.0,0.0,-42.566097259521484,0.6079216599464417,-0.5399836301803589,0.0,0.0,0.0,0.0,0.0,0.0,0.0,0.0,0.0,-0.007000487297773361,0.007822267711162567,0.052923206239938736,0.0,0.0,0.0,0.0,0.0,0.0,0.0,0.0,0.0
1606990592515114448,3716358,1606986990949566400,imu_link,-0.002465189201757312,0.006653623189777136,-0.362943172454834,0.9317842721939087,0.0,0.0,0.0,0.0,0.0,0.0,0.0,0.0,0.0,-42.566097259521484,0.6079216599464417,-0.5399836301803589,0.0,0.0,0.0,0.0,0.0,0.0,0.0,0.0,0.0,-0.007000487297773361,0.007822267711162567,0.052923206239938736,0.0,0.0,0.0,0.0,0.0,0.0,0.0,0.0,0.0
1606990592515136075,3716359,1606986990949655316,imu_link,-0.002464734250679612,0.0066528827883303165,-0.3629440665245056,0.93178391456604,0.0,0.0,0.0,0.0,0.0,0.0,0.0,0.0,0.0,-42.56620788574219,0.6078610420227051,-0.5399048924446106,0.0,0.0,0.0,0.0,0.0,0.0,0.0,0.0,0.0,0.004061640705913305,0.007904361002147198,0.027356307953596115,0.0,0.0,0.0,0.0,0.0,0.0,0.0,0.0,0.0
1606990592523578055,3716360,1606986990949736860,imu_link,-0.002464734250679612,0.0066528827883303165,-0.3629440665245056,0.93178391456604,0.0,0.0,0.0,0.0,0.0,0.0,0.0,0.0,0.0,-42.56620788574219,0.6078610420227051,-0.5399048924446106,0.0,0.0,0.0,0.0,0.0,0.0,0.0,0.0,0.0,0.004061640705913305,0.007904361002147198,0.027356307953596115,0.0,0.0,0.0,0.0,0.0,0.0,0.0,0.0,0.0
1606990592523643977,3716361,1606986990949813251,imu_link,-0.002465863712131977,0.006654607597738504,-0.36294159293174744,0.9317848682403564,0.0,0.0,0.0,0.0,0.0,0.0,0.0,0.0,0.0,-42.5659065246582,0.6079996228218079,-0.5400956273078918,0.0,0.0,0.0,0.0,0.0,0.0,0.0,0.0,0.0,0.014943339861929417,0.0111651960760355,0.02841055393218994,0.0,0.0,0.0,0.0,0.0,0.0,0.0,0.0,0.0
1606990592523658929,3716362,1606986990962966402,imu_link,-0.002465863712131977,0.006654607597738504,-0.36294159293174744,0.9317848682403564,0.0,0.0,0.0,0.0,0.0,0.0,0.0,0.0,0.0,-42.5659065246582,0.6079996228218079,-0.5400956273078918,0.0,0.0,0.0,0.0,0.0,0.0,0.0,0.0,0.0,0.014943339861929417,0.0111651960760355,0.02841055393218994,0.0,0.0,0.0,0.0,0.0,0.0,0.0,0.0,0.0
1606990592523676828,3716363,1606986990963103448,imu_link,-0.0024651584681123495,0.0066540418192744255,-0.3629406690597534,0.9317852258682251,0.0,0.0,0.0,0.0,0.0,0.0,0.0,0.0,0.0,-42.565792083740234,0.6079691052436829,-0.5399960875511169,0.0,0.0,0.0,0.0,0.0,0.0,0.0,0.0,0.0,0.027451083064079285,0.00636808667331934,0.04304399713873863,0.0,0.0,0.0,0.0,0.0,0.0,0.0,0.0,0.0
1606990592523694178,3716364,1606986990963182693,imu_link,-0.0024651584681123495,0.0066540418192744255,-0.3629406690597534,0.9317852258682251,0.0,0.0,0.0,0.0,0.0,0.0,0.0,0.0,0.0,-42.565792083740234,0.6079691052436829,-0.5399960875511169,0.0,0.0,0.0,0.0,0.0,0.0,0.0,0.0,0.0,0.027451083064079285,0.00636808667331934,0.04304399713873863,0.0,0.0,0.0,0.0,0.0,0.0,0.0,0.0,0.0
1606990592536122571,3716365,1606986990963259525,imu_link,-0.002464677207171917,0.006657628808170557,-0.3629404604434967,0.9317852854728699,0.0,0.0,0.0,0.0,0.0,0.0,0.0,0.0,0.0,-42.56576919555664,0.608372151851654,-0.5400938987731934,0.0,0.0,0.0,0.0,0.0,0.0,0.0,0.0,0.0,0.024241002276539803,-0.0034145372919738293,0.036477088928222656,0.0,0.0,0.0,0.0,0.0,0.0,0.0,0.0,0.0
1606990592536169949,3716366,1606986990963333264,imu_link,-0.002464677207171917,0.006657628808170557,-0.3629404604434967,0.9317852854728699,0.0,0.0,0.0,0.0,0.0,0.0,0.0,0.0,0.0,-42.56576919555664,0.608372151851654,-0.5400938987731934,0.0,0.0,0.0,0.0,0.0,0.0,0.0,0.0,0.0,0.024241002276539803,-0.0034145372919738293,0.036477088928222656,0.0,0.0,0.0,0.0,0.0,0.0,0.0,0.0,0.0
1606990592536188947,3716367,1606986990963398276,imu_link,-0.0024653838481754065,0.006656884681433439,-0.3629392385482788,0.9317858219146729,0.0,0.0,0.0,0.0,0.0,0.0,0.0,0.0,0.0,-42.565616607666016,0.6082640886306763,-0.5401375889778137,0.0,0.0,0.0,0.0,0.0,0.0,0.0,0.0,0.0,0.0021563975606113672,-0.0005691362894140184,0.0483088344335556,0.0,0.0,0.0,0.0,0.0,0.0,0.0,0.0,0.0
1606990592536210800,3716368,1606986990963486290,imu_link,-0.0024653838481754065,0.006656884681433439,-0.3629392385482788,0.9317858219146729,0.0,0.0,0.0,0.0,0.0,0.0,0.0,0.0,0.0,-42.565616607666016,0.6082640886306763,-0.5401375889778137,0.0,0.0,0.0,0.0,0.0,0.0,0.0,0.0,0.0,0.0021563975606113672,-0.0005691362894140184,0.0483088344335556,0.0,0.0,0.0,0.0,0.0,0.0,0.0,0.0,0.0
1606990592602908260,3716369,1606986990963561080,imu_link,-0.0024653435684740543,0.0066584316082298756,-0.3629368245601654,0.9317867755889893,0.0,0.0,0.0,0.0,0.0,0.0,0.0,0.0,0.0,-42.5653190612793,0.6084323525428772,-0.5401959419250488,0.0,0.0,0.0,0.0,0.0,0.0,0.0,0.0,0.0,-0.004625482484698296,0.0007547226850874722,0.06128258258104324,0.0,0.0,0.0,0.0,0.0,0.0,0.0,0.0,0.0
1606990592602956790,3716370,1606986990963632397,imu_link,-0.0024653435684740543,0.0066584316082298756,-0.3629368245601654,0.9317867755889893,0.0,0.0,0.0,0.0,0.0,0.0,0.0,0.0,0.0,-42.5653190612793,0.6084323525428772,-0.5401959419250488,0.0,0.0,0.0,0.0,0.0,0.0,0.0,0.0,0.0,-0.004625482484698296,0.0007547226850874722,0.06128258258104324,0.0,0.0,0.0,0.0,0.0,0.0,0.0,0.0,0.0
1606990592602981947,3716371,1606986990963703904,imu_link,-0.002465043216943741,0.0066583831794559956,-0.3629372715950012,0.9317865371704102,0.0,0.0,0.0,0.0,0.0,0.0,0.0,0.0,0.0,-42.56538009643555,0.6084393262863159,-0.5401621460914612,0.0,0.0,0.0,0.0,0.0,0.0,0.0,0.0,0.0,-0.02111946791410446,0.01875530555844307,0.03923643007874489,0.0,0.0,0.0,0.0,0.0,0.0,0.0,0.0,0.0
1606990592603007219,3716372,1606986990963778191,imu_link,-0.002465043216943741,0.0066583831794559956,-0.3629372715950012,0.9317865371704102,0.0,0.0,0.0,0.0,0.0,0.0,0.0,0.0,0.0,-42.56538009643555,0.6084393262863159,-0.5401621460914612,0.0,0.0,0.0,0.0,0.0,0.0,0.0,0.0,0.0,-0.02111946791410446,0.01875530555844307,0.03923643007874489,0.0,0.0,0.0,0.0,0.0,0.0,0.0,0.0,0.0
1606990592603026274,3716373,1606986990976393511,imu_link,-0.002469149651005864,0.006658456288278103,-0.3629389703273773,0.9317858815193176,0.0,0.0,0.0,0.0,0.0,0.0,0.0,0.0,0.0,-42.56559371948242,0.6082753539085388,-0.540604829788208,0.0,0.0,0.0,0.0,0.0,0.0,0.0,0.0,0.0,-0.008820817805826664,0.024573957547545433,0.029200561344623566,0.0,0.0,0.0,0.0,0.0,0.0,0.0,0.0,0.0
1606990592632870891,3716374,1606986990976539434,imu_link,-0.002469149651005864,0.006658456288278103,-0.3629389703273773,0.9317858815193176,0.0,0.0,0.0,0.0,0.0,0.0,0.0,0.0,0.0,-42.56559371948242,0.6082753539085388,-0.540604829788208,0.0,0.0,0.0,0.0,0.0,0.0,0.0,0.0,0.0,-0.008820817805826664,0.024573957547545433,0.029200561344623566,0.0,0.0,0.0,0.0,0.0,0.0,0.0,0.0,0.0
1606990592632911913,3716375,1606986990976655638,imu_link,-0.002470603445544839,0.006658317521214485,-0.3629392683506012,0.9317857623100281,0.0,0.0,0.0,0.0,0.0,0.0,0.0,0.0,0.0,-42.56562805175781,0.6081998944282532,-0.5407545566558838,0.0,0.0,0.0,0.0,0.0,0.0,0.0,0.0,0.0,0.017990918830037117,0.019707947969436646,0.038963694125413895,0.0,0.0,0.0,0.0,0.0,0.0,0.0,0.0,0.0
1606990592632924812,3716376,1606986990976744639,imu_link,-0.002470603445544839,0.006658317521214485,-0.3629392683506012,0.9317857623100281,0.0,0.0,0.0,0.0,0.0,0.0,0.0,0.0,0.0,-42.56562805175781,0.6081998944282532,-0.5407545566558838,0.0,0.0,0.0,0.0,0.0,0.0,0.0,0.0,0.0,0.017990918830037117,0.019707947969436646,0.038963694125413895,0.0,0.0,0.0,0.0,0.0,0.0,0.0,0.0,0.0
1606990592632965492,3716377,1606986990976839744,imu_link,-0.002471067477017641,0.006660783663392067,-0.3629372715950012,0.9317865371704102,0.0,0.0,0.0,0.0,0.0,0.0,0.0,0.0,0.0,-42.56538009643555,0.6084451079368591,-0.5409053564071655,0.0,0.0,0.0,0.0,0.0,0.0,0.0,0.0,0.0,0.009793467819690704,0.019774939864873886,0.03618776798248291,0.0,0.0,0.0,0.0,0.0,0.0,0.0,0.0,0.0
1606990592642261918,3716378,1606986990976939560,imu_link,-0.002471067477017641,0.006660783663392067,-0.3629372715950012,0.9317865371704102,0.0,0.0,0.0,0.0,0.0,0.0,0.0,0.0,0.0,-42.56538009643555,0.6084451079368591,-0.5409053564071655,0.0,0.0,0.0,0.0,0.0,0.0,0.0,0.0,0.0,0.009793467819690704,0.019774939864873886,0.03618776798248291,0.0,0.0,0.0,0.0,0.0,0.0,0.0,0.0,0.0
1606990592642402463,3716379,1606986990977025634,imu_link,-0.0024710032157599926,0.006661243736743927,-0.36293715238571167,0.9317865967750549,0.0,0.0,0.0,0.0,0.0,0.0,0.0,0.0,0.0,-42.56536865234375,0.6084969639778137,-0.5409175157546997,0.0,0.0,0.0,0.0,0.0,0.0,0.0,0.0,0.0,-0.008808262646198273,0.010844560340046883,0.02944028750061989,0.0,0.0,0.0,0.0,0.0,0.0,0.0,0.0,0.0
1606990592642500483,3716380,1606986990977104857,imu_link,-0.0024710032157599926,0.006661243736743927,-0.36293715238571167,0.9317865967750549,0.0,0.0,0.0,0.0,0.0,0.0,0.0,0.0,0.0,-42.56536865234375,0.6084969639778137,-0.5409175157546997,0.0,0.0,0.0,0.0,0.0,0.0,0.0,0.0,0.0,-0.008808262646198273,0.010844560340046883,0.02944028750061989,0.0,0.0,0.0,0.0,0.0,0.0,0.0,0.0,0.0
1606990592642528424,3716381,1606986990977231806,imu_link,-0.002473660744726658,0.00666148541495204,-0.36293622851371765,0.9317869544029236,0.0,0.0,0.0,0.0,0.0,0.0,0.0,0.0,0.0,-42.565250396728516,0.6084128618240356,-0.5412107706069946,0.0,0.0,0.0,0.0,0.0,0.0,0.0,0.0,0.0,-0.009771718643605709,0.005560219753533602,0.04117072373628616,0.0,0.0,0.0,0.0,0.0,0.0,0.0,0.0,0.0
1606990592642546512,3716382,1606986990977313420,imu_link,-0.002473660744726658,0.00666148541495204,-0.36293622851371765,0.9317869544029236,0.0,0.0,0.0,0.0,0.0,0.0,0.0,0.0,0.0,-42.565250396728516,0.6084128618240356,-0.5412107706069946,0.0,0.0,0.0,0.0,0.0,0.0,0.0,0.0,0.0,-0.009771718643605709,0.005560219753533602,0.04117072373628616,0.0,0.0,0.0,0.0,0.0,0.0,0.0,0.0,0.0
1606990592652392121,3716383,1606986990977440063,imu_link,-0.002472746418789029,0.006661583669483662,-0.3629344701766968,0.9317876100540161,0.0,0.0,0.0,0.0,0.0,0.0,0.0,0.0,0.0,-42.565040588378906,0.6084623336791992,-0.5411160588264465,0.0,0.0,0.0,0.0,0.0,0.0,0.0,0.0,0.0,-0.019805485382676125,-0.0018292583990842104,0.04113932326436043,0.0,0.0,0.0,0.0,0.0,0.0,0.0,0.0,0.0
1606990592652427078,3716384,1606986990989311683,imu_link,-0.002472746418789029,0.006661583669483662,-0.3629344701766968,0.9317876100540161,0.0,0.0,0.0,0.0,0.0,0.0,0.0,0.0,0.0,-42.565040588378906,0.6084623336791992,-0.5411160588264465,0.0,0.0,0.0,0.0,0.0,0.0,0.0,0.0,0.0,-0.019805485382676125,-0.0018292583990842104,0.04113932326436043,0.0,0.0,0.0,0.0,0.0,0.0,0.0,0.0,0.0
1606990592652442287,3716385,1606986990989452579,imu_link,-0.002474617213010788,0.006661432329565287,-0.3629341721534729,0.9317876696586609,0.0,0.0,0.0,0.0,0.0,0.0,0.0,0.0,0.0,-42.565006256103516,0.6083685159683228,-0.5413093566894531,0.0,0.0,0.0,0.0,0.0,0.0,0.0,0.0,0.0,-0.026985250413417816,-0.0020922457333654165,0.024208443239331245,0.0,0.0,0.0,0.0,0.0,0.0,0.0,0.0,0.0
1606990592652456524,3716386,1606986990989600551,imu_link,-0.002474617213010788,0.006661432329565287,-0.3629341721534729,0.9317876696586609,0.0,0.0,0.0,0.0,0.0,0.0,0.0,0.0,0.0,-42.565006256103516,0.6083685159683228,-0.5413093566894531,0.0,0.0,0.0,0.0,0.0,0.0,0.0,0.0,0.0,-0.026985250413417816,-0.0020922457333654165,0.024208443239331245,0.0,0.0,0.0,0.0,0.0,0.0,0.0,0.0,0.0
1606990592703869586,3716387,1606986990989695431,imu_link,-0.002474463079124689,0.006661621853709221,-0.3629347085952759,0.9317874908447266,0.0,0.0,0.0,0.0,0.0,0.0,0.0,0.0,0.0,-42.5650749206543,0.6083949208259583,-0.5413011312484741,0.0,0.0,0.0,0.0,0.0,0.0,0.0,0.0,0.0,-0.0008244370110332966,0.004819248802959919,0.0264886524528265,0.0,0.0,0.0,0.0,0.0,0.0,0.0,0.0,0.0
1606990592703900522,3716388,1606986990989790365,imu_link,-0.002474463079124689,0.006661621853709221,-0.3629347085952759,0.9317874908447266,0.0,0.0,0.0,0.0,0.0,0.0,0.0,0.0,0.0,-42.5650749206543,0.6083949208259583,-0.5413011312484741,0.0,0.0,0.0,0.0,0.0,0.0,0.0,0.0,0.0,-0.0008244370110332966,0.004819248802959919,0.0264886524528265,0.0,0.0,0.0,0.0,0.0,0.0,0.0,0.0,0.0
1606990592703918311,3716389,1606986990989889836,imu_link,-0.0024740176741033792,0.006661206018179655,-0.36293303966522217,0.9317881464958191,0.0,0.0,0.0,0.0,0.0,0.0,0.0,0.0,0.0,-42.56486892700195,0.6083699464797974,-0.5412352085113525,0.0,0.0,0.0,0.0,0.0,0.0,0.0,0.0,0.0,0.0035038816276937723,-0.004474870394915342,0.03973188251256943,0.0,0.0,0.0,0.0,0.0,0.0,0.0,0.0,0.0
1606990592703945782,3716390,1606986990989975504,imu_link,-0.0024740176741033792,0.006661206018179655,-0.36293303966522217,0.9317881464958191,0.0,0.0,0.0,0.0,0.0,0.0,0.0,0.0,0.0,-42.56486892700195,0.6083699464797974,-0.5412352085113525,0.0,0.0,0.0,0.0,0.0,0.0,0.0,0.0,0.0,0.0035038816276937723,-0.004474870394915342,0.03973188251256943,0.0,0.0,0.0,0.0,0.0,0.0,0.0,0.0,0.0
1606990592703975134,3716391,1606986990990056361,imu_link,-0.002474634675309062,0.006661443971097469,-0.3629313111305237,0.9317888617515564,0.0,0.0,0.0,0.0,0.0,0.0,0.0,0.0,0.0,-42.56465148925781,0.6083707213401794,-0.5413098335266113,0.0,0.0,0.0,0.0,0.0,0.0,0.0,0.0,0.0,-0.012380856089293957,-0.00915590114891529,0.042326875030994415,0.0,0.0,0.0,0.0,0.0,0.0,0.0,0.0,0.0
1606990592723388078,3716392,1606986990990189905,imu_link,-0.002474634675309062,0.006661443971097469,-0.3629313111305237,0.9317888617515564,0.0,0.0,0.0,0.0,0.0,0.0,0.0,0.0,0.0,-42.56465148925781,0.6083707213401794,-0.5413098335266113,0.0,0.0,0.0,0.0,0.0,0.0,0.0,0.0,0.0,-0.012380856089293957,-0.00915590114891529,0.042326875030994415,0.0,0.0,0.0,0.0,0.0,0.0,0.0,0.0,0.0
1606990592723428861,3716393,1606986990990281226,imu_link,-0.0024738863576203585,0.006659908220171928,-0.3629301190376282,0.9317893385887146,0.0,0.0,0.0,0.0,0.0,0.0,0.0,0.0,0.0,-42.56449890136719,0.6082385778427124,-0.5411652326583862,0.0,0.0,0.0,0.0,0.0,0.0,0.0,0.0,0.0,0.010996995493769646,-0.004466236103326082,0.04770110547542572,0.0,0.0,0.0,0.0,0.0,0.0,0.0,0.0,0.0
1606990592723474646,3716394,1606986991003006266,imu_link,-0.0024738863576203585,0.006659908220171928,-0.3629301190376282,0.9317893385887146,0.0,0.0,0.0,0.0,0.0,0.0,0.0,0.0,0.0,-42.56449890136719,0.6082385778427124,-0.5411652326583862,0.0,0.0,0.0,0.0,0.0,0.0,0.0,0.0,0.0,0.010996995493769646,-0.004466236103326082,0.04770110547542572,0.0,0.0,0.0,0.0,0.0,0.0,0.0,0.0,0.0
1606990592723516497,3716395,1606986991003138292,imu_link,-0.0024721890222281218,0.006657456047832966,-0.36292794346809387,0.9317901730537415,0.0,0.0,0.0,0.0,0.0,0.0,0.0,0.0,0.0,-42.56423568725586,0.6080486178398132,-0.540880560874939,0.0,0.0,0.0,0.0,0.0,0.0,0.0,0.0,0.0,0.015103433281183243,-0.00932057574391365,0.03660744056105614,0.0,0.0,0.0,0.0,0.0,0.0,0.0,0.0,0.0
1606990592728624346,3716396,1606986991003226170,imu_link,-0.0024721890222281218,0.006657456047832966,-0.36292794346809387,0.9317901730537415,0.0,0.0,0.0,0.0,0.0,0.0,0.0,0.0,0.0,-42.56423568725586,0.6080486178398132,-0.540880560874939,0.0,0.0,0.0,0.0,0.0,0.0,0.0,0.0,0.0,0.015103433281183243,-0.00932057574391365,0.03660744056105614,0.0,0.0,0.0,0.0,0.0,0.0,0.0,0.0,0.0
1606990592728675108,3716397,1606986991003307278,imu_link,-0.0024685903917998075,0.006658090744167566,-0.36292773485183716,0.9317902326583862,0.0,0.0,0.0,0.0,0.0,0.0,0.0,0.0,0.0,-42.564205169677734,0.6082661747932434,-0.5405226349830627,0.0,0.0,0.0,0.0,0.0,0.0,0.0,0.0,0.0,0.003745277877897024,-0.013506192713975906,0.017940513789653778,0.0,0.0,0.0,0.0,0.0,0.0,0.0,0.0,0.0
1606990592728686765,3716398,1606986991003405881,imu_link,-0.0024685903917998075,0.006658090744167566,-0.36292773485183716,0.9317902326583862,0.0,0.0,0.0,0.0,0.0,0.0,0.0,0.0,0.0,-42.564205169677734,0.6082661747932434,-0.5405226349830627,0.0,0.0,0.0,0.0,0.0,0.0,0.0,0.0,0.0,0.003745277877897024,-0.013506192713975906,0.017940513789653778,0.0,0.0,0.0,0.0,0.0,0.0,0.0,0.0,0.0
1606990592728709293,3716399,1606986991003487374,imu_link,-0.0024686784017831087,0.006657007150352001,-0.3629286289215088,0.9317898750305176,0.0,0.0,0.0,0.0,0.0,0.0,0.0,0.0,0.0,-42.56431579589844,0.6081462502479553,-0.5404875874519348,0.0,0.0,0.0,0.0,0.0,0.0,0.0,0.0,0.0,0.003462654072791338,-0.011330872774124146,0.03673873096704483,0.0,0.0,0.0,0.0,0.0,0.0,0.0,0.0,0.0
1606990592728739460,3716400,1606986991003599133,imu_link,-0.0024686784017831087,0.006657007150352001,-0.3629286289215088,0.9317898750305176,0.0,0.0,0.0,0.0,0.0,0.0,0.0,0.0,0.0,-42.56431579589844,0.6081462502479553,-0.5404875874519348,0.0,0.0,0.0,0.0,0.0,0.0,0.0,0.0,0.0,0.003462654072791338,-0.011330872774124146,0.03673873096704483,0.0,0.0,0.0,0.0,0.0,0.0,0.0,0.0,0.0
1606990592735671696,3716401,1606986991003682752,imu_link,-0.0024665987584739923,0.006657856050878763,-0.3629283607006073,0.9317899942398071,0.0,0.0,0.0,0.0,0.0,0.0,0.0,0.0,0.0,-42.56428146362305,0.6083235144615173,-0.5403006672859192,0.0,0.0,0.0,0.0,0.0,0.0,0.0,0.0,0.0,0.007361896801739931,-0.005099834408611059,0.04982738941907883,0.0,0.0,0.0,0.0,0.0,0.0,0.0,0.0,0.0
1606990592735702862,3716402,1606986991003789133,imu_link,-0.0024665987584739923,0.006657856050878763,-0.3629283607006073,0.9317899942398071,0.0,0.0,0.0,0.0,0.0,0.0,0.0,0.0,0.0,-42.56428146362305,0.6083235144615173,-0.5403006672859192,0.0,0.0,0.0,0.0,0.0,0.0,0.0,0.0,0.0,0.007361896801739931,-0.005099834408611059,0.04982738941907883,0.0,0.0,0.0,0.0,0.0,0.0,0.0,0.0,0.0
1606990592735713735,3716403,1606986991003869925,imu_link,-0.002466516802087426,0.006655852310359478,-0.3629269301891327,0.9317905902862549,0.0,0.0,0.0,0.0,0.0,0.0,0.0,0.0,0.0,-42.56410598754883,0.6081138253211975,-0.5402075052261353,0.0,0.0,0.0,0.0,0.0,0.0,0.0,0.0,0.0,0.015797430649399757,-0.012183239683508873,0.041347257792949677,0.0,0.0,0.0,0.0,0.0,0.0,0.0,0.0,0.0
1606990592735723226,3716404,1606986991003949384,imu_link,-0.002466516802087426,0.006655852310359478,-0.3629269301891327,0.9317905902862549,0.0,0.0,0.0,0.0,0.0,0.0,0.0,0.0,0.0,-42.56410598754883,0.6081138253211975,-0.5402075052261353,0.0,0.0,0.0,0.0,0.0,0.0,0.0,0.0,0.0,0.015797430649399757,-0.012183239683508873,0.041347257792949677,0.0,0.0,0.0,0.0,0.0,0.0,0.0,0.0,0.0
1606990592876088366,3716405,1606986991016453737,imu_link,-0.0024644313380122185,0.006656229496002197,-0.362926185131073,0.9317908883094788,0.0,0.0,0.0,0.0,0.0,0.0,0.0,0.0,0.0,-42.56400680541992,0.6082412600517273,-0.5400000214576721,0.0,0.0,0.0,0.0,0.0,0.0,0.0,0.0,0.0,0.016176898032426834,-0.012782768346369267,0.035385601222515106,0.0,0.0,0.0,0.0,0.0,0.0,0.0,0.0,0.0
1606990592876125131,3716406,1606986991016511349,imu_link,-0.0024644313380122185,0.006656229496002197,-0.362926185131073,0.9317908883094788,0.0,0.0,0.0,0.0,0.0,0.0,0.0,0.0,0.0,-42.56400680541992,0.6082412600517273,-0.5400000214576721,0.0,0.0,0.0,0.0,0.0,0.0,0.0,0.0,0.0,0.016176898032426834,-0.012782768346369267,0.035385601222515106,0.0,0.0,0.0,0.0,0.0,0.0,0.0,0.0,0.0
1606990592876136013,3716407,1606986991016545222,imu_link,-0.0024640215560793877,0.006657452322542667,-0.36292630434036255,0.931790828704834,0.0,0.0,0.0,0.0,0.0,0.0,0.0,0.0,0.0,-42.564029693603516,0.6083888411521912,-0.5400072336196899,0.0,0.0,0.0,0.0,0.0,0.0,0.0,0.0,0.0,0.0027908661868423223,-0.0030168823432177305,0.04048875719308853,0.0,0.0,0.0,0.0,0.0,0.0,0.0,0.0,0.0
1606990592876153787,3716408,1606986991016576170,imu_link,-0.0024640215560793877,0.006657452322542667,-0.36292630434036255,0.931790828704834,0.0,0.0,0.0,0.0,0.0,0.0,0.0,0.0,0.0,-42.564029693603516,0.6083888411521912,-0.5400072336196899,0.0,0.0,0.0,0.0,0.0,0.0,0.0,0.0,0.0,0.0027908661868423223,-0.0030168823432177305,0.04048875719308853,0.0,0.0,0.0,0.0,0.0,0.0,0.0,0.0,0.0
1606990592876175572,3716409,1606986991016605251,imu_link,-0.0024626064114272594,0.00665656104683876,-0.3629245460033417,0.9317915439605713,0.0,0.0,0.0,0.0,0.0,0.0,0.0,0.0,0.0,-42.563812255859375,0.6083535552024841,-0.5398178696632385,0.0,0.0,0.0,0.0,0.0,0.0,0.0,0.0,0.0,-0.02204681932926178,-0.008184501901268959,0.03692207112908363,0.0,0.0,0.0,0.0,0.0,0.0,0.0,0.0,0.0
1606990592886402740,3716410,1606986991016633927,imu_link,-0.0024626064114272594,0.00665656104683876,-0.3629245460033417,0.9317915439605713,0.0,0.0,0.0,0.0,0.0,0.0,0.0,0.0,0.0,-42.563812255859375,0.6083535552024841,-0.5398178696632385,0.0,0.0,0.0,0.0,0.0,0.0,0.0,0.0,0.0,-0.02204681932926178,-0.008184501901268959,0.03692207112908363,0.0,0.0,0.0,0.0,0.0,0.0,0.0,0.0,0.0
1606990592886493996,3716411,1606986991016668480,imu_link,-0.0024615153670310974,0.006657165475189686,-0.3629249632358551,0.931791365146637,0.0,0.0,0.0,0.0,0.0,0.0,0.0,0.0,0.0,-42.56385803222656,0.6084632277488708,-0.5397267937660217,0.0,0.0,0.0,0.0,0.0,0.0,0.0,0.0,0.0,-0.010078070685267448,-0.010990811511874199,0.048831354826688766,0.0,0.0,0.0,0.0,0.0,0.0,0.0,0.0,0.0
1606990592886518552,3716412,1606986991016698471,imu_link,-0.0024615153670310974,0.006657165475189686,-0.3629249632358551,0.931791365146637,0.0,0.0,0.0,0.0,0.0,0.0,0.0,0.0,0.0,-42.56385803222656,0.6084632277488708,-0.5397267937660217,0.0,0.0,0.0,0.0,0.0,0.0,0.0,0.0,0.0,-0.010078070685267448,-0.010990811511874199,0.048831354826688766,0.0,0.0,0.0,0.0,0.0,0.0,0.0,0.0,0.0
1606990592886543371,3716413,1606986991016731562,imu_link,-0.00246081268414855,0.006653651595115662,-0.362925261259079,0.9317913055419922,0.0,0.0,0.0,0.0,0.0,0.0,0.0,0.0,0.0,-42.56389236450195,0.6081171035766602,-0.5395057797431946,0.0,0.0,0.0,0.0,0.0,0.0,0.0,0.0,0.0,0.005095296539366245,-0.010602747090160847,0.06483448296785355,0.0,0.0,0.0,0.0,0.0,0.0,0.0,0.0,0.0
1606990592900076646,3716414,1606986991016760489,imu_link,-0.00246081268414855,0.006653651595115662,-0.362925261259079,0.9317913055419922,0.0,0.0,0.0,0.0,0.0,0.0,0.0,0.0,0.0,-42.56389236450195,0.6081171035766602,-0.5395057797431946,0.0,0.0,0.0,0.0,0.0,0.0,0.0,0.0,0.0,0.005095296539366245,-0.010602747090160847,0.06483448296785355,0.0,0.0,0.0,0.0,0.0,0.0,0.0,0.0,0.0
1606990592900125462,3716415,1606986991016788140,imu_link,-0.002461823169142008,0.006654194090515375,-0.36292561888694763,0.9317911267280579,0.0,0.0,0.0,0.0,0.0,0.0,0.0,0.0,0.0,-42.563941955566406,0.6081327795982361,-0.539636492729187,0.0,0.0,0.0,0.0,0.0,0.0,0.0,0.0,0.0,-0.011484907940030098,-0.005201337859034538,0.04425286129117012,0.0,0.0,0.0,0.0,0.0,0.0,0.0,0.0,0.0
1606990592900175969,3716416,1606986991030334294,imu_link,-0.002461823169142008,0.006654194090515375,-0.36292561888694763,0.9317911267280579,0.0,0.0,0.0,0.0,0.0,0.0,0.0,0.0,0.0,-42.563941955566406,0.6081327795982361,-0.539636492729187,0.0,0.0,0.0,0.0,0.0,0.0,0.0,0.0,0.0,-0.011484907940030098,-0.005201337859034538,0.04425286129117012,0.0,0.0,0.0,0.0,0.0,0.0,0.0,0.0,0.0
1606990592900197884,3716417,1606986991030389013,imu_link,-0.0024601412005722523,0.006651218980550766,-0.36292511224746704,0.931791365146637,0.0,0.0,0.0,0.0,0.0,0.0,0.0,0.0,0.0,-42.563873291015625,0.6078854203224182,-0.5393328070640564,0.0,0.0,0.0,0.0,0.0,0.0,0.0,0.0,0.0,-0.009887908585369587,-0.014443613588809967,0.03918798640370369,0.0,0.0,0.0,0.0,0.0,0.0,0.0,0.0,0.0
1606990592905894633,3716418,1606986991030417926,imu_link,-0.0024601412005722523,0.006651218980550766,-0.36292511224746704,0.931791365146637,0.0,0.0,0.0,0.0,0.0,0.0,0.0,0.0,0.0,-42.563873291015625,0.6078854203224182,-0.5393328070640564,0.0,0.0,0.0,0.0,0.0,0.0,0.0,0.0,0.0,-0.009887908585369587,-0.014443613588809967,0.03918798640370369,0.0,0.0,0.0,0.0,0.0,0.0,0.0,0.0,0.0
1606990592905922979,3716419,1606986991030447953,imu_link,-0.0024600967299193144,0.006652918178588152,-0.3629254102706909,0.9317912459373474,0.0,0.0,0.0,0.0,0.0,0.0,0.0,0.0,0.0,-42.563907623291016,0.6080685257911682,-0.5393989086151123,0.0,0.0,0.0,0.0,0.0,0.0,0.0,0.0,0.0,0.011963922530412674,-0.02222270332276821,0.06165246292948723,0.0,0.0,0.0,0.0,0.0,0.0,0.0,0.0,0.0
1606990592905940547,3716420,1606986991030477731,imu_link,-0.0024600967299193144,0.006652918178588152,-0.3629254102706909,0.9317912459373474,0.0,0.0,0.0,0.0,0.0,0.0,0.0,0.0,0.0,-42.563907623291016,0.6080685257911682,-0.5393989086151123,0.0,0.0,0.0,0.0,0.0,0.0,0.0,0.0,0.0,0.011963922530412674,-0.02222270332276821,0.06165246292948723,0.0,0.0,0.0,0.0,0.0,0.0,0.0,0.0,0.0
1606990592905986772,3716421,1606986991030507522,imu_link,-0.002455555833876133,0.006655585486441851,-0.36292564868927,0.9317911267280579,0.0,0.0,0.0,0.0,0.0,0.0,0.0,0.0,0.0,-42.56393814086914,0.6085419654846191,-0.5390251874923706,0.0,0.0,0.0,0.0,0.0,0.0,0.0,0.0,0.0,0.016080297529697418,-0.0034708287566900253,0.04730113968253136,0.0,0.0,0.0,0.0,0.0,0.0,0.0,0.0,0.0
1606990592906019575,3716422,1606986991030543292,imu_link,-0.002455555833876133,0.006655585486441851,-0.36292564868927,0.9317911267280579,0.0,0.0,0.0,0.0,0.0,0.0,0.0,0.0,0.0,-42.56393814086914,0.6085419654846191,-0.5390251874923706,0.0,0.0,0.0,0.0,0.0,0.0,0.0,0.0,0.0,0.016080297529697418,-0.0034708287566900253,0.04730113968253136,0.0,0.0,0.0,0.0,0.0,0.0,0.0,0.0,0.0
1606990593018034001,3716423,1606986991030572829,imu_link,-0.0024554135743528605,0.00665611308068037,-0.3629251718521118,0.9317913055419922,0.0,0.0,0.0,0.0,0.0,0.0,0.0,0.0,0.0,-42.56388473510742,0.6086044907569885,-0.5390315651893616,0.0,0.0,0.0,0.0,0.0,0.0,0.0,0.0,0.0,-0.0010847157100215554,0.01867232471704483,0.0248248353600502,0.0,0.0,0.0,0.0,0.0,0.0,0.0,0.0,0.0
1606990593018065068,3716424,1606986991030600441,imu_link,-0.0024554135743528605,0.00665611308068037,-0.3629251718521118,0.9317913055419922,0.0,0.0,0.0,0.0,0.0,0.0,0.0,0.0,0.0,-42.56388473510742,0.6086044907569885,-0.5390315651893616,0.0,0.0,0.0,0.0,0.0,0.0,0.0,0.0,0.0,-0.0010847157100215554,0.01867232471704483,0.0248248353600502,0.0,0.0,0.0,0.0,0.0,0.0,0.0,0.0,0.0
1606990593018083841,3716425,1606986991030629076,imu_link,-0.0024590836837887764,0.006657782942056656,-0.36292263865470886,0.9317923188209534,0.0,0.0,0.0,0.0,0.0,0.0,0.0,0.0,0.0,-42.56357192993164,0.6086317300796509,-0.5394912958145142,0.0,0.0,0.0,0.0,0.0,0.0,0.0,0.0,0.0,0.005316070280969143,0.028874559327960014,0.020098118111491203,0.0,0.0,0.0,0.0,0.0,0.0,0.0,0.0,0.0
1606990593018099382,3716426,1606986991030658703,imu_link,-0.0024590836837887764,0.006657782942056656,-0.36292263865470886,0.9317923188209534,0.0,0.0,0.0,0.0,0.0,0.0,0.0,0.0,0.0,-42.56357192993164,0.6086317300796509,-0.5394912958145142,0.0,0.0,0.0,0.0,0.0,0.0,0.0,0.0,0.0,0.005316070280969143,0.028874559327960014,0.020098118111491203,0.0,0.0,0.0,0.0,0.0,0.0,0.0,0.0,0.0
1606990593041637850,3716427,1606986991043763471,imu_link,-0.002457990078255534,0.006658087484538555,-0.36292386054992676,0.9317917227745056,0.0,0.0,0.0,0.0,0.0,0.0,0.0,0.0,0.0,-42.56372833251953,0.608708918094635,-0.5393880009651184,0.0,0.0,0.0,0.0,0.0,0.0,0.0,0.0,0.0,0.01798066310584545,0.018519986420869827,0.011127740144729614,0.0,0.0,0.0,0.0,0.0,0.0,0.0,0.0,0.0
1606990593041668170,3716428,1606986991043821023,imu_link,-0.002457990078255534,0.006658087484538555,-0.36292386054992676,0.9317917227745056,0.0,0.0,0.0,0.0,0.0,0.0,0.0,0.0,0.0,-42.56372833251953,0.608708918094635,-0.5393880009651184,0.0,0.0,0.0,0.0,0.0,0.0,0.0,0.0,0.0,0.01798066310584545,0.018519986420869827,0.011127740144729614,0.0,0.0,0.0,0.0,0.0,0.0,0.0,0.0,0.0
1606990593041698339,3716429,1606986991043851189,imu_link,-0.0024571490939706564,0.0066609494388103485,-0.3629229962825775,0.9317920804023743,0.0,0.0,0.0,0.0,0.0,0.0,0.0,0.0,0.0,-42.56361770629883,0.6090500354766846,-0.5394167900085449,0.0,0.0,0.0,0.0,0.0,0.0,0.0,0.0,0.0,0.019797230139374733,0.013537726365029812,0.031072214245796204,0.0,0.0,0.0,0.0,0.0,0.0,0.0,0.0,0.0
1606990593041710535,3716430,1606986991043882826,imu_link,-0.0024571490939706564,0.0066609494388103485,-0.3629229962825775,0.9317920804023743,0.0,0.0,0.0,0.0,0.0,0.0,0.0,0.0,0.0,-42.56361770629883,0.6090500354766846,-0.5394167900085449,0.0,0.0,0.0,0.0,0.0,0.0,0.0,0.0,0.0,0.019797230139374733,0.013537726365029812,0.031072214245796204,0.0,0.0,0.0,0.0,0.0,0.0,0.0,0.0,0.0
1606990593041728910,3716431,1606986991043911951,imu_link,-0.0024562387261539698,0.0066612535156309605,-0.3629244863986969,0.9317914843559265,0.0,0.0,0.0,0.0,0.0,0.0,0.0,0.0,0.0,-42.563804626464844,0.6091194152832031,-0.539333164691925,0.0,0.0,0.0,0.0,0.0,0.0,0.0,0.0,0.0,0.0015691738808527589,0.011175713501870632,0.04999358579516411,0.0,0.0,0.0,0.0,0.0,0.0,0.0,0.0,0.0
1606990593050963518,3716432,1606986991043947257,imu_link,-0.0024562387261539698,0.0066612535156309605,-0.3629244863986969,0.9317914843559265,0.0,0.0,0.0,0.0,0.0,0.0,0.0,0.0,0.0,-42.563804626464844,0.6091194152832031,-0.539333164691925,0.0,0.0,0.0,0.0,0.0,0.0,0.0,0.0,0.0,0.0015691738808527589,0.011175713501870632,0.04999358579516411,0.0,0.0,0.0,0.0,0.0,0.0,0.0,0.0,0.0
1606990593050986389,3716433,1606986991043994916,imu_link,-0.0024601127952337265,0.006663183216005564,-0.36292344331741333,0.9317919015884399,0.0,0.0,0.0,0.0,0.0,0.0,0.0,0.0,0.0,-42.563682556152344,0.6091650128364563,-0.5398264527320862,0.0,0.0,0.0,0.0,0.0,0.0,0.0,0.0,0.0,-0.022191928699612617,0.010404462926089764,0.04227433726191521,0.0,0.0,0.0,0.0,0.0,0.0,0.0,0.0,0.0
1606990593051032187,3716434,1606986991044063229,imu_link,-0.0024601127952337265,0.006663183216005564,-0.36292344331741333,0.9317919015884399,0.0,0.0,0.0,0.0,0.0,0.0,0.0,0.0,0.0,-42.563682556152344,0.6091650128364563,-0.5398264527320862,0.0,0.0,0.0,0.0,0.0,0.0,0.0,0.0,0.0,-0.022191928699612617,0.010404462926089764,0.04227433726191521,0.0,0.0,0.0,0.0,0.0,0.0,0.0,0.0,0.0
1606990593051042854,3716435,1606986991044107336,imu_link,-0.0024589537642896175,0.006663723383098841,-0.3629213869571686,0.931792676448822,0.0,0.0,0.0,0.0,0.0,0.0,0.0,0.0,0.0,-42.56342697143555,0.6092720627784729,-0.539723813533783,0.0,0.0,0.0,0.0,0.0,0.0,0.0,0.0,0.0,-0.026342034339904785,0.02400924824178219,0.06470228731632233,0.0,0.0,0.0,0.0,0.0,0.0,0.0,0.0,0.0
1606990593058728115,3716436,1606986991044154420,imu_link,-0.0024589537642896175,0.006663723383098841,-0.3629213869571686,0.931792676448822,0.0,0.0,0.0,0.0,0.0,0.0,0.0,0.0,0.0,-42.56342697143555,0.6092720627784729,-0.539723813533783,0.0,0.0,0.0,0.0,0.0,0.0,0.0,0.0,0.0,-0.026342034339904785,0.02400924824178219,0.06470228731632233,0.0,0.0,0.0,0.0,0.0,0.0,0.0,0.0,0.0
1606990593058785043,3716437,1606986991044197249,imu_link,-0.0024642860516905785,0.0066612581722438335,-0.3629205524921417,0.9317930340766907,0.0,0.0,0.0,0.0,0.0,0.0,0.0,0.0,0.0,-42.563323974609375,0.6087875366210938,-0.5401901006698608,0.0,0.0,0.0,0.0,0.0,0.0,0.0,0.0,0.0,-0.011013184674084187,0.021145686507225037,0.0587802417576313,0.0,0.0,0.0,0.0,0.0,0.0,0.0,0.0,0.0
1606990593058852235,3716438,1606986991056681091,imu_link,-0.0024642860516905785,0.0066612581722438335,-0.3629205524921417,0.9317930340766907,0.0,0.0,0.0,0.0,0.0,0.0,0.0,0.0,0.0,-42.563323974609375,0.6087875366210938,-0.5401901006698608,0.0,0.0,0.0,0.0,0.0,0.0,0.0,0.0,0.0,-0.011013184674084187,0.021145686507225037,0.0587802417576313,0.0,0.0,0.0,0.0,0.0,0.0,0.0,0.0,0.0
1606990593058879475,3716439,1606986991056761527,imu_link,-0.0024634157307446003,0.006660164333879948,-0.3629240095615387,0.9317916631698608,0.0,0.0,0.0,0.0,0.0,0.0,0.0,0.0,0.0,-42.56374740600586,0.6087049245834351,-0.5400539040565491,0.0,0.0,0.0,0.0,0.0,0.0,0.0,0.0,0.0,0.013349593617022038,-0.0018570125102996826,0.029630176723003387,0.0,0.0,0.0,0.0,0.0,0.0,0.0,0.0,0.0
1606990593059004281,3716440,1606986991056867119,imu_link,-0.0024634157307446003,0.006660164333879948,-0.3629240095615387,0.9317916631698608,0.0,0.0,0.0,0.0,0.0,0.0,0.0,0.0,0.0,-42.56374740600586,0.6087049245834351,-0.5400539040565491,0.0,0.0,0.0,0.0,0.0,0.0,0.0,0.0,0.0,0.013349593617022038,-0.0018570125102996826,0.029630176723003387,0.0,0.0,0.0,0.0,0.0,0.0,0.0,0.0,0.0
1606990593101773881,3716441,1606986991056912737,imu_link,-0.0024642394855618477,0.006661569699645042,-0.3629229962825775,0.9317920804023743,0.0,0.0,0.0,0.0,0.0,0.0,0.0,0.0,0.0,-42.56362533569336,0.6088213920593262,-0.5401996374130249,0.0,0.0,0.0,0.0,0.0,0.0,0.0,0.0,0.0,0.010237093083560467,-0.00026585711748339236,0.029031282290816307,0.0,0.0,0.0,0.0,0.0,0.0,0.0,0.0,0.0
1606990593101796734,3716442,1606986991056980474,imu_link,-0.0024642394855618477,0.006661569699645042,-0.3629229962825775,0.9317920804023743,0.0,0.0,0.0,0.0,0.0,0.0,0.0,0.0,0.0,-42.56362533569336,0.6088213920593262,-0.5401996374130249,0.0,0.0,0.0,0.0,0.0,0.0,0.0,0.0,0.0,0.010237093083560467,-0.00026585711748339236,0.029031282290816307,0.0,0.0,0.0,0.0,0.0,0.0,0.0,0.0,0.0
1606990593101803922,3716443,1606986991057036310,imu_link,-0.002465096302330494,0.006664338521659374,-0.36292269825935364,0.931792140007019,0.0,0.0,0.0,0.0,0.0,0.0,0.0,0.0,0.0,-42.56359100341797,0.609081506729126,-0.5404061675071716,0.0,0.0,0.0,0.0,0.0,0.0,0.0,0.0,0.0,-0.008715976029634476,0.006640444044023752,0.03675594925880432,0.0,0.0,0.0,0.0,0.0,0.0,0.0,0.0,0.0
1606990593101810282,3716444,1606986991057080696,imu_link,-0.002465096302330494,0.006664338521659374,-0.36292269825935364,0.931792140007019,0.0,0.0,0.0,0.0,0.0,0.0,0.0,0.0,0.0,-42.56359100341797,0.609081506729126,-0.5404061675071716,0.0,0.0,0.0,0.0,0.0,0.0,0.0,0.0,0.0,-0.008715976029634476,0.006640444044023752,0.03675594925880432,0.0,0.0,0.0,0.0,0.0,0.0,0.0,0.0,0.0
1606990593114462310,3716445,1606986991057127181,imu_link,-0.0024678236804902554,0.006663603708148003,-0.3629215955734253,0.9317926168441772,0.0,0.0,0.0,0.0,0.0,0.0,0.0,0.0,0.0,-42.563453674316406,0.6088902950286865,-0.5406660437583923,0.0,0.0,0.0,0.0,0.0,0.0,0.0,0.0,0.0,-0.009331154637038708,-0.003128501120954752,0.05296390503644943,0.0,0.0,0.0,0.0,0.0,0.0,0.0,0.0,0.0
1606990593114489811,3716446,1606986991057173901,imu_link,-0.0024678236804902554,0.006663603708148003,-0.3629215955734253,0.9317926168441772,0.0,0.0,0.0,0.0,0.0,0.0,0.0,0.0,0.0,-42.563453674316406,0.6088902950286865,-0.5406660437583923,0.0,0.0,0.0,0.0,0.0,0.0,0.0,0.0,0.0,-0.009331154637038708,-0.003128501120954752,0.05296390503644943,0.0,0.0,0.0,0.0,0.0,0.0,0.0,0.0,0.0
1606990593114506822,3716447,1606986991057217417,imu_link,-0.0024667084217071533,0.0066634598188102245,-0.3629218339920044,0.9317924976348877,0.0,0.0,0.0,0.0,0.0,0.0,0.0,0.0,0.0,-42.5634880065918,0.6089211702346802,-0.5405411124229431,0.0,0.0,0.0,0.0,0.0,0.0,0.0,0.0,0.0,-0.01063911896198988,-0.008831762708723545,0.0479375422000885,0.0,0.0,0.0,0.0,0.0,0.0,0.0,0.0,0.0
1606990593114518820,3716448,1606986991070696816,imu_link,-0.0024667084217071533,0.0066634598188102245,-0.3629218339920044,0.9317924976348877,0.0,0.0,0.0,0.0,0.0,0.0,0.0,0.0,0.0,-42.5634880065918,0.6089211702346802,-0.5405411124229431,0.0,0.0,0.0,0.0,0.0,0.0,0.0,0.0,0.0,-0.01063911896198988,-0.008831762708723545,0.0479375422000885,0.0,0.0,0.0,0.0,0.0,0.0,0.0,0.0,0.0
1606990593114536770,3716449,1606986991070791558,imu_link,-0.002465645084157586,0.006662855856120586,-0.3629211485385895,0.9317927956581116,0.0,0.0,0.0,0.0,0.0,0.0,0.0,0.0,0.0,-42.56340026855469,0.60890132188797,-0.5404020547866821,0.0,0.0,0.0,0.0,0.0,0.0,0.0,0.0,0.0,-0.00943953637033701,-0.009295608848333359,0.0520261712372303,0.0,0.0,0.0,0.0,0.0,0.0,0.0,0.0,0.0
1606990593184297411,3716450,1606986991070851382,imu_link,-0.002465645084157586,0.006662855856120586,-0.3629211485385895,0.9317927956581116,0.0,0.0,0.0,0.0,0.0,0.0,0.0,0.0,0.0,-42.56340026855469,0.60890132188797,-0.5404020547866821,0.0,0.0,0.0,0.0,0.0,0.0,0.0,0.0,0.0,-0.00943953637033701,-0.009295608848333359,0.0520261712372303,0.0,0.0,0.0,0.0,0.0,0.0,0.0,0.0,0.0
1606990593184331683,3716451,1606986991070905622,imu_link,-0.002465048572048545,0.006661227438598871,-0.3629215657711029,0.9317926168441772,0.0,0.0,0.0,0.0,0.0,0.0,0.0,0.0,0.0,-42.56344985961914,0.6087520122528076,-0.5402709245681763,0.0,0.0,0.0,0.0,0.0,0.0,0.0,0.0,0.0,-0.0015359261306002736,-0.006983214057981968,0.04508458822965622,0.0,0.0,0.0,0.0,0.0,0.0,0.0,0.0,0.0
1606990593184360481,3716452,1606986991070979742,imu_link,-0.002465048572048545,0.006661227438598871,-0.3629215657711029,0.9317926168441772,0.0,0.0,0.0,0.0,0.0,0.0,0.0,0.0,0.0,-42.56344985961914,0.6087520122528076,-0.5402709245681763,0.0,0.0,0.0,0.0,0.0,0.0,0.0,0.0,0.0,-0.0015359261306002736,-0.006983214057981968,0.04508458822965622,0.0,0.0,0.0,0.0,0.0,0.0,0.0,0.0,0.0
1606990593184380546,3716453,1606986991071032899,imu_link,-0.0024630483239889145,0.006659004371613264,-0.36292168498039246,0.9317926168441772,0.0,0.0,0.0,0.0,0.0,0.0,0.0,0.0,0.0,-42.56345748901367,0.6085976958274841,-0.5399647951126099,0.0,0.0,0.0,0.0,0.0,0.0,0.0,0.0,0.0,-0.019485505297780037,-0.0003354561631567776,0.024127209559082985,0.0,0.0,0.0,0.0,0.0,0.0,0.0,0.0,0.0
1606990593207847838,3716454,1606986991071094118,imu_link,-0.0024630483239889145,0.006659004371613264,-0.36292168498039246,0.9317926168441772,0.0,0.0,0.0,0.0,0.0,0.0,0.0,0.0,0.0,-42.56345748901367,0.6085976958274841,-0.5399647951126099,0.0,0.0,0.0,0.0,0.0,0.0,0.0,0.0,0.0,-0.019485505297780037,-0.0003354561631567776,0.024127209559082985,0.0,0.0,0.0,0.0,0.0,0.0,0.0,0.0,0.0
1606990593207897273,3716455,1606986991071146290,imu_link,-0.002463354729115963,0.006659219507128,-0.3629204332828522,0.9317930936813354,0.0,0.0,0.0,0.0,0.0,0.0,0.0,0.0,0.0,-42.56330490112305,0.6086086630821228,-0.5400057435035706,0.0,0.0,0.0,0.0,0.0,0.0,0.0,0.0,0.0,-0.024061910808086395,0.009407377801835537,0.04264018312096596,0.0,0.0,0.0,0.0,0.0,0.0,0.0,0.0,0.0
1606990593207919473,3716456,1606986991071197543,imu_link,-0.002463354729115963,0.006659219507128,-0.3629204332828522,0.9317930936813354,0.0,0.0,0.0,0.0,0.0,0.0,0.0,0.0,0.0,-42.56330490112305,0.6086086630821228,-0.5400057435035706,0.0,0.0,0.0,0.0,0.0,0.0,0.0,0.0,0.0,-0.024061910808086395,0.009407377801835537,0.04264018312096596,0.0,0.0,0.0,0.0,0.0,0.0,0.0,0.0,0.0
1606990593207940465,3716457,1606986991071247874,imu_link,-0.002466523554176092,0.006655933801084757,-0.3629200756549835,0.9317932724952698,0.0,0.0,0.0,0.0,0.0,0.0,0.0,0.0,0.0,-42.563262939453125,0.6081262826919556,-0.5402072072029114,0.0,0.0,0.0,0.0,0.0,0.0,0.0,0.0,0.0,-0.005475365556776524,0.008157121017575264,0.060573678463697433,0.0,0.0,0.0,0.0,0.0,0.0,0.0,0.0,0.0
1606990593207953059,3716458,1606986991071298276,imu_link,-0.002466523554176092,0.006655933801084757,-0.3629200756549835,0.9317932724952698,0.0,0.0,0.0,0.0,0.0,0.0,0.0,0.0,0.0,-42.563262939453125,0.6081262826919556,-0.5402072072029114,0.0,0.0,0.0,0.0,0.0,0.0,0.0,0.0,0.0,-0.005475365556776524,0.008157121017575264,0.060573678463697433,0.0,0.0,0.0,0.0,0.0,0.0,0.0,0.0,0.0
1606990593285441489,3716459,1606986991083948627,imu_link,-0.0024660206399858,0.006654231809079647,-0.36292093992233276,0.9317929744720459,0.0,0.0,0.0,0.0,0.0,0.0,0.0,0.0,0.0,-42.5633659362793,0.6079649925231934,-0.5400831699371338,0.0,0.0,0.0,0.0,0.0,0.0,0.0,0.0,0.0,0.0004474982852116227,0.012230350635945797,0.08122581988573074,0.0,0.0,0.0,0.0,0.0,0.0,0.0,0.0,0.0
1606990593285455540,3716460,1606986991084041769,imu_link,-0.0024660206399858,0.006654231809079647,-0.36292093992233276,0.9317929744720459,0.0,0.0,0.0,0.0,0.0,0.0,0.0,0.0,0.0,-42.5633659362793,0.6079649925231934,-0.5400831699371338,0.0,0.0,0.0,0.0,0.0,0.0,0.0,0.0,0.0,0.0004474982852116227,0.012230350635945797,0.08122581988573074,0.0,0.0,0.0,0.0,0.0,0.0,0.0,0.0,0.0
1606990593285462907,3716461,1606986991084129847,imu_link,-0.00246835732832551,0.006656676530838013,-0.362919420003891,0.9317935109138489,0.0,0.0,0.0,0.0,0.0,0.0,0.0,0.0,0.0,-42.56318283081055,0.608129620552063,-0.5404334664344788,0.0,0.0,0.0,0.0,0.0,0.0,0.0,0.0,0.0,-0.005757944658398628,0.012104003690183163,0.08288039267063141,0.0,0.0,0.0,0.0,0.0,0.0,0.0,0.0,0.0
1606990593285469375,3716462,1606986991084181269,imu_link,-0.00246835732832551,0.006656676530838013,-0.362919420003891,0.9317935109138489,0.0,0.0,0.0,0.0,0.0,0.0,0.0,0.0,0.0,-42.56318283081055,0.608129620552063,-0.5404334664344788,0.0,0.0,0.0,0.0,0.0,0.0,0.0,0.0,0.0,-0.005757944658398628,0.012104003690183163,0.08288039267063141,0.0,0.0,0.0,0.0,0.0,0.0,0.0,0.0,0.0
1606990593307049903,3716463,1606986991084261529,imu_link,-0.002467290498316288,0.0066558183170855045,-0.36291784048080444,0.9317941665649414,0.0,0.0,0.0,0.0,0.0,0.0,0.0,0.0,0.0,-42.562984466552734,0.6080833077430725,-0.5402827858924866,0.0,0.0,0.0,0.0,0.0,0.0,0.0,0.0,0.0,-0.017175521701574326,0.0005126584437675774,0.0625176876783371,0.0,0.0,0.0,0.0,0.0,0.0,0.0,0.0,0.0
1606990593307070314,3716464,1606986991084312278,imu_link,-0.002467290498316288,0.0066558183170855045,-0.36291784048080444,0.9317941665649414,0.0,0.0,0.0,0.0,0.0,0.0,0.0,0.0,0.0,-42.562984466552734,0.6080833077430725,-0.5402827858924866,0.0,0.0,0.0,0.0,0.0,0.0,0.0,0.0,0.0,-0.017175521701574326,0.0005126584437675774,0.0625176876783371,0.0,0.0,0.0,0.0,0.0,0.0,0.0,0.0,0.0
1606990593307079339,3716465,1606986991084423753,imu_link,-0.0024685808457434177,0.006653076969087124,-0.3629177510738373,0.9317942261695862,0.0,0.0,0.0,0.0,0.0,0.0,0.0,0.0,0.0,-42.56296920776367,0.6077370643615723,-0.5403065085411072,0.0,0.0,0.0,0.0,0.0,0.0,0.0,0.0,0.0,-0.01437407173216343,0.00029074103804305196,0.04745866730809212,0.0,0.0,0.0,0.0,0.0,0.0,0.0,0.0,0.0
1606990593307085322,3716466,1606986991084476449,imu_link,-0.0024685808457434177,0.006653076969087124,-0.3629177510738373,0.9317942261695862,0.0,0.0,0.0,0.0,0.0,0.0,0.0,0.0,0.0,-42.56296920776367,0.6077370643615723,-0.5403065085411072,0.0,0.0,0.0,0.0,0.0,0.0,0.0,0.0,0.0,-0.01437407173216343,0.00029074103804305196,0.04745866730809212,0.0,0.0,0.0,0.0,0.0,0.0,0.0,0.0,0.0
1606990593307111578,3716467,1606986991084525766,imu_link,-0.0024697917979210615,0.006652614567428827,-0.3629152774810791,0.9317951798439026,0.0,0.0,0.0,0.0,0.0,0.0,0.0,0.0,0.0,-42.56266784667969,0.6076386570930481,-0.5404149293899536,0.0,0.0,0.0,0.0,0.0,0.0,0.0,0.0,0.0,-0.011253423057496548,-0.0047684102319180965,0.025424376130104065,0.0,0.0,0.0,0.0,0.0,0.0,0.0,0.0,0.0
1606990593319594081,3716468,1606986991084579336,imu_link,-0.0024697917979210615,0.006652614567428827,-0.3629152774810791,0.9317951798439026,0.0,0.0,0.0,0.0,0.0,0.0,0.0,0.0,0.0,-42.56266784667969,0.6076386570930481,-0.5404149293899536,0.0,0.0,0.0,0.0,0.0,0.0,0.0,0.0,0.0,-0.011253423057496548,-0.0047684102319180965,0.025424376130104065,0.0,0.0,0.0,0.0,0.0,0.0,0.0,0.0,0.0
1606990593319626404,3716469,1606986991084629208,imu_link,-0.002469753148034215,0.006650440860539675,-0.3629147410392761,0.9317954182624817,0.0,0.0,0.0,0.0,0.0,0.0,0.0,0.0,0.0,-42.56260299682617,0.6074085235595703,-0.5403200387954712,0.0,0.0,0.0,0.0,0.0,0.0,0.0,0.0,0.0,-0.0066779195331037045,-0.013572001829743385,0.03088458441197872,0.0,0.0,0.0,0.0,0.0,0.0,0.0,0.0,0.0
1606990593319642656,3716470,1606986991097790487,imu_link,-0.002469753148034215,0.006650440860539675,-0.3629147410392761,0.9317954182624817,0.0,0.0,0.0,0.0,0.0,0.0,0.0,0.0,0.0,-42.56260299682617,0.6074085235595703,-0.5403200387954712,0.0,0.0,0.0,0.0,0.0,0.0,0.0,0.0,0.0,-0.0066779195331037045,-0.013572001829743385,0.03088458441197872,0.0,0.0,0.0,0.0,0.0,0.0,0.0,0.0,0.0
1606990593319649455,3716471,1606986991097889610,imu_link,-0.002471789950504899,0.006651080213487148,-0.3629171848297119,0.9317943453788757,0.0,0.0,0.0,0.0,0.0,0.0,0.0,0.0,0.0,-42.562904357910156,0.6073905825614929,-0.5405657291412354,0.0,0.0,0.0,0.0,0.0,0.0,0.0,0.0,0.0,0.005776706151664257,0.002580893225967884,0.04317216947674751,0.0,0.0,0.0,0.0,0.0,0.0,0.0,0.0,0.0
1606990593341941988,3716472,1606986991097985939,imu_link,-0.002471789950504899,0.006651080213487148,-0.3629171848297119,0.9317943453788757,0.0,0.0,0.0,0.0,0.0,0.0,0.0,0.0,0.0,-42.562904357910156,0.6073905825614929,-0.5405657291412354,0.0,0.0,0.0,0.0,0.0,0.0,0.0,0.0,0.0,0.005776706151664257,0.002580893225967884,0.04317216947674751,0.0,0.0,0.0,0.0,0.0,0.0,0.0,0.0,0.0
1606990593341968953,3716473,1606986991098045671,imu_link,-0.002471774350851774,0.0066535924561321735,-0.36291664838790894,0.9317946434020996,0.0,0.0,0.0,0.0,0.0,0.0,0.0,0.0,0.0,-42.56283950805664,0.6076598763465881,-0.5406681299209595,0.0,0.0,0.0,0.0,0.0,0.0,0.0,0.0,0.0,-0.0047353776171803474,0.01169675588607788,0.03273633494973183,0.0,0.0,0.0,0.0,0.0,0.0,0.0,0.0,0.0
1606990593341987507,3716474,1606986991098132873,imu_link,-0.002471774350851774,0.0066535924561321735,-0.36291664838790894,0.9317946434020996,0.0,0.0,0.0,0.0,0.0,0.0,0.0,0.0,0.0,-42.56283950805664,0.6076598763465881,-0.5406681299209595,0.0,0.0,0.0,0.0,0.0,0.0,0.0,0.0,0.0,-0.0047353776171803474,0.01169675588607788,0.03273633494973183,0.0,0.0,0.0,0.0,0.0,0.0,0.0,0.0,0.0
1606990593341996074,3716475,1606986991098186834,imu_link,-0.002468270482495427,0.006653892807662487,-0.3629165291786194,0.9317947030067444,0.0,0.0,0.0,0.0,0.0,0.0,0.0,0.0,0.0,-42.56282424926758,0.6078377366065979,-0.5403065085411072,0.0,0.0,0.0,0.0,0.0,0.0,0.0,0.0,0.0,0.0030162367038428783,0.004306484945118427,0.03469829633831978,0.0,0.0,0.0,0.0,0.0,0.0,0.0,0.0,0.0
1606990593342014577,3716476,1606986991098283879,imu_link,-0.002468270482495427,0.006653892807662487,-0.3629165291786194,0.9317947030067444,0.0,0.0,0.0,0.0,0.0,0.0,0.0,0.0,0.0,-42.56282424926758,0.6078377366065979,-0.5403065085411072,0.0,0.0,0.0,0.0,0.0,0.0,0.0,0.0,0.0,0.0030162367038428783,0.004306484945118427,0.03469829633831978,0.0,0.0,0.0,0.0,0.0,0.0,0.0,0.0,0.0
1606990593485414251,3716477,1606986991098341155,imu_link,-0.0024698986671864986,0.006656351499259472,-0.36291682720184326,0.9317944645881653,0.0,0.0,0.0,0.0,0.0,0.0,0.0,0.0,0.0,-42.5628662109375,0.6080323457717896,-0.5405828952789307,0.0,0.0,0.0,0.0,0.0,0.0,0.0,0.0,0.0,0.00728530902415514,-0.0018225542735308409,0.044423799961805344,0.0,0.0,0.0,0.0,0.0,0.0,0.0,0.0,0.0
1606990593485459195,3716478,1606986991098423359,imu_link,-0.0024698986671864986,0.006656351499259472,-0.36291682720184326,0.9317944645881653,0.0,0.0,0.0,0.0,0.0,0.0,0.0,0.0,0.0,-42.5628662109375,0.6080323457717896,-0.5405828952789307,0.0,0.0,0.0,0.0,0.0,0.0,0.0,0.0,0.0,0.00728530902415514,-0.0018225542735308409,0.044423799961805344,0.0,0.0,0.0,0.0,0.0,0.0,0.0,0.0,0.0
1606990593485486458,3716479,1606986991098479609,imu_link,-0.002469282131642103,0.006658259779214859,-0.36291661858558655,0.9317945837974548,0.0,0.0,0.0,0.0,0.0,0.0,0.0,0.0,0.0,-42.56283950805664,0.6082619428634644,-0.5405962467193604,0.0,0.0,0.0,0.0,0.0,0.0,0.0,0.0,0.0,-0.005518794059753418,-0.010454968549311161,0.03855535015463829,0.0,0.0,0.0,0.0,0.0,0.0,0.0,0.0,0.0
1606990593485509497,3716480,1606986991098533694,imu_link,-0.002469282131642103,0.006658259779214859,-0.36291661858558655,0.9317945837974548,0.0,0.0,0.0,0.0,0.0,0.0,0.0,0.0,0.0,-42.56283950805664,0.6082619428634644,-0.5405962467193604,0.0,0.0,0.0,0.0,0.0,0.0,0.0,0.0,0.0,-0.005518794059753418,-0.010454968549311161,0.03855535015463829,0.0,0.0,0.0,0.0,0.0,0.0,0.0,0.0,0.0
1606990593489947323,3716481,1606986991111128074,imu_link,-0.002468489110469818,0.006657216232270002,-0.3629167079925537,0.9317945837974548,0.0,0.0,0.0,0.0,0.0,0.0,0.0,0.0,0.0,-42.56284713745117,0.6081833839416504,-0.5404682159423828,0.0,0.0,0.0,0.0,0.0,0.0,0.0,0.0,0.0,-0.0010545931290835142,-0.0058510685339570045,0.05075336620211601,0.0,0.0,0.0,0.0,0.0,0.0,0.0,0.0,0.0
1606990593490023029,3716482,1606986991111236994,imu_link,-0.002468489110469818,0.006657216232270002,-0.3629167079925537,0.9317945837974548,0.0,0.0,0.0,0.0,0.0,0.0,0.0,0.0,0.0,-42.56284713745117,0.6081833839416504,-0.5404682159423828,0.0,0.0,0.0,0.0,0.0,0.0,0.0,0.0,0.0,-0.0010545931290835142,-0.0058510685339570045,0.05075336620211601,0.0,0.0,0.0,0.0,0.0,0.0,0.0,0.0,0.0
1606990593490053058,3716483,1606986991111340822,imu_link,-0.00246781506575644,0.006656638812273741,-0.36291760206222534,0.9317942261695862,0.0,0.0,0.0,0.0,0.0,0.0,0.0,0.0,0.0,-42.562957763671875,0.6081492900848389,-0.5403727889060974,0.0,0.0,0.0,0.0,0.0,0.0,0.0,0.0,0.0,0.0016914064763113856,0.009318510070443153,0.07150033861398697,0.0,0.0,0.0,0.0,0.0,0.0,0.0,0.0,0.0
1606990593490137653,3716484,1606986991111409774,imu_link,-0.00246781506575644,0.006656638812273741,-0.36291760206222534,0.9317942261695862,0.0,0.0,0.0,0.0,0.0,0.0,0.0,0.0,0.0,-42.562957763671875,0.6081492900848389,-0.5403727889060974,0.0,0.0,0.0,0.0,0.0,0.0,0.0,0.0,0.0,0.0016914064763113856,0.009318510070443153,0.07150033861398697,0.0,0.0,0.0,0.0,0.0,0.0,0.0,0.0,0.0
1606990593490204654,3716485,1606986991111517427,imu_link,-0.0024715939071029425,0.006657424382865429,-0.36291927099227905,0.9317935705184937,0.0,0.0,0.0,0.0,0.0,0.0,0.0,0.0,0.0,-42.56316375732422,0.6080750226974487,-0.5408100485801697,0.0,0.0,0.0,0.0,0.0,0.0,0.0,0.0,0.0,-0.011260896921157837,0.023455452173948288,0.07581791281700134,0.0,0.0,0.0,0.0,0.0,0.0,0.0,0.0,0.0
1606990593504740333,3716486,1606986991111603819,imu_link,-0.0024715939071029425,0.006657424382865429,-0.36291927099227905,0.9317935705184937,0.0,0.0,0.0,0.0,0.0,0.0,0.0,0.0,0.0,-42.56316375732422,0.6080750226974487,-0.5408100485801697,0.0,0.0,0.0,0.0,0.0,0.0,0.0,0.0,0.0,-0.011260896921157837,0.023455452173948288,0.07581791281700134,0.0,0.0,0.0,0.0,0.0,0.0,0.0,0.0,0.0
1606990593504781532,3716487,1606986991111672650,imu_link,-0.002471523592248559,0.006658834405243397,-0.36291900277137756,0.9317936301231384,0.0,0.0,0.0,0.0,0.0,0.0,0.0,0.0,0.0,-42.563133239746094,0.6082286238670349,-0.5408610701560974,0.0,0.0,0.0,0.0,0.0,0.0,0.0,0.0,0.0,-0.021106509491801262,0.010332489386200905,0.05896908417344093,0.0,0.0,0.0,0.0,0.0,0.0,0.0,0.0,0.0
1606990593504790792,3716488,1606986991111737592,imu_link,-0.002471523592248559,0.006658834405243397,-0.36291900277137756,0.9317936301231384,0.0,0.0,0.0,0.0,0.0,0.0,0.0,0.0,0.0,-42.563133239746094,0.6082286238670349,-0.5408610701560974,0.0,0.0,0.0,0.0,0.0,0.0,0.0,0.0,0.0,-0.021106509491801262,0.010332489386200905,0.05896908417344093,0.0,0.0,0.0,0.0,0.0,0.0,0.0,0.0,0.0
1606990593504803617,3716489,1606986991111802154,imu_link,-0.002476222813129425,0.006656814366579056,-0.36292213201522827,0.9317924380302429,0.0,0.0,0.0,0.0,0.0,0.0,0.0,0.0,0.0,-42.56351852416992,0.6078157424926758,-0.5412808060646057,0.0,0.0,0.0,0.0,0.0,0.0,0.0,0.0,0.0,-0.008340822532773018,-0.0015868539921939373,0.06116006523370743,0.0,0.0,0.0,0.0,0.0,0.0,0.0,0.0,0.0
1606990593521326416,3716490,1606986991111868816,imu_link,-0.002476222813129425,0.006656814366579056,-0.36292213201522827,0.9317924380302429,0.0,0.0,0.0,0.0,0.0,0.0,0.0,0.0,0.0,-42.56351852416992,0.6078157424926758,-0.5412808060646057,0.0,0.0,0.0,0.0,0.0,0.0,0.0,0.0,0.0,-0.008340822532773018,-0.0015868539921939373,0.06116006523370743,0.0,0.0,0.0,0.0,0.0,0.0,0.0,0.0,0.0
1606990593521361136,3716491,1606986991111935334,imu_link,-0.0024757259525358677,0.006656021345406771,-0.36292174458503723,0.9317926168441772,0.0,0.0,0.0,0.0,0.0,0.0,0.0,0.0,0.0,-42.56346893310547,0.6077519059181213,-0.541194498538971,0.0,0.0,0.0,0.0,0.0,0.0,0.0,0.0,0.0,0.011794893071055412,0.0033687481191009283,0.059331733733415604,0.0,0.0,0.0,0.0,0.0,0.0,0.0,0.0,0.0
1606990593521375137,3716492,1606986991124193765,imu_link,-0.0024757259525358677,0.006656021345406771,-0.36292174458503723,0.9317926168441772,0.0,0.0,0.0,0.0,0.0,0.0,0.0,0.0,0.0,-42.56346893310547,0.6077519059181213,-0.541194498538971,0.0,0.0,0.0,0.0,0.0,0.0,0.0,0.0,0.0,0.011794893071055412,0.0033687481191009283,0.059331733733415604,0.0,0.0,0.0,0.0,0.0,0.0,0.0,0.0,0.0
1606990593521418996,3716493,1606986991124304394,imu_link,-0.002477628644555807,0.006657965946942568,-0.3629220724105835,0.9317923784255981,0.0,0.0,0.0,0.0,0.0,0.0,0.0,0.0,0.0,-42.56351852416992,0.607880175113678,-0.5414788722991943,0.0,0.0,0.0,0.0,0.0,0.0,0.0,0.0,0.0,-0.0033799235243350267,0.004421149846166372,0.054262109100818634,0.0,0.0,0.0,0.0,0.0,0.0,0.0,0.0,0.0
1606990593582405898,3716494,1606986991124427743,imu_link,-0.002477628644555807,0.006657965946942568,-0.3629220724105835,0.9317923784255981,0.0,0.0,0.0,0.0,0.0,0.0,0.0,0.0,0.0,-42.56351852416992,0.607880175113678,-0.5414788722991943,0.0,0.0,0.0,0.0,0.0,0.0,0.0,0.0,0.0,-0.0033799235243350267,0.004421149846166372,0.054262109100818634,0.0,0.0,0.0,0.0,0.0,0.0,0.0,0.0,0.0
1606990593582428388,3716495,1606986991124500054,imu_link,-0.002476202789694071,0.006658983416855335,-0.36292198300361633,0.9317924976348877,0.0,0.0,0.0,0.0,0.0,0.0,0.0,0.0,0.0,-42.56350326538086,0.6080482006072998,-0.541368842124939,0.0,0.0,0.0,0.0,0.0,0.0,0.0,0.0,0.0,-0.004611469339579344,-0.000568980525713414,0.06637389957904816,0.0,0.0,0.0,0.0,0.0,0.0,0.0,0.0,0.0
1606990593582435860,3716496,1606986991124572318,imu_link,-0.002476202789694071,0.006658983416855335,-0.36292198300361633,0.9317924976348877,0.0,0.0,0.0,0.0,0.0,0.0,0.0,0.0,0.0,-42.56350326538086,0.6080482006072998,-0.541368842124939,0.0,0.0,0.0,0.0,0.0,0.0,0.0,0.0,0.0,-0.004611469339579344,-0.000568980525713414,0.06637389957904816,0.0,0.0,0.0,0.0,0.0,0.0,0.0,0.0,0.0
1606990593582443195,3716497,1606986991124653105,imu_link,-0.0024753522593528032,0.006656251847743988,-0.36292219161987305,0.9317924380302429,0.0,0.0,0.0,0.0,0.0,0.0,0.0,0.0,0.0,-42.56352233886719,0.6077918410301208,-0.5411645174026489,0.0,0.0,0.0,0.0,0.0,0.0,0.0,0.0,0.0,0.015486630611121655,-0.014009327627718449,0.04164784401655197,0.0,0.0,0.0,0.0,0.0,0.0,0.0,0.0,0.0
1606990593582459894,3716498,1606986991124721611,imu_link,-0.0024753522593528032,0.006656251847743988,-0.36292219161987305,0.9317924380302429,0.0,0.0,0.0,0.0,0.0,0.0,0.0,0.0,0.0,-42.56352233886719,0.6077918410301208,-0.5411645174026489,0.0,0.0,0.0,0.0,0.0,0.0,0.0,0.0,0.0,0.015486630611121655,-0.014009327627718449,0.04164784401655197,0.0,0.0,0.0,0.0,0.0,0.0,0.0,0.0,0.0
1606990593608222124,3716499,1606986991124785964,imu_link,-0.002475216519087553,0.006655563600361347,-0.36292457580566406,0.9317914843559265,0.0,0.0,0.0,0.0,0.0,0.0,0.0,0.0,0.0,-42.56381607055664,0.6077225804328918,-0.5411229133605957,0.0,0.0,0.0,0.0,0.0,0.0,0.0,0.0,0.0,0.006201579235494137,-0.006241100840270519,0.019798532128334045,0.0,0.0,0.0,0.0,0.0,0.0,0.0,0.0,0.0
1606990593608258309,3716500,1606986991124849696,imu_link,-0.002475216519087553,0.006655563600361347,-0.36292457580566406,0.9317914843559265,0.0,0.0,0.0,0.0,0.0,0.0,0.0,0.0,0.0,-42.56381607055664,0.6077225804328918,-0.5411229133605957,0.0,0.0,0.0,0.0,0.0,0.0,0.0,0.0,0.0,0.006201579235494137,-0.006241100840270519,0.019798532128334045,0.0,0.0,0.0,0.0,0.0,0.0,0.0,0.0,0.0
1606990593608276869,3716501,1606986991124913956,imu_link,-0.0024741627275943756,0.0066565535962581635,-0.36292681097984314,0.9317905902862549,0.0,0.0,0.0,0.0,0.0,0.0,0.0,0.0,0.0,-42.5640983581543,0.6078708171844482,-0.541053056716919,0.0,0.0,0.0,0.0,0.0,0.0,0.0,0.0,0.0,0.013772925361990929,0.011831821873784065,0.04955921694636345,0.0,0.0,0.0,0.0,0.0,0.0,0.0,0.0,0.0
1606990593608291952,3716502,1606986991138007454,imu_link,-0.0024741627275943756,0.0066565535962581635,-0.36292681097984314,0.9317905902862549,0.0,0.0,0.0,0.0,0.0,0.0,0.0,0.0,0.0,-42.5640983581543,0.6078708171844482,-0.541053056716919,0.0,0.0,0.0,0.0,0.0,0.0,0.0,0.0,0.0,0.013772925361990929,0.011831821873784065,0.04955921694636345,0.0,0.0,0.0,0.0,0.0,0.0,0.0,0.0,0.0
1606990593615698694,3716503,1606986991138121855,imu_link,-0.0024736567866057158,0.006657286547124386,-0.36292698979377747,0.9317905306816101,0.0,0.0,0.0,0.0,0.0,0.0,0.0,0.0,0.0,-42.564117431640625,0.6079699993133545,-0.541029691696167,0.0,0.0,0.0,0.0,0.0,0.0,0.0,0.0,0.0,0.016306433826684952,0.0025614118203520775,0.07378826290369034,0.0,0.0,0.0,0.0,0.0,0.0,0.0,0.0,0.0
1606990593615738162,3716504,1606986991138275459,imu_link,-0.0024736567866057158,0.006657286547124386,-0.36292698979377747,0.9317905306816101,0.0,0.0,0.0,0.0,0.0,0.0,0.0,0.0,0.0,-42.564117431640625,0.6079699993133545,-0.541029691696167,0.0,0.0,0.0,0.0,0.0,0.0,0.0,0.0,0.0,0.016306433826684952,0.0025614118203520775,0.07378826290369034,0.0,0.0,0.0,0.0,0.0,0.0,0.0,0.0,0.0
1606990593615778612,3716505,1606986991138346591,imu_link,-0.002472825115546584,0.006660449784249067,-0.3629259169101715,0.9317909479141235,0.0,0.0,0.0,0.0,0.0,0.0,0.0,0.0,0.0,-42.563987731933594,0.6083430051803589,-0.5410717725753784,0.0,0.0,0.0,0.0,0.0,0.0,0.0,0.0,0.0,0.003062394680455327,-0.0008581816218793392,0.04872490093111992,0.0,0.0,0.0,0.0,0.0,0.0,0.0,0.0,0.0
1606990593615797716,3716506,1606986991138440248,imu_link,-0.002472825115546584,0.006660449784249067,-0.3629259169101715,0.9317909479141235,0.0,0.0,0.0,0.0,0.0,0.0,0.0,0.0,0.0,-42.563987731933594,0.6083430051803589,-0.5410717725753784,0.0,0.0,0.0,0.0,0.0,0.0,0.0,0.0,0.0,0.003062394680455327,-0.0008581816218793392,0.04872490093111992,0.0,0.0,0.0,0.0,0.0,0.0,0.0,0.0,0.0
1606990593615822587,3716507,1606986991138511882,imu_link,-0.002471589483320713,0.006660721730440855,-0.3629254698753357,0.9317911267280579,0.0,0.0,0.0,0.0,0.0,0.0,0.0,0.0,0.0,-42.563934326171875,0.60842365026474,-0.5409507751464844,0.0,0.0,0.0,0.0,0.0,0.0,0.0,0.0,0.0,-0.005673518404364586,0.00319406995549798,0.06279764324426651,0.0,0.0,0.0,0.0,0.0,0.0,0.0,0.0,0.0
1606990593621139024,3716508,1606986991138597320,imu_link,-0.002471589483320713,0.006660721730440855,-0.3629254698753357,0.9317911267280579,0.0,0.0,0.0,0.0,0.0,0.0,0.0,0.0,0.0,-42.563934326171875,0.60842365026474,-0.5409507751464844,0.0,0.0,0.0,0.0,0.0,0.0,0.0,0.0,0.0,-0.005673518404364586,0.00319406995549798,0.06279764324426651,0.0,0.0,0.0,0.0,0.0,0.0,0.0,0.0,0.0
1606990593621169317,3716509,1606986991138662771,imu_link,-0.002471371553838253,0.006658370606601238,-0.3629252314567566,0.9317912459373474,0.0,0.0,0.0,0.0,0.0,0.0,0.0,0.0,0.0,-42.563899993896484,0.6081818342208862,-0.5408295392990112,0.0,0.0,0.0,0.0,0.0,0.0,0.0,0.0,0.0,-0.0221454706043005,0.0046049244701862335,0.06333713233470917,0.0,0.0,0.0,0.0,0.0,0.0,0.0,0.0,0.0
1606990593621187603,3716510,1606986991138725966,imu_link,-0.002471371553838253,0.006658370606601238,-0.3629252314567566,0.9317912459373474,0.0,0.0,0.0,0.0,0.0,0.0,0.0,0.0,0.0,-42.563899993896484,0.6081818342208862,-0.5408295392990112,0.0,0.0,0.0,0.0,0.0,0.0,0.0,0.0,0.0,-0.0221454706043005,0.0046049244701862335,0.06333713233470917,0.0,0.0,0.0,0.0,0.0,0.0,0.0,0.0,0.0
1606990593621200813,3716511,1606986991138790732,imu_link,-0.0024709824938327074,0.006658180616796017,-0.36292564868927,0.9317910671234131,0.0,0.0,0.0,0.0,0.0,0.0,0.0,0.0,0.0,-42.5639533996582,0.6081774830818176,-0.5407804250717163,0.0,0.0,0.0,0.0,0.0,0.0,0.0,0.0,0.0,-0.008615479804575443,0.01540359202772379,0.05890825018286705,0.0,0.0,0.0,0.0,0.0,0.0,0.0,0.0,0.0
1606990593907114317,3716512,1606986991138856784,imu_link,-0.0024709824938327074,0.006658180616796017,-0.36292564868927,0.9317910671234131,0.0,0.0,0.0,0.0,0.0,0.0,0.0,0.0,0.0,-42.5639533996582,0.6081774830818176,-0.5407804250717163,0.0,0.0,0.0,0.0,0.0,0.0,0.0,0.0,0.0,-0.008615479804575443,0.01540359202772379,0.05890825018286705,0.0,0.0,0.0,0.0,0.0,0.0,0.0,0.0,0.0
1606990593907165623,3716513,1606986991151393472,imu_link,-0.002475170185789466,0.006659736856818199,-0.36292579770088196,0.9317910075187683,0.0,0.0,0.0,0.0,0.0,0.0,0.0,0.0,0.0,-42.5639762878418,0.6081693768501282,-0.5412924885749817,0.0,0.0,0.0,0.0,0.0,0.0,0.0,0.0,0.0,0.013536674901843071,0.009592631831765175,0.052190981805324554,0.0,0.0,0.0,0.0,0.0,0.0,0.0,0.0,0.0
1606990593907257285,3716514,1606986991151521297,imu_link,-0.002475170185789466,0.006659736856818199,-0.36292579770088196,0.9317910075187683,0.0,0.0,0.0,0.0,0.0,0.0,0.0,0.0,0.0,-42.5639762878418,0.6081693768501282,-0.5412924885749817,0.0,0.0,0.0,0.0,0.0,0.0,0.0,0.0,0.0,0.013536674901843071,0.009592631831765175,0.052190981805324554,0.0,0.0,0.0,0.0,0.0,0.0,0.0,0.0,0.0
1606990593907289053,3716515,1606986991151632301,imu_link,-0.0024751254823058844,0.006658556871116161,-0.3629275858402252,0.931790292263031,0.0,0.0,0.0,0.0,0.0,0.0,0.0,0.0,0.0,-42.56419372558594,0.6080442070960999,-0.5412396788597107,0.0,0.0,0.0,0.0,0.0,0.0,0.0,0.0,0.0,-0.004155462142080069,0.011674929410219193,0.003774446900933981,0.0,0.0,0.0,0.0,0.0,0.0,0.0,0.0,0.0
1606990593907326896,3716516,1606986991151704605,imu_link,-0.0024751254823058844,0.006658556871116161,-0.3629275858402252,0.931790292263031,0.0,0.0,0.0,0.0,0.0,0.0,0.0,0.0,0.0,-42.56419372558594,0.6080442070960999,-0.5412396788597107,0.0,0.0,0.0,0.0,0.0,0.0,0.0,0.0,0.0,-0.004155462142080069,0.011674929410219193,0.003774446900933981,0.0,0.0,0.0,0.0,0.0,0.0,0.0,0.0,0.0
1606990593920889286,3716517,1606986991151778585,imu_link,-0.0024785774294286966,0.006659999955445528,-0.3629271388053894,0.9317904710769653,0.0,0.0,0.0,0.0,0.0,0.0,0.0,0.0,0.0,-42.56413650512695,0.6080549955368042,-0.5416680574417114,0.0,0.0,0.0,0.0,0.0,0.0,0.0,0.0,0.0,-0.023095615208148956,0.015467804856598377,0.01108598057180643,0.0,0.0,0.0,0.0,0.0,0.0,0.0,0.0,0.0
1606990593920930822,3716518,1606986991151849808,imu_link,-0.0024785774294286966,0.006659999955445528,-0.3629271388053894,0.9317904710769653,0.0,0.0,0.0,0.0,0.0,0.0,0.0,0.0,0.0,-42.56413650512695,0.6080549955368042,-0.5416680574417114,0.0,0.0,0.0,0.0,0.0,0.0,0.0,0.0,0.0,-0.023095615208148956,0.015467804856598377,0.01108598057180643,0.0,0.0,0.0,0.0,0.0,0.0,0.0,0.0,0.0
1606990593920944810,3716519,1606986991152079321,imu_link,-0.0024792642798274755,0.006662007421255112,-0.3629259169101715,0.9317908883094788,0.0,0.0,0.0,0.0,0.0,0.0,0.0,0.0,0.0,-42.56399154663086,0.6082414388656616,-0.5418241024017334,0.0,0.0,0.0,0.0,0.0,0.0,0.0,0.0,0.0,-0.013119452632963657,-0.0023771892301738262,0.027457525953650475,0.0,0.0,0.0,0.0,0.0,0.0,0.0,0.0,0.0
1606990593920980247,3716520,1606986991152161965,imu_link,-0.0024792642798274755,0.006662007421255112,-0.3629259169101715,0.9317908883094788,0.0,0.0,0.0,0.0,0.0,0.0,0.0,0.0,0.0,-42.56399154663086,0.6082414388656616,-0.5418241024017334,0.0,0.0,0.0,0.0,0.0,0.0,0.0,0.0,0.0,-0.013119452632963657,-0.0023771892301738262,0.027457525953650475,0.0,0.0,0.0,0.0,0.0,0.0,0.0,0.0,0.0
