%time,field.header.seq,field.header.stamp,field.header.frame_id,field.orientation.x,field.orientation.y,field.orientation.z,field.orientation.w,field.orientation_covariance0,field.orientation_covariance1,field.orientation_covariance2,field.orientation_covariance3,field.orientation_covariance4,field.orientation_covariance5,field.orientation_covariance6,field.orientation_covariance7,field.orientation_covariance8,field.angular_velocity.x,field.angular_velocity.y,field.angular_velocity.z,field.angular_velocity_covariance0,field.angular_velocity_covariance1,field.angular_velocity_covariance2,field.angular_velocity_covariance3,field.angular_velocity_covariance4,field.angular_velocity_covariance5,field.angular_velocity_covariance6,field.angular_velocity_covariance7,field.angular_velocity_covariance8,field.linear_acceleration.x,field.linear_acceleration.y,field.linear_acceleration.z,field.linear_acceleration_covariance0,field.linear_acceleration_covariance1,field.linear_acceleration_covariance2,field.linear_acceleration_covariance3,field.linear_acceleration_covariance4,field.linear_acceleration_covariance5,field.linear_acceleration_covariance6,field.linear_acceleration_covariance7,field.linear_acceleration_covariance8
1606990658004221976,3769298,1606987057133715380,imu_link,-0.0024089107755571604,0.006744669750332832,-0.36437445878982544,0.931225061416626,0.0,0.0,0.0,0.0,0.0,0.0,0.0,0.0,0.0,-42.74223709106445,0.619157075881958,-0.5387139320373535,0.0,0.0,0.0,0.0,0.0,0.0,0.0,0.0,0.0,0.016674144193530083,-0.0019789296202361584,0.0573488287627697,0.0,0.0,0.0,0.0,0.0,0.0,0.0,0.0,0.0
1606990658004247573,3769299,1606987057133824195,imu_link,-0.0024082784075289965,0.006747345440089703,-0.36437544226646423,0.9312246441841125,0.0,0.0,0.0,0.0,0.0,0.0,0.0,0.0,0.0,-42.74236297607422,0.6194684505462646,-0.5387588739395142,0.0,0.0,0.0,0.0,0.0,0.0,0.0,0.0,0.0,-0.019361235201358795,0.0007994822226464748,0.0381312370300293,0.0,0.0,0.0,0.0,0.0,0.0,0.0,0.0,0.0
1606990658004255229,3769300,1606987057133954136,imu_link,-0.0024082784075289965,0.006747345440089703,-0.36437544226646423,0.9312246441841125,0.0,0.0,0.0,0.0,0.0,0.0,0.0,0.0,0.0,-42.74236297607422,0.6194684505462646,-0.5387588739395142,0.0,0.0,0.0,0.0,0.0,0.0,0.0,0.0,0.0,-0.019361235201358795,0.0007994822226464748,0.0381312370300293,0.0,0.0,0.0,0.0,0.0,0.0,0.0,0.0,0.0
1606990658004266709,3769301,1606987057134018215,imu_link,-0.002411080291494727,0.006744179408997297,-0.3643721640110016,0.9312259554862976,0.0,0.0,0.0,0.0,0.0,0.0,0.0,0.0,0.0,-42.7419548034668,0.6190154552459717,-0.5389235019683838,0.0,0.0,0.0,0.0,0.0,0.0,0.0,0.0,0.0,-0.021521668881177902,-0.0029327739030122757,0.031930647790431976,0.0,0.0,0.0,0.0,0.0,0.0,0.0,0.0,0.0
1606990658013229407,3769302,1606987057134082236,imu_link,-0.002411080291494727,0.006744179408997297,-0.3643721640110016,0.9312259554862976,0.0,0.0,0.0,0.0,0.0,0.0,0.0,0.0,0.0,-42.7419548034668,0.6190154552459717,-0.5389235019683838,0.0,0.0,0.0,0.0,0.0,0.0,0.0,0.0,0.0,-0.021521668881177902,-0.0029327739030122757,0.031930647790431976,0.0,0.0,0.0,0.0,0.0,0.0,0.0,0.0,0.0
1606990658013263155,3769303,1606987057134141256,imu_link,-0.002409517765045166,0.006745706312358379,-0.36437347531318665,0.9312254190444946,0.0,0.0,0.0,0.0,0.0,0.0,0.0,0.0,0.0,-42.74211883544922,0.6192429065704346,-0.5388213992118835,0.0,0.0,0.0,0.0,0.0,0.0,0.0,0.0,0.0,-0.00681737344712019,0.0005233872216194868,0.026577726006507874,0.0,0.0,0.0,0.0,0.0,0.0,0.0,0.0,0.0
1606990658013278592,3769304,1606987057134220334,imu_link,-0.002409517765045166,0.006745706312358379,-0.36437347531318665,0.9312254190444946,0.0,0.0,0.0,0.0,0.0,0.0,0.0,0.0,0.0,-42.74211883544922,0.6192429065704346,-0.5388213992118835,0.0,0.0,0.0,0.0,0.0,0.0,0.0,0.0,0.0,-0.00681737344712019,0.0005233872216194868,0.026577726006507874,0.0,0.0,0.0,0.0,0.0,0.0,0.0,0.0,0.0
1606990658013301463,3769305,1606987057134282131,imu_link,-0.002409296575933695,0.0067453994415700436,-0.36436933279037476,0.9312270283699036,0.0,0.0,0.0,0.0,0.0,0.0,0.0,0.0,0.0,-42.741607666015625,0.6192217469215393,-0.5387821793556213,0.0,0.0,0.0,0.0,0.0,0.0,0.0,0.0,0.0,-0.006474148016422987,0.003077326575294137,0.04587642103433609,0.0,0.0,0.0,0.0,0.0,0.0,0.0,0.0,0.0
1606990658013351482,3769306,1606987057134344181,imu_link,-0.002409296575933695,0.0067453994415700436,-0.36436933279037476,0.9312270283699036,0.0,0.0,0.0,0.0,0.0,0.0,0.0,0.0,0.0,-42.741607666015625,0.6192217469215393,-0.5387821793556213,0.0,0.0,0.0,0.0,0.0,0.0,0.0,0.0,0.0,-0.006474148016422987,0.003077326575294137,0.04587642103433609,0.0,0.0,0.0,0.0,0.0,0.0,0.0,0.0,0.0
1606990658013368586,3769307,1606987057134403875,imu_link,-0.0024096656125038862,0.006745821796357632,-0.36436912417411804,0.9312270879745483,0.0,0.0,0.0,0.0,0.0,0.0,0.0,0.0,0.0,-42.74158477783203,0.619251549243927,-0.5388391613960266,0.0,0.0,0.0,0.0,0.0,0.0,0.0,0.0,0.0,-0.005905915983021259,0.0041862959042191505,0.0666976198554039,0.0,0.0,0.0,0.0,0.0,0.0,0.0,0.0,0.0
1606990658013476857,3769308,1606987057134462939,imu_link,-0.0024096656125038862,0.006745821796357632,-0.36436912417411804,0.9312270879745483,0.0,0.0,0.0,0.0,0.0,0.0,0.0,0.0,0.0,-42.74158477783203,0.619251549243927,-0.5388391613960266,0.0,0.0,0.0,0.0,0.0,0.0,0.0,0.0,0.0,-0.005905915983021259,0.0041862959042191505,0.0666976198554039,0.0,0.0,0.0,0.0,0.0,0.0,0.0,0.0,0.0
1606990658013502958,3769309,1606987057147129671,imu_link,-0.0024123231414705515,0.0067426227033138275,-0.3643673360347748,0.9312278032302856,0.0,0.0,0.0,0.0,0.0,0.0,0.0,0.0,0.0,-42.74135971069336,0.6188002228736877,-0.5389879941940308,0.0,0.0,0.0,0.0,0.0,0.0,0.0,0.0,0.0,-0.007224361412227154,0.0005667831283062696,0.06248807907104492,0.0,0.0,0.0,0.0,0.0,0.0,0.0,0.0,0.0
1606990658013537519,3769310,1606987057147244508,imu_link,-0.0024123231414705515,0.0067426227033138275,-0.3643673360347748,0.9312278032302856,0.0,0.0,0.0,0.0,0.0,0.0,0.0,0.0,0.0,-42.74135971069336,0.6188002228736877,-0.5389879941940308,0.0,0.0,0.0,0.0,0.0,0.0,0.0,0.0,0.0,-0.007224361412227154,0.0005667831283062696,0.06248807907104492,0.0,0.0,0.0,0.0,0.0,0.0,0.0,0.0,0.0
1606990658013585411,3769311,1606987057147399479,imu_link,-0.0024123704060912132,0.006741789169609547,-0.36436864733695984,0.9312273263931274,0.0,0.0,0.0,0.0,0.0,0.0,0.0,0.0,0.0,-42.74152374267578,0.6187085509300232,-0.5389589667320251,0.0,0.0,0.0,0.0,0.0,0.0,0.0,0.0,0.0,-0.014573956839740276,-0.0006399059202522039,0.04592381790280342,0.0,0.0,0.0,0.0,0.0,0.0,0.0,0.0,0.0
1606990658013615111,3769312,1606987057147465616,imu_link,-0.0024123704060912132,0.006741789169609547,-0.36436864733695984,0.9312273263931274,0.0,0.0,0.0,0.0,0.0,0.0,0.0,0.0,0.0,-42.74152374267578,0.6187085509300232,-0.5389589667320251,0.0,0.0,0.0,0.0,0.0,0.0,0.0,0.0,0.0,-0.014573956839740276,-0.0006399059202522039,0.04592381790280342,0.0,0.0,0.0,0.0,0.0,0.0,0.0,0.0,0.0
1606990658013632835,3769313,1606987057147536841,imu_link,-0.0024142551701515913,0.006741221062839031,-0.3643685579299927,0.9312273263931274,0.0,0.0,0.0,0.0,0.0,0.0,0.0,0.0,0.0,-42.741512298583984,0.6185691952705383,-0.5391364097595215,0.0,0.0,0.0,0.0,0.0,0.0,0.0,0.0,0.0,-0.025889283046126366,-0.010552022606134415,0.04029861092567444,0.0,0.0,0.0,0.0,0.0,0.0,0.0,0.0,0.0
1606990658013660605,3769314,1606987057147620250,imu_link,-0.0024142551701515913,0.006741221062839031,-0.3643685579299927,0.9312273263931274,0.0,0.0,0.0,0.0,0.0,0.0,0.0,0.0,0.0,-42.741512298583984,0.6185691952705383,-0.5391364097595215,0.0,0.0,0.0,0.0,0.0,0.0,0.0,0.0,0.0,-0.025889283046126366,-0.010552022606134415,0.04029861092567444,0.0,0.0,0.0,0.0,0.0,0.0,0.0,0.0,0.0
1606990658013689889,3769315,1606987057147687353,imu_link,-0.002415414433926344,0.006738808937370777,-0.3643660843372345,0.9312283396720886,0.0,0.0,0.0,0.0,0.0,0.0,0.0,0.0,0.0,-42.74120330810547,0.61826491355896,-0.5391576290130615,0.0,0.0,0.0,0.0,0.0,0.0,0.0,0.0,0.0,-0.01828829012811184,-0.010661267675459385,0.023002013564109802,0.0,0.0,0.0,0.0,0.0,0.0,0.0,0.0,0.0
1606990658013717264,3769316,1606987057147751991,imu_link,-0.002415414433926344,0.006738808937370777,-0.3643660843372345,0.9312283396720886,0.0,0.0,0.0,0.0,0.0,0.0,0.0,0.0,0.0,-42.74120330810547,0.61826491355896,-0.5391576290130615,0.0,0.0,0.0,0.0,0.0,0.0,0.0,0.0,0.0,-0.01828829012811184,-0.010661267675459385,0.023002013564109802,0.0,0.0,0.0,0.0,0.0,0.0,0.0,0.0,0.0
1606990658013748502,3769317,1606987057147813020,imu_link,-0.0024147029034793377,0.006735155824571848,-0.36437442898750305,0.9312250018119812,0.0,0.0,0.0,0.0,0.0,0.0,0.0,0.0,0.0,-42.74223709106445,0.6178998351097107,-0.5389348268508911,0.0,0.0,0.0,0.0,0.0,0.0,0.0,0.0,0.0,-0.03023005835711956,0.0037937387824058533,-0.0010819847229868174,0.0,0.0,0.0,0.0,0.0,0.0,0.0,0.0,0.0
1606990658013772970,3769318,1606987057147876130,imu_link,-0.0024147029034793377,0.006735155824571848,-0.36437442898750305,0.9312250018119812,0.0,0.0,0.0,0.0,0.0,0.0,0.0,0.0,0.0,-42.74223709106445,0.6178998351097107,-0.5389348268508911,0.0,0.0,0.0,0.0,0.0,0.0,0.0,0.0,0.0,-0.03023005835711956,0.0037937387824058533,-0.0010819847229868174,0.0,0.0,0.0,0.0,0.0,0.0,0.0,0.0,0.0
1606990658013784557,3769319,1606987057147937291,imu_link,-0.0024147029034793377,0.006735155824571848,-0.36437442898750305,0.9312250018119812,0.0,0.0,0.0,0.0,0.0,0.0,0.0,0.0,0.0,-42.74223709106445,0.6178998351097107,-0.5389348268508911,0.0,0.0,0.0,0.0,0.0,0.0,0.0,0.0,0.0,-0.033353131264448166,-0.0038757543079555035,0.012257510796189308,0.0,0.0,0.0,0.0,0.0,0.0,0.0,0.0,0.0
1606990658064590089,3769320,1606987057160105498,imu_link,-0.0024147029034793377,0.006735155824571848,-0.36437442898750305,0.9312250018119812,0.0,0.0,0.0,0.0,0.0,0.0,0.0,0.0,0.0,-42.74223709106445,0.6178998351097107,-0.5389348268508911,0.0,0.0,0.0,0.0,0.0,0.0,0.0,0.0,0.0,-0.033353131264448166,-0.0038757543079555035,0.012257510796189308,0.0,0.0,0.0,0.0,0.0,0.0,0.0,0.0,0.0
1606990658064619944,3769321,1606987057160231609,imu_link,-0.0024168454110622406,0.006731215864419937,-0.36438584327697754,0.9312206506729126,0.0,0.0,0.0,0.0,0.0,0.0,0.0,0.0,0.0,-42.743629455566406,0.6173834204673767,-0.5390064120292664,0.0,0.0,0.0,0.0,0.0,0.0,0.0,0.0,0.0,-0.005219015292823315,-0.02759413979947567,0.024938134476542473,0.0,0.0,0.0,0.0,0.0,0.0,0.0,0.0,0.0
1606990658064631241,3769322,1606987057160370458,imu_link,-0.0024168454110622406,0.006731215864419937,-0.36438584327697754,0.9312206506729126,0.0,0.0,0.0,0.0,0.0,0.0,0.0,0.0,0.0,-42.743629455566406,0.6173834204673767,-0.5390064120292664,0.0,0.0,0.0,0.0,0.0,0.0,0.0,0.0,0.0,-0.005219015292823315,-0.02759413979947567,0.024938134476542473,0.0,0.0,0.0,0.0,0.0,0.0,0.0,0.0,0.0
1606990658064667551,3769323,1606987057160456551,imu_link,-0.002415465423837304,0.006731888744980097,-0.36438965797424316,0.9312191605567932,0.0,0.0,0.0,0.0,0.0,0.0,0.0,0.0,0.0,-42.74409484863281,0.6175106167793274,-0.5388897061347961,0.0,0.0,0.0,0.0,0.0,0.0,0.0,0.0,0.0,0.002924608765169978,-0.01837712898850441,0.027572426944971085,0.0,0.0,0.0,0.0,0.0,0.0,0.0,0.0,0.0
1606990658106122499,3769324,1606987057160522883,imu_link,-0.002415465423837304,0.006731888744980097,-0.36438965797424316,0.9312191605567932,0.0,0.0,0.0,0.0,0.0,0.0,0.0,0.0,0.0,-42.74409484863281,0.6175106167793274,-0.5388897061347961,0.0,0.0,0.0,0.0,0.0,0.0,0.0,0.0,0.0,0.002924608765169978,-0.01837712898850441,0.027572426944971085,0.0,0.0,0.0,0.0,0.0,0.0,0.0,0.0,0.0
1606990658106166565,3769325,1606987057160613368,imu_link,-0.002410869114100933,0.0067307897843420506,-0.36438825726509094,0.9312196969985962,0.0,0.0,0.0,0.0,0.0,0.0,0.0,0.0,0.0,-42.74392318725586,0.6175861358642578,-0.538352370262146,0.0,0.0,0.0,0.0,0.0,0.0,0.0,0.0,0.0,-0.006102230865508318,0.010097387246787548,0.042827703058719635,0.0,0.0,0.0,0.0,0.0,0.0,0.0,0.0,0.0
1606990658106182991,3769326,1606987057160688968,imu_link,-0.002410869114100933,0.0067307897843420506,-0.36438825726509094,0.9312196969985962,0.0,0.0,0.0,0.0,0.0,0.0,0.0,0.0,0.0,-42.74392318725586,0.6175861358642578,-0.538352370262146,0.0,0.0,0.0,0.0,0.0,0.0,0.0,0.0,0.0,-0.006102230865508318,0.010097387246787548,0.042827703058719635,0.0,0.0,0.0,0.0,0.0,0.0,0.0,0.0,0.0
1606990658106201590,3769327,1606987057160755919,imu_link,-0.002410812769085169,0.006730853579938412,-0.36438870429992676,0.9312195181846619,0.0,0.0,0.0,0.0,0.0,0.0,0.0,0.0,0.0,-42.74397659301758,0.6175950765609741,-0.5383493900299072,0.0,0.0,0.0,0.0,0.0,0.0,0.0,0.0,0.0,-0.011091631837189198,0.011987091042101383,0.05194120854139328,0.0,0.0,0.0,0.0,0.0,0.0,0.0,0.0,0.0
1606990658106217683,3769328,1606987057160826742,imu_link,-0.002410812769085169,0.006730853579938412,-0.36438870429992676,0.9312195181846619,0.0,0.0,0.0,0.0,0.0,0.0,0.0,0.0,0.0,-42.74397659301758,0.6175950765609741,-0.5383493900299072,0.0,0.0,0.0,0.0,0.0,0.0,0.0,0.0,0.0,-0.011091631837189198,0.011987091042101383,0.05194120854139328,0.0,0.0,0.0,0.0,0.0,0.0,0.0,0.0,0.0
1606990658121955055,3769329,1606987057160905648,imu_link,-0.002414233284071088,0.006729331333190203,-0.3643888533115387,0.9312194585800171,0.0,0.0,0.0,0.0,0.0,0.0,0.0,0.0,0.0,-42.74399948120117,0.617289662361145,-0.5386508703231812,0.0,0.0,0.0,0.0,0.0,0.0,0.0,0.0,0.0,-0.0034922200720757246,-0.0004034654994029552,0.03858538717031479,0.0,0.0,0.0,0.0,0.0,0.0,0.0,0.0,0.0
1606990658121992452,3769330,1606987057173907467,imu_link,-0.002414233284071088,0.006729331333190203,-0.3643888533115387,0.9312194585800171,0.0,0.0,0.0,0.0,0.0,0.0,0.0,0.0,0.0,-42.74399948120117,0.617289662361145,-0.5386508703231812,0.0,0.0,0.0,0.0,0.0,0.0,0.0,0.0,0.0,-0.0034922200720757246,-0.0004034654994029552,0.03858538717031479,0.0,0.0,0.0,0.0,0.0,0.0,0.0,0.0,0.0
1606990658122073242,3769331,1606987057174032749,imu_link,-0.0024151562247425318,0.006729106418788433,-0.36438673734664917,0.931220293045044,0.0,0.0,0.0,0.0,0.0,0.0,0.0,0.0,0.0,-42.743736267089844,0.6172283887863159,-0.5387385487556458,0.0,0.0,0.0,0.0,0.0,0.0,0.0,0.0,0.0,0.0008005592972040176,-0.0034697980154305696,0.04233968257904053,0.0,0.0,0.0,0.0,0.0,0.0,0.0,0.0,0.0
1606990658122100916,3769332,1606987057174173113,imu_link,-0.0024151562247425318,0.006729106418788433,-0.36438673734664917,0.931220293045044,0.0,0.0,0.0,0.0,0.0,0.0,0.0,0.0,0.0,-42.743736267089844,0.6172283887863159,-0.5387385487556458,0.0,0.0,0.0,0.0,0.0,0.0,0.0,0.0,0.0,0.0008005592972040176,-0.0034697980154305696,0.04233968257904053,0.0,0.0,0.0,0.0,0.0,0.0,0.0,0.0,0.0
1606990658127520508,3769333,1606987057174257629,imu_link,-0.0024144528433680534,0.00673154229298234,-0.36438703536987305,0.9312201738357544,0.0,0.0,0.0,0.0,0.0,0.0,0.0,0.0,0.0,-42.7437744140625,0.6175174713134766,-0.5387653708457947,0.0,0.0,0.0,0.0,0.0,0.0,0.0,0.0,0.0,-0.006263159681111574,0.010070784017443657,0.04791703447699547,0.0,0.0,0.0,0.0,0.0,0.0,0.0,0.0,0.0
1606990658127605749,3769334,1606987057174335947,imu_link,-0.0024144528433680534,0.00673154229298234,-0.36438703536987305,0.9312201738357544,0.0,0.0,0.0,0.0,0.0,0.0,0.0,0.0,0.0,-42.7437744140625,0.6175174713134766,-0.5387653708457947,0.0,0.0,0.0,0.0,0.0,0.0,0.0,0.0,0.0,-0.006263159681111574,0.010070784017443657,0.04791703447699547,0.0,0.0,0.0,0.0,0.0,0.0,0.0,0.0,0.0
1606990658127699474,3769335,1606987057174408414,imu_link,-0.0024137620348483324,0.006731419358402491,-0.3643878400325775,0.9312198162078857,0.0,0.0,0.0,0.0,0.0,0.0,0.0,0.0,0.0,-42.74387741088867,0.6175326704978943,-0.5386872291564941,0.0,0.0,0.0,0.0,0.0,0.0,0.0,0.0,0.0,-0.009594102390110493,0.008581307716667652,0.05943445488810539,0.0,0.0,0.0,0.0,0.0,0.0,0.0,0.0,0.0
1606990658127735087,3769336,1606987057174502533,imu_link,-0.0024137620348483324,0.006731419358402491,-0.3643878400325775,0.9312198162078857,0.0,0.0,0.0,0.0,0.0,0.0,0.0,0.0,0.0,-42.74387741088867,0.6175326704978943,-0.5386872291564941,0.0,0.0,0.0,0.0,0.0,0.0,0.0,0.0,0.0,-0.009594102390110493,0.008581307716667652,0.05943445488810539,0.0,0.0,0.0,0.0,0.0,0.0,0.0,0.0,0.0
1606990658127790079,3769337,1606987057174575409,imu_link,-0.002414856804534793,0.006731489673256874,-0.3643854558467865,0.9312207698822021,0.0,0.0,0.0,0.0,0.0,0.0,0.0,0.0,0.0,-42.74357986450195,0.6174958944320679,-0.538805365562439,0.0,0.0,0.0,0.0,0.0,0.0,0.0,0.0,0.0,0.006749994587153196,0.006846126168966293,0.05034845694899559,0.0,0.0,0.0,0.0,0.0,0.0,0.0,0.0,0.0
1606990658195489521,3769338,1606987057174732560,imu_link,-0.002414856804534793,0.006731489673256874,-0.3643854558467865,0.9312207698822021,0.0,0.0,0.0,0.0,0.0,0.0,0.0,0.0,0.0,-42.74357986450195,0.6174958944320679,-0.538805365562439,0.0,0.0,0.0,0.0,0.0,0.0,0.0,0.0,0.0,0.006749994587153196,0.006846126168966293,0.05034845694899559,0.0,0.0,0.0,0.0,0.0,0.0,0.0,0.0,0.0
1606990658195515782,3769339,1606987057174835571,imu_link,-0.002417447045445442,0.0067329807206988335,-0.3643852472305298,0.9312208890914917,0.0,0.0,0.0,0.0,0.0,0.0,0.0,0.0,0.0,-42.743560791015625,0.6175469756126404,-0.5391438603401184,0.0,0.0,0.0,0.0,0.0,0.0,0.0,0.0,0.0,0.016738228499889374,0.008498516865074635,0.04784122481942177,0.0,0.0,0.0,0.0,0.0,0.0,0.0,0.0,0.0
1606990658195608872,3769340,1606987057174981019,imu_link,-0.002417447045445442,0.0067329807206988335,-0.3643852472305298,0.9312208890914917,0.0,0.0,0.0,0.0,0.0,0.0,0.0,0.0,0.0,-42.743560791015625,0.6175469756126404,-0.5391438603401184,0.0,0.0,0.0,0.0,0.0,0.0,0.0,0.0,0.0,0.016738228499889374,0.008498516865074635,0.04784122481942177,0.0,0.0,0.0,0.0,0.0,0.0,0.0,0.0,0.0
1606990658195624040,3769341,1606987057187206305,imu_link,-0.002417128998786211,0.0067361220717430115,-0.3643874526023865,0.9312199950218201,0.0,0.0,0.0,0.0,0.0,0.0,0.0,0.0,0.0,-42.74383544921875,0.6178942322731018,-0.539242684841156,0.0,0.0,0.0,0.0,0.0,0.0,0.0,0.0,0.0,0.03330937400460243,0.006953611969947815,0.055900853127241135,0.0,0.0,0.0,0.0,0.0,0.0,0.0,0.0,0.0
1606990658203471569,3769342,1606987057187374712,imu_link,-0.002417128998786211,0.0067361220717430115,-0.3643874526023865,0.9312199950218201,0.0,0.0,0.0,0.0,0.0,0.0,0.0,0.0,0.0,-42.74383544921875,0.6178942322731018,-0.539242684841156,0.0,0.0,0.0,0.0,0.0,0.0,0.0,0.0,0.0,0.03330937400460243,0.006953611969947815,0.055900853127241135,0.0,0.0,0.0,0.0,0.0,0.0,0.0,0.0,0.0
1606990658203498825,3769343,1606987057187532767,imu_link,-0.0024167976807802916,0.006735516246408224,-0.3643847107887268,0.931221067905426,0.0,0.0,0.0,0.0,0.0,0.0,0.0,0.0,0.0,-42.743492126464844,0.6178449392318726,-0.5391800999641418,0.0,0.0,0.0,0.0,0.0,0.0,0.0,0.0,0.0,0.01367083191871643,0.003721473505720496,0.03347005322575569,0.0,0.0,0.0,0.0,0.0,0.0,0.0,0.0,0.0
1606990658203513426,3769344,1606987057187674873,imu_link,-0.0024167976807802916,0.006735516246408224,-0.3643847107887268,0.931221067905426,0.0,0.0,0.0,0.0,0.0,0.0,0.0,0.0,0.0,-42.743492126464844,0.6178449392318726,-0.5391800999641418,0.0,0.0,0.0,0.0,0.0,0.0,0.0,0.0,0.0,0.01367083191871643,0.003721473505720496,0.03347005322575569,0.0,0.0,0.0,0.0,0.0,0.0,0.0,0.0,0.0
1606990658203527035,3769345,1606987057187810650,imu_link,-0.002417642157524824,0.006736436393111944,-0.3643845319747925,0.9312211275100708,0.0,0.0,0.0,0.0,0.0,0.0,0.0,0.0,0.0,-42.743473052978516,0.6179079413414001,-0.5393086075782776,0.0,0.0,0.0,0.0,0.0,0.0,0.0,0.0,0.0,-0.02413497120141983,-0.0008462043479084969,0.030060727149248123,0.0,0.0,0.0,0.0,0.0,0.0,0.0,0.0,0.0
1606990658203546292,3769346,1606987057187945299,imu_link,-0.002417642157524824,0.006736436393111944,-0.3643845319747925,0.9312211275100708,0.0,0.0,0.0,0.0,0.0,0.0,0.0,0.0,0.0,-42.743473052978516,0.6179079413414001,-0.5393086075782776,0.0,0.0,0.0,0.0,0.0,0.0,0.0,0.0,0.0,-0.02413497120141983,-0.0008462043479084969,0.030060727149248123,0.0,0.0,0.0,0.0,0.0,0.0,0.0,0.0,0.0
1606990658203563236,3769347,1606987057188098066,imu_link,-0.0024178889580070972,0.006736983545124531,-0.36438462138175964,0.931221067905426,0.0,0.0,0.0,0.0,0.0,0.0,0.0,0.0,0.0,-42.74348449707031,0.6179561018943787,-0.5393577814102173,0.0,0.0,0.0,0.0,0.0,0.0,0.0,0.0,0.0,-0.0064208474941551685,0.01437024213373661,0.060259535908699036,0.0,0.0,0.0,0.0,0.0,0.0,0.0,0.0,0.0
1606990658203580188,3769348,1606987057188228257,imu_link,-0.0024178889580070972,0.006736983545124531,-0.36438462138175964,0.931221067905426,0.0,0.0,0.0,0.0,0.0,0.0,0.0,0.0,0.0,-42.74348449707031,0.6179561018943787,-0.5393577814102173,0.0,0.0,0.0,0.0,0.0,0.0,0.0,0.0,0.0,-0.0064208474941551685,0.01437024213373661,0.060259535908699036,0.0,0.0,0.0,0.0,0.0,0.0,0.0,0.0,0.0
1606990658203600678,3769349,1606987057188351648,imu_link,-0.0024225495290011168,0.006737292278558016,-0.3643832504749298,0.931221604347229,0.0,0.0,0.0,0.0,0.0,0.0,0.0,0.0,0.0,-42.74332046508789,0.6177951693534851,-0.5398672223091125,0.0,0.0,0.0,0.0,0.0,0.0,0.0,0.0,0.0,0.02859271876513958,0.013525117188692093,0.07694833725690842,0.0,0.0,0.0,0.0,0.0,0.0,0.0,0.0,0.0
1606990658203637117,3769350,1606987057188472973,imu_link,-0.0024225495290011168,0.006737292278558016,-0.3643832504749298,0.931221604347229,0.0,0.0,0.0,0.0,0.0,0.0,0.0,0.0,0.0,-42.74332046508789,0.6177951693534851,-0.5398672223091125,0.0,0.0,0.0,0.0,0.0,0.0,0.0,0.0,0.0,0.02859271876513958,0.013525117188692093,0.07694833725690842,0.0,0.0,0.0,0.0,0.0,0.0,0.0,0.0,0.0
1606990658221561532,3769351,1606987057188593061,imu_link,-0.002422996563836932,0.006737781688570976,-0.3643830716609955,0.9312216639518738,0.0,0.0,0.0,0.0,0.0,0.0,0.0,0.0,0.0,-42.7432975769043,0.6178287863731384,-0.5399351716041565,0.0,0.0,0.0,0.0,0.0,0.0,0.0,0.0,0.0,0.023442907258868217,-0.004879383370280266,0.05380024015903473,0.0,0.0,0.0,0.0,0.0,0.0,0.0,0.0,0.0
1606990658221633566,3769352,1606987057201224659,imu_link,-0.002422996563836932,0.006737781688570976,-0.3643830716609955,0.9312216639518738,0.0,0.0,0.0,0.0,0.0,0.0,0.0,0.0,0.0,-42.7432975769043,0.6178287863731384,-0.5399351716041565,0.0,0.0,0.0,0.0,0.0,0.0,0.0,0.0,0.0,0.023442907258868217,-0.004879383370280266,0.05380024015903473,0.0,0.0,0.0,0.0,0.0,0.0,0.0,0.0,0.0
1606990658221667327,3769353,1606987057201399463,imu_link,-0.0024207911919802427,0.006740584038197994,-0.3643820881843567,0.9312220215797424,0.0,0.0,0.0,0.0,0.0,0.0,0.0,0.0,0.0,-42.74317932128906,0.6182205677032471,-0.5398162603378296,0.0,0.0,0.0,0.0,0.0,0.0,0.0,0.0,0.0,0.004057665821164846,-0.00022748406627215445,0.04450269043445587,0.0,0.0,0.0,0.0,0.0,0.0,0.0,0.0,0.0
1606990658221686331,3769354,1606987057201539948,imu_link,-0.0024207911919802427,0.006740584038197994,-0.3643820881843567,0.9312220215797424,0.0,0.0,0.0,0.0,0.0,0.0,0.0,0.0,0.0,-42.74317932128906,0.6182205677032471,-0.5398162603378296,0.0,0.0,0.0,0.0,0.0,0.0,0.0,0.0,0.0,0.004057665821164846,-0.00022748406627215445,0.04450269043445587,0.0,0.0,0.0,0.0,0.0,0.0,0.0,0.0,0.0
1606990658221707202,3769355,1606987057201683266,imu_link,-0.0024218056350946426,0.006742272526025772,-0.3643803596496582,0.931222677230835,0.0,0.0,0.0,0.0,0.0,0.0,0.0,0.0,0.0,-42.74296951293945,0.6183593273162842,-0.5399938821792603,0.0,0.0,0.0,0.0,0.0,0.0,0.0,0.0,0.0,0.011784674599766731,0.002230391837656498,0.03247251361608505,0.0,0.0,0.0,0.0,0.0,0.0,0.0,0.0,0.0
1606990658238755142,3769356,1606987057201823257,imu_link,-0.0024218056350946426,0.006742272526025772,-0.3643803596496582,0.931222677230835,0.0,0.0,0.0,0.0,0.0,0.0,0.0,0.0,0.0,-42.74296951293945,0.6183593273162842,-0.5399938821792603,0.0,0.0,0.0,0.0,0.0,0.0,0.0,0.0,0.0,0.011784674599766731,0.002230391837656498,0.03247251361608505,0.0,0.0,0.0,0.0,0.0,0.0,0.0,0.0,0.0
1606990658238795672,3769357,1606987057201982390,imu_link,-0.002421450801193714,0.0067439028061926365,-0.36437731981277466,0.9312238693237305,0.0,0.0,0.0,0.0,0.0,0.0,0.0,0.0,0.0,-42.74259567260742,0.6185498237609863,-0.540022075176239,0.0,0.0,0.0,0.0,0.0,0.0,0.0,0.0,0.0,0.0007493338198401034,-0.0018639273475855589,0.03151746466755867,0.0,0.0,0.0,0.0,0.0,0.0,0.0,0.0,0.0
1606990658238823710,3769358,1606987057202117124,imu_link,-0.002421450801193714,0.0067439028061926365,-0.36437731981277466,0.9312238693237305,0.0,0.0,0.0,0.0,0.0,0.0,0.0,0.0,0.0,-42.74259567260742,0.6185498237609863,-0.540022075176239,0.0,0.0,0.0,0.0,0.0,0.0,0.0,0.0,0.0,0.0007493338198401034,-0.0018639273475855589,0.03151746466755867,0.0,0.0,0.0,0.0,0.0,0.0,0.0,0.0,0.0
1606990658238845169,3769359,1606987057202245065,imu_link,-0.0024223164655268192,0.006741933524608612,-0.3643774390220642,0.9312238097190857,0.0,0.0,0.0,0.0,0.0,0.0,0.0,0.0,0.0,-42.74260711669922,0.6183035373687744,-0.5400323271751404,0.0,0.0,0.0,0.0,0.0,0.0,0.0,0.0,0.0,0.0019176739733666182,0.0005343900993466377,0.05830598250031471,0.0,0.0,0.0,0.0,0.0,0.0,0.0,0.0,0.0
1606990658393871230,3769360,1606987057202370101,imu_link,-0.0024223164655268192,0.006741933524608612,-0.3643774390220642,0.9312238097190857,0.0,0.0,0.0,0.0,0.0,0.0,0.0,0.0,0.0,-42.74260711669922,0.6183035373687744,-0.5400323271751404,0.0,0.0,0.0,0.0,0.0,0.0,0.0,0.0,0.0,0.0019176739733666182,0.0005343900993466377,0.05830598250031471,0.0,0.0,0.0,0.0,0.0,0.0,0.0,0.0,0.0
1606990658393890021,3769361,1606987057202493066,imu_link,-0.002423201221972704,0.006744420155882835,-0.3643742501735687,0.931225061416626,0.0,0.0,0.0,0.0,0.0,0.0,0.0,0.0,0.0,-42.74222183227539,0.6185337901115417,-0.5402284264564514,0.0,0.0,0.0,0.0,0.0,0.0,0.0,0.0,0.0,0.014601885341107845,-0.004621562547981739,0.04617650806903839,0.0,0.0,0.0,0.0,0.0,0.0,0.0,0.0,0.0
1606990658393894367,3769362,1606987057202615838,imu_link,-0.002423201221972704,0.006744420155882835,-0.3643742501735687,0.931225061416626,0.0,0.0,0.0,0.0,0.0,0.0,0.0,0.0,0.0,-42.74222183227539,0.6185337901115417,-0.5402284264564514,0.0,0.0,0.0,0.0,0.0,0.0,0.0,0.0,0.0,0.014601885341107845,-0.004621562547981739,0.04617650806903839,0.0,0.0,0.0,0.0,0.0,0.0,0.0,0.0,0.0
1606990658393899604,3769363,1606987057214061652,imu_link,-0.0024227655958384275,0.006745310965925455,-0.36437663435935974,0.9312241077423096,0.0,0.0,0.0,0.0,0.0,0.0,0.0,0.0,0.0,-42.742515563964844,0.6186456084251404,-0.5402207374572754,0.0,0.0,0.0,0.0,0.0,0.0,0.0,0.0,0.0,0.0013313437812030315,-0.024173395708203316,0.028274672105908394,0.0,0.0,0.0,0.0,0.0,0.0,0.0,0.0,0.0
1606990658393921548,3769364,1606987057214235089,imu_link,-0.0024227655958384275,0.006745310965925455,-0.36437663435935974,0.9312241077423096,0.0,0.0,0.0,0.0,0.0,0.0,0.0,0.0,0.0,-42.742515563964844,0.6186456084251404,-0.5402207374572754,0.0,0.0,0.0,0.0,0.0,0.0,0.0,0.0,0.0,0.0013313437812030315,-0.024173395708203316,0.028274672105908394,0.0,0.0,0.0,0.0,0.0,0.0,0.0,0.0,0.0
1606990658403131162,3769365,1606987057214374532,imu_link,-0.0024184584617614746,0.0067448425106704235,-0.3643762767314911,0.9312242269515991,0.0,0.0,0.0,0.0,0.0,0.0,0.0,0.0,0.0,-42.74246597290039,0.6187756657600403,-0.5397413969039917,0.0,0.0,0.0,0.0,0.0,0.0,0.0,0.0,0.0,0.0014636630658060312,-0.014460545033216476,0.01726684905588627,0.0,0.0,0.0,0.0,0.0,0.0,0.0,0.0,0.0
1606990658403158643,3769366,1606987057214517916,imu_link,-0.0024184584617614746,0.0067448425106704235,-0.3643762767314911,0.9312242269515991,0.0,0.0,0.0,0.0,0.0,0.0,0.0,0.0,0.0,-42.74246597290039,0.6187756657600403,-0.5397413969039917,0.0,0.0,0.0,0.0,0.0,0.0,0.0,0.0,0.0,0.0014636630658060312,-0.014460545033216476,0.01726684905588627,0.0,0.0,0.0,0.0,0.0,0.0,0.0,0.0,0.0
1606990658403170913,3769367,1606987057214656931,imu_link,-0.0024213178548961878,0.0067441887222230434,-0.3643730878829956,0.9312255382537842,0.0,0.0,0.0,0.0,0.0,0.0,0.0,0.0,0.0,-42.7420768737793,0.618588387966156,-0.5400169491767883,0.0,0.0,0.0,0.0,0.0,0.0,0.0,0.0,0.0,-0.00279965135268867,0.004907848313450813,0.03137797489762306,0.0,0.0,0.0,0.0,0.0,0.0,0.0,0.0,0.0
1606990658403181355,3769368,1606987057214812550,imu_link,-0.0024213178548961878,0.0067441887222230434,-0.3643730878829956,0.9312255382537842,0.0,0.0,0.0,0.0,0.0,0.0,0.0,0.0,0.0,-42.7420768737793,0.618588387966156,-0.5400169491767883,0.0,0.0,0.0,0.0,0.0,0.0,0.0,0.0,0.0,-0.00279965135268867,0.004907848313450813,0.03137797489762306,0.0,0.0,0.0,0.0,0.0,0.0,0.0,0.0,0.0
1606990658412889246,3769369,1606987057214979724,imu_link,-0.002422333462163806,0.006744120270013809,-0.3643735647201538,0.9312252998352051,0.0,0.0,0.0,0.0,0.0,0.0,0.0,0.0,0.0,-42.74214172363281,0.6185383796691895,-0.5401228666305542,0.0,0.0,0.0,0.0,0.0,0.0,0.0,0.0,0.0,0.005589133594185114,0.004678413737565279,0.04836151376366615,0.0,0.0,0.0,0.0,0.0,0.0,0.0,0.0,0.0
1606990658412932541,3769370,1606987057215114155,imu_link,-0.002422333462163806,0.006744120270013809,-0.3643735647201538,0.9312252998352051,0.0,0.0,0.0,0.0,0.0,0.0,0.0,0.0,0.0,-42.74214172363281,0.6185383796691895,-0.5401228666305542,0.0,0.0,0.0,0.0,0.0,0.0,0.0,0.0,0.0,0.005589133594185114,0.004678413737565279,0.04836151376366615,0.0,0.0,0.0,0.0,0.0,0.0,0.0,0.0,0.0
1606990658412958140,3769371,1606987057215240642,imu_link,-0.0024193800054490566,0.006746137049049139,-0.36437615752220154,0.9312242865562439,0.0,0.0,0.0,0.0,0.0,0.0,0.0,0.0,0.0,-42.742454528808594,0.6188754439353943,-0.5398936867713928,0.0,0.0,0.0,0.0,0.0,0.0,0.0,0.0,0.0,0.013147888705134392,0.004491360858082771,0.03305802121758461,0.0,0.0,0.0,0.0,0.0,0.0,0.0,0.0,0.0
1606990658412976222,3769372,1606987057215366218,imu_link,-0.0024193800054490566,0.006746137049049139,-0.36437615752220154,0.9312242865562439,0.0,0.0,0.0,0.0,0.0,0.0,0.0,0.0,0.0,-42.742454528808594,0.6188754439353943,-0.5398936867713928,0.0,0.0,0.0,0.0,0.0,0.0,0.0,0.0,0.0,0.013147888705134392,0.004491360858082771,0.03305802121758461,0.0,0.0,0.0,0.0,0.0,0.0,0.0,0.0,0.0
1606990658428841919,3769373,1606987057227332691,imu_link,-0.002420583972707391,0.006750940345227718,-0.3643837869167328,0.9312213063240051,0.0,0.0,0.0,0.0,0.0,0.0,0.0,0.0,0.0,-42.7433967590332,0.6193333268165588,-0.5402278304100037,0.0,0.0,0.0,0.0,0.0,0.0,0.0,0.0,0.0,0.004607764538377523,0.0007329843356274068,0.05643231049180031,0.0,0.0,0.0,0.0,0.0,0.0,0.0,0.0,0.0
1606990658428893952,3769374,1606987057227506083,imu_link,-0.002420583972707391,0.006750940345227718,-0.3643837869167328,0.9312213063240051,0.0,0.0,0.0,0.0,0.0,0.0,0.0,0.0,0.0,-42.7433967590332,0.6193333268165588,-0.5402278304100037,0.0,0.0,0.0,0.0,0.0,0.0,0.0,0.0,0.0,0.004607764538377523,0.0007329843356274068,0.05643231049180031,0.0,0.0,0.0,0.0,0.0,0.0,0.0,0.0,0.0
1606990658428936878,3769375,1606987057227659287,imu_link,-0.0024209492839872837,0.006751375738531351,-0.3643825948238373,0.9312217235565186,0.0,0.0,0.0,0.0,0.0,0.0,0.0,0.0,0.0,-42.74325180053711,0.6193651556968689,-0.540284276008606,0.0,0.0,0.0,0.0,0.0,0.0,0.0,0.0,0.0,-0.006664669141173363,0.010462995618581772,0.06808686256408691,0.0,0.0,0.0,0.0,0.0,0.0,0.0,0.0,0.0
1606990658428955257,3769376,1606987057227806443,imu_link,-0.0024209492839872837,0.006751375738531351,-0.3643825948238373,0.9312217235565186,0.0,0.0,0.0,0.0,0.0,0.0,0.0,0.0,0.0,-42.74325180053711,0.6193651556968689,-0.540284276008606,0.0,0.0,0.0,0.0,0.0,0.0,0.0,0.0,0.0,-0.006664669141173363,0.010462995618581772,0.06808686256408691,0.0,0.0,0.0,0.0,0.0,0.0,0.0,0.0,0.0
1606990658428981561,3769377,1606987057227948251,imu_link,-0.0024201348423957825,0.006750930100679398,-0.3643878102302551,0.9312196969985962,0.0,0.0,0.0,0.0,0.0,0.0,0.0,0.0,0.0,-42.743896484375,0.6193486452102661,-0.5401821732521057,0.0,0.0,0.0,0.0,0.0,0.0,0.0,0.0,0.0,-0.01924194023013115,0.004184867721050978,0.05438626930117607,0.0,0.0,0.0,0.0,0.0,0.0,0.0,0.0,0.0
1606990658472714572,3769378,1606987057228088937,imu_link,-0.0024201348423957825,0.006750930100679398,-0.3643878102302551,0.9312196969985962,0.0,0.0,0.0,0.0,0.0,0.0,0.0,0.0,0.0,-42.743896484375,0.6193486452102661,-0.5401821732521057,0.0,0.0,0.0,0.0,0.0,0.0,0.0,0.0,0.0,-0.01924194023013115,0.004184867721050978,0.05438626930117607,0.0,0.0,0.0,0.0,0.0,0.0,0.0,0.0,0.0
1606990658472734909,3769379,1606987057228245609,imu_link,-0.0024199695326387882,0.006752780172973871,-0.3643878102302551,0.9312196969985962,0.0,0.0,0.0,0.0,0.0,0.0,0.0,0.0,0.0,-42.743896484375,0.6195529103279114,-0.5402418375015259,0.0,0.0,0.0,0.0,0.0,0.0,0.0,0.0,0.0,-0.007275808602571487,-0.01926293596625328,0.025792932137846947,0.0,0.0,0.0,0.0,0.0,0.0,0.0,0.0,0.0
1606990658472794536,3769380,1606987057228388991,imu_link,-0.0024199695326387882,0.006752780172973871,-0.3643878102302551,0.9312196969985962,0.0,0.0,0.0,0.0,0.0,0.0,0.0,0.0,0.0,-42.743896484375,0.6195529103279114,-0.5402418375015259,0.0,0.0,0.0,0.0,0.0,0.0,0.0,0.0,0.0,-0.007275808602571487,-0.01926293596625328,0.025792932137846947,0.0,0.0,0.0,0.0,0.0,0.0,0.0,0.0,0.0
1606990658472811955,3769381,1606987057228533220,imu_link,-0.002417239360511303,0.006750896573066711,-0.3643903136253357,0.9312187433242798,0.0,0.0,0.0,0.0,0.0,0.0,0.0,0.0,0.0,-42.74420166015625,0.6194645166397095,-0.5398734211921692,0.0,0.0,0.0,0.0,0.0,0.0,0.0,0.0,0.0,-0.01516561210155487,-0.024004235863685608,0.021332954987883568,0.0,0.0,0.0,0.0,0.0,0.0,0.0,0.0,0.0
1606990658485162035,3769382,1606987057228677454,imu_link,-0.002417239360511303,0.006750896573066711,-0.3643903136253357,0.9312187433242798,0.0,0.0,0.0,0.0,0.0,0.0,0.0,0.0,0.0,-42.74420166015625,0.6194645166397095,-0.5398734211921692,0.0,0.0,0.0,0.0,0.0,0.0,0.0,0.0,0.0,-0.01516561210155487,-0.024004235863685608,0.021332954987883568,0.0,0.0,0.0,0.0,0.0,0.0,0.0,0.0,0.0
1606990658485189338,3769383,1606987057228820971,imu_link,-0.0024147608783096075,0.006750968284904957,-0.36438968777656555,0.9312189817428589,0.0,0.0,0.0,0.0,0.0,0.0,0.0,0.0,0.0,-42.74412536621094,0.6195760369300842,-0.5396114587783813,0.0,0.0,0.0,0.0,0.0,0.0,0.0,0.0,0.0,-0.021685386076569557,-0.02058546431362629,0.051022857427597046,0.0,0.0,0.0,0.0,0.0,0.0,0.0,0.0,0.0
1606990658485284791,3769384,1606987057241363854,imu_link,-0.0024147608783096075,0.006750968284904957,-0.36438968777656555,0.9312189817428589,0.0,0.0,0.0,0.0,0.0,0.0,0.0,0.0,0.0,-42.74412536621094,0.6195760369300842,-0.5396114587783813,0.0,0.0,0.0,0.0,0.0,0.0,0.0,0.0,0.0,-0.021685386076569557,-0.02058546431362629,0.051022857427597046,0.0,0.0,0.0,0.0,0.0,0.0,0.0,0.0,0.0
1606990658485306528,3769385,1606987057241573805,imu_link,-0.0024122262839227915,0.006748192943632603,-0.3643918037414551,0.9312182068824768,0.0,0.0,0.0,0.0,0.0,0.0,0.0,0.0,0.0,-42.7443733215332,0.6193845272064209,-0.5392264723777771,0.0,0.0,0.0,0.0,0.0,0.0,0.0,0.0,0.0,-0.011196925304830074,-0.005512601230293512,0.047282010316848755,0.0,0.0,0.0,0.0,0.0,0.0,0.0,0.0,0.0
1606990658485350658,3769386,1606987057241742580,imu_link,-0.0024122262839227915,0.006748192943632603,-0.3643918037414551,0.9312182068824768,0.0,0.0,0.0,0.0,0.0,0.0,0.0,0.0,0.0,-42.7443733215332,0.6193845272064209,-0.5392264723777771,0.0,0.0,0.0,0.0,0.0,0.0,0.0,0.0,0.0,-0.011196925304830074,-0.005512601230293512,0.047282010316848755,0.0,0.0,0.0,0.0,0.0,0.0,0.0,0.0,0.0
1606990658524020491,3769387,1606987057241904906,imu_link,-0.002411016495898366,0.006748590152710676,-0.364391952753067,0.931218147277832,0.0,0.0,0.0,0.0,0.0,0.0,0.0,0.0,0.0,-42.74440002441406,0.6194773316383362,-0.5391141176223755,0.0,0.0,0.0,0.0,0.0,0.0,0.0,0.0,0.0,-0.0017730341060087085,0.011802366934716702,0.07395106554031372,0.0,0.0,0.0,0.0,0.0,0.0,0.0,0.0,0.0
1606990658524060124,3769388,1606987057242063077,imu_link,-0.002411016495898366,0.006748590152710676,-0.364391952753067,0.931218147277832,0.0,0.0,0.0,0.0,0.0,0.0,0.0,0.0,0.0,-42.74440002441406,0.6194773316383362,-0.5391141176223755,0.0,0.0,0.0,0.0,0.0,0.0,0.0,0.0,0.0,-0.0017730341060087085,0.011802366934716702,0.07395106554031372,0.0,0.0,0.0,0.0,0.0,0.0,0.0,0.0,0.0
1606990658524090941,3769389,1606987057242218336,imu_link,-0.0024120283778756857,0.006750669330358505,-0.3643909692764282,0.9312185049057007,0.0,0.0,0.0,0.0,0.0,0.0,0.0,0.0,0.0,-42.74427795410156,0.6196575164794922,-0.5393083691596985,0.0,0.0,0.0,0.0,0.0,0.0,0.0,0.0,0.0,-0.005409735254943371,0.0035744993947446346,0.08623620867729187,0.0,0.0,0.0,0.0,0.0,0.0,0.0,0.0,0.0
1606990658524110556,3769390,1606987057242392830,imu_link,-0.0024120283778756857,0.006750669330358505,-0.3643909692764282,0.9312185049057007,0.0,0.0,0.0,0.0,0.0,0.0,0.0,0.0,0.0,-42.74427795410156,0.6196575164794922,-0.5393083691596985,0.0,0.0,0.0,0.0,0.0,0.0,0.0,0.0,0.0,-0.005409735254943371,0.0035744993947446346,0.08623620867729187,0.0,0.0,0.0,0.0,0.0,0.0,0.0,0.0,0.0
1606990658538325515,3769391,1606987057242545528,imu_link,-0.0024132407270371914,0.00674982788041234,-0.36439263820648193,0.9312178492546082,0.0,0.0,0.0,0.0,0.0,0.0,0.0,0.0,0.0,-42.744483947753906,0.619516134262085,-0.5394035577774048,0.0,0.0,0.0,0.0,0.0,0.0,0.0,0.0,0.0,-0.017049042508006096,-0.003986172378063202,0.053465958684682846,0.0,0.0,0.0,0.0,0.0,0.0,0.0,0.0,0.0
1606990658538366193,3769392,1606987057242688915,imu_link,-0.0024132407270371914,0.00674982788041234,-0.36439263820648193,0.9312178492546082,0.0,0.0,0.0,0.0,0.0,0.0,0.0,0.0,0.0,-42.744483947753906,0.619516134262085,-0.5394035577774048,0.0,0.0,0.0,0.0,0.0,0.0,0.0,0.0,0.0,-0.017049042508006096,-0.003986172378063202,0.053465958684682846,0.0,0.0,0.0,0.0,0.0,0.0,0.0,0.0,0.0
1606990658538405556,3769393,1606987057242831721,imu_link,-0.0024138190783560276,0.0067472984082996845,-0.36439162492752075,0.9312182664871216,0.0,0.0,0.0,0.0,0.0,0.0,0.0,0.0,0.0,-42.744354248046875,0.6192226409912109,-0.5393589735031128,0.0,0.0,0.0,0.0,0.0,0.0,0.0,0.0,0.0,-0.021982742473483086,-0.015516379848122597,0.035928353667259216,0.0,0.0,0.0,0.0,0.0,0.0,0.0,0.0,0.0
1606990658538422391,3769394,1606987057243013151,imu_link,-0.0024138190783560276,0.0067472984082996845,-0.36439162492752075,0.9312182664871216,0.0,0.0,0.0,0.0,0.0,0.0,0.0,0.0,0.0,-42.744354248046875,0.6192226409912109,-0.5393589735031128,0.0,0.0,0.0,0.0,0.0,0.0,0.0,0.0,0.0,-0.021982742473483086,-0.015516379848122597,0.035928353667259216,0.0,0.0,0.0,0.0,0.0,0.0,0.0,0.0,0.0
1606990658538452930,3769395,1606987057254880856,imu_link,-0.002412421628832817,0.006747279781848192,-0.3643924295902252,0.9312179684638977,0.0,0.0,0.0,0.0,0.0,0.0,0.0,0.0,0.0,-42.74445343017578,0.619278609752655,-0.5392096042633057,0.0,0.0,0.0,0.0,0.0,0.0,0.0,0.0,0.0,-0.029600685462355614,-0.009510851465165615,0.03063390776515007,0.0,0.0,0.0,0.0,0.0,0.0,0.0,0.0,0.0
1606990658624809244,3769396,1606987057255150004,imu_link,-0.002412421628832817,0.006747279781848192,-0.3643924295902252,0.9312179684638977,0.0,0.0,0.0,0.0,0.0,0.0,0.0,0.0,0.0,-42.74445343017578,0.619278609752655,-0.5392096042633057,0.0,0.0,0.0,0.0,0.0,0.0,0.0,0.0,0.0,-0.029600685462355614,-0.009510851465165615,0.03063390776515007,0.0,0.0,0.0,0.0,0.0,0.0,0.0,0.0,0.0
1606990658624865238,3769397,1606987057255328502,imu_link,-0.0024128486402332783,0.006744322832673788,-0.3643949329853058,0.9312170147895813,0.0,0.0,0.0,0.0,0.0,0.0,0.0,0.0,0.0,-42.744754791259766,0.6189437508583069,-0.5391333699226379,0.0,0.0,0.0,0.0,0.0,0.0,0.0,0.0,0.0,-0.01690852828323841,0.004601071588695049,0.05087694898247719,0.0,0.0,0.0,0.0,0.0,0.0,0.0,0.0,0.0
1606990658624882799,3769398,1606987057255494466,imu_link,-0.0024128486402332783,0.006744322832673788,-0.3643949329853058,0.9312170147895813,0.0,0.0,0.0,0.0,0.0,0.0,0.0,0.0,0.0,-42.744754791259766,0.6189437508583069,-0.5391333699226379,0.0,0.0,0.0,0.0,0.0,0.0,0.0,0.0,0.0,-0.01690852828323841,0.004601071588695049,0.05087694898247719,0.0,0.0,0.0,0.0,0.0,0.0,0.0,0.0,0.0
1606990658624895956,3769399,1606987057255657950,imu_link,-0.002413572045043111,0.006744714919477701,-0.3643966019153595,0.9312163591384888,0.0,0.0,0.0,0.0,0.0,0.0,0.0,0.0,0.0,-42.744964599609375,0.6189544200897217,-0.5392280220985413,0.0,0.0,0.0,0.0,0.0,0.0,0.0,0.0,0.0,0.0176459439098835,-0.0006560749607160687,0.042551033198833466,0.0,0.0,0.0,0.0,0.0,0.0,0.0,0.0,0.0
1606990658633676130,3769400,1606987057255810377,imu_link,-0.002413572045043111,0.006744714919477701,-0.3643966019153595,0.9312163591384888,0.0,0.0,0.0,0.0,0.0,0.0,0.0,0.0,0.0,-42.744964599609375,0.6189544200897217,-0.5392280220985413,0.0,0.0,0.0,0.0,0.0,0.0,0.0,0.0,0.0,0.0176459439098835,-0.0006560749607160687,0.042551033198833466,0.0,0.0,0.0,0.0,0.0,0.0,0.0,0.0,0.0
1606990658633733845,3769401,1606987057255975961,imu_link,-0.002413020934909582,0.006746472325176001,-0.36439815163612366,0.931215763092041,0.0,0.0,0.0,0.0,0.0,0.0,0.0,0.0,0.0,-42.74515914916992,0.6191641092300415,-0.5392436385154724,0.0,0.0,0.0,0.0,0.0,0.0,0.0,0.0,0.0,0.03284091874957085,-0.006762593984603882,0.03639918938279152,0.0,0.0,0.0,0.0,0.0,0.0,0.0,0.0,0.0
1606990658633787089,3769402,1606987057256120310,imu_link,-0.002413020934909582,0.006746472325176001,-0.36439815163612366,0.931215763092041,0.0,0.0,0.0,0.0,0.0,0.0,0.0,0.0,0.0,-42.74515914916992,0.6191641092300415,-0.5392436385154724,0.0,0.0,0.0,0.0,0.0,0.0,0.0,0.0,0.0,0.03284091874957085,-0.006762593984603882,0.03639918938279152,0.0,0.0,0.0,0.0,0.0,0.0,0.0,0.0,0.0
1606990658633802729,3769403,1606987057256278280,imu_link,-0.0024134600535035133,0.006748678628355265,-0.36439743638038635,0.9312160015106201,0.0,0.0,0.0,0.0,0.0,0.0,0.0,0.0,0.0,-42.74507522583008,0.6193816065788269,-0.5393822193145752,0.0,0.0,0.0,0.0,0.0,0.0,0.0,0.0,0.0,0.024272190406918526,-0.0019510568818077445,0.05684185028076172,0.0,0.0,0.0,0.0,0.0,0.0,0.0,0.0,0.0
1606990658633817493,3769404,1606987057256422519,imu_link,-0.0024134600535035133,0.006748678628355265,-0.36439743638038635,0.9312160015106201,0.0,0.0,0.0,0.0,0.0,0.0,0.0,0.0,0.0,-42.74507522583008,0.6193816065788269,-0.5393822193145752,0.0,0.0,0.0,0.0,0.0,0.0,0.0,0.0,0.0,0.024272190406918526,-0.0019510568818077445,0.05684185028076172,0.0,0.0,0.0,0.0,0.0,0.0,0.0,0.0,0.0
1606990658649087971,3769405,1606987057256559912,imu_link,-0.002411348046734929,0.006752239540219307,-0.36439862847328186,0.9312155246734619,0.0,0.0,0.0,0.0,0.0,0.0,0.0,0.0,0.0,-42.74522018432617,0.6198490858078003,-0.5393063426017761,0.0,0.0,0.0,0.0,0.0,0.0,0.0,0.0,0.0,0.022570772096514702,0.009952233172953129,0.04663781449198723,0.0,0.0,0.0,0.0,0.0,0.0,0.0,0.0,0.0
1606990658649130443,3769406,1606987057268612701,imu_link,-0.002411348046734929,0.006752239540219307,-0.36439862847328186,0.9312155246734619,0.0,0.0,0.0,0.0,0.0,0.0,0.0,0.0,0.0,-42.74522018432617,0.6198490858078003,-0.5393063426017761,0.0,0.0,0.0,0.0,0.0,0.0,0.0,0.0,0.0,0.022570772096514702,0.009952233172953129,0.04663781449198723,0.0,0.0,0.0,0.0,0.0,0.0,0.0,0.0,0.0
1606990658649178822,3769407,1606987057268810794,imu_link,-0.002411348046734929,0.006752239540219307,-0.36439862847328186,0.9312155246734619,0.0,0.0,0.0,0.0,0.0,0.0,0.0,0.0,0.0,-42.74522018432617,0.6198490858078003,-0.5393063426017761,0.0,0.0,0.0,0.0,0.0,0.0,0.0,0.0,0.0,0.02430458553135395,0.0032220103312283754,0.03542359173297882,0.0,0.0,0.0,0.0,0.0,0.0,0.0,0.0,0.0
1606990658649200023,3769408,1606987057268965342,imu_link,-0.002411348046734929,0.006752239540219307,-0.36439862847328186,0.9312155246734619,0.0,0.0,0.0,0.0,0.0,0.0,0.0,0.0,0.0,-42.74522018432617,0.6198490858078003,-0.5393063426017761,0.0,0.0,0.0,0.0,0.0,0.0,0.0,0.0,0.0,0.02430458553135395,0.0032220103312283754,0.03542359173297882,0.0,0.0,0.0,0.0,0.0,0.0,0.0,0.0,0.0
1606990658649224130,3769409,1606987057269127277,imu_link,-0.002409515203908086,0.006756225600838661,-0.3644005358219147,0.9312146902084351,0.0,0.0,0.0,0.0,0.0,0.0,0.0,0.0,0.0,-42.745460510253906,0.6203498244285583,-0.5392785668373108,0.0,0.0,0.0,0.0,0.0,0.0,0.0,0.0,0.0,0.031099194660782814,-0.00428126472979784,0.03698139637708664,0.0,0.0,0.0,0.0,0.0,0.0,0.0,0.0,0.0
1606990658649261434,3769410,1606987057269284205,imu_link,-0.002409515203908086,0.006756225600838661,-0.3644005358219147,0.9312146902084351,0.0,0.0,0.0,0.0,0.0,0.0,0.0,0.0,0.0,-42.745460510253906,0.6203498244285583,-0.5392785668373108,0.0,0.0,0.0,0.0,0.0,0.0,0.0,0.0,0.0,0.031099194660782814,-0.00428126472979784,0.03698139637708664,0.0,0.0,0.0,0.0,0.0,0.0,0.0,0.0,0.0
1606990658649294255,3769411,1606987057269460317,imu_link,-0.002407667925581336,0.0067583778873085976,-0.36440274119377136,0.9312138557434082,0.0,0.0,0.0,0.0,0.0,0.0,0.0,0.0,0.0,-42.745731353759766,0.620655357837677,-0.5391728281974792,0.0,0.0,0.0,0.0,0.0,0.0,0.0,0.0,0.0,0.03102162480354309,-0.015957891941070557,0.06366900354623795,0.0,0.0,0.0,0.0,0.0,0.0,0.0,0.0,0.0
1606990658649312888,3769412,1606987057269605248,imu_link,-0.002407667925581336,0.0067583778873085976,-0.36440274119377136,0.9312138557434082,0.0,0.0,0.0,0.0,0.0,0.0,0.0,0.0,0.0,-42.745731353759766,0.620655357837677,-0.5391728281974792,0.0,0.0,0.0,0.0,0.0,0.0,0.0,0.0,0.0,0.03102162480354309,-0.015957891941070557,0.06366900354623795,0.0,0.0,0.0,0.0,0.0,0.0,0.0,0.0,0.0
1606990658649327204,3769413,1606987057269747497,imu_link,-0.00240258383564651,0.00676368921995163,-0.36440783739089966,0.9312118291854858,0.0,0.0,0.0,0.0,0.0,0.0,0.0,0.0,0.0,-42.746360778808594,0.6214314699172974,-0.5388554930686951,0.0,0.0,0.0,0.0,0.0,0.0,0.0,0.0,0.0,0.01589319109916687,-0.010513169690966606,0.06958256661891937,0.0,0.0,0.0,0.0,0.0,0.0,0.0,0.0,0.0
1606990658751380050,3769414,1606987057269886834,imu_link,-0.00240258383564651,0.00676368921995163,-0.36440783739089966,0.9312118291854858,0.0,0.0,0.0,0.0,0.0,0.0,0.0,0.0,0.0,-42.746360778808594,0.6214314699172974,-0.5388554930686951,0.0,0.0,0.0,0.0,0.0,0.0,0.0,0.0,0.0,0.01589319109916687,-0.010513169690966606,0.06958256661891937,0.0,0.0,0.0,0.0,0.0,0.0,0.0,0.0,0.0
1606990658751409384,3769415,1606987057270029369,imu_link,-0.002404217142611742,0.0067625949159264565,-0.3644087314605713,0.9312114715576172,0.0,0.0,0.0,0.0,0.0,0.0,0.0,0.0,0.0,-42.74647521972656,0.6212460398674011,-0.5389846563339233,0.0,0.0,0.0,0.0,0.0,0.0,0.0,0.0,0.0,0.0064229234121739864,0.005490409675985575,0.038068097084760666,0.0,0.0,0.0,0.0,0.0,0.0,0.0,0.0,0.0
1606990658751416367,3769416,1606987057270169729,imu_link,-0.002404217142611742,0.0067625949159264565,-0.3644087314605713,0.9312114715576172,0.0,0.0,0.0,0.0,0.0,0.0,0.0,0.0,0.0,-42.74647521972656,0.6212460398674011,-0.5389846563339233,0.0,0.0,0.0,0.0,0.0,0.0,0.0,0.0,0.0,0.0064229234121739864,0.005490409675985575,0.038068097084760666,0.0,0.0,0.0,0.0,0.0,0.0,0.0,0.0,0.0
1606990658751434192,3769417,1606987057281695829,imu_link,-0.00240544555708766,0.006762366741895676,-0.3644145727157593,0.9312092065811157,0.0,0.0,0.0,0.0,0.0,0.0,0.0,0.0,0.0,-42.7471923828125,0.621167004108429,-0.5391101241111755,0.0,0.0,0.0,0.0,0.0,0.0,0.0,0.0,0.0,0.001025497098453343,-0.003384421346709132,0.03759797662496567,0.0,0.0,0.0,0.0,0.0,0.0,0.0,0.0,0.0
1606990658759918030,3769418,1606987057281852909,imu_link,-0.00240544555708766,0.006762366741895676,-0.3644145727157593,0.9312092065811157,0.0,0.0,0.0,0.0,0.0,0.0,0.0,0.0,0.0,-42.7471923828125,0.621167004108429,-0.5391101241111755,0.0,0.0,0.0,0.0,0.0,0.0,0.0,0.0,0.0,0.001025497098453343,-0.003384421346709132,0.03759797662496567,0.0,0.0,0.0,0.0,0.0,0.0,0.0,0.0,0.0
1606990658760006192,3769419,1606987057281982452,imu_link,-0.002405928447842598,0.006763293407857418,-0.36441487073898315,0.9312090873718262,0.0,0.0,0.0,0.0,0.0,0.0,0.0,0.0,0.0,-42.74722671508789,0.6212455630302429,-0.5392005443572998,0.0,0.0,0.0,0.0,0.0,0.0,0.0,0.0,0.0,-0.0014153223019093275,-0.012171885930001736,0.04193338379263878,0.0,0.0,0.0,0.0,0.0,0.0,0.0,0.0,0.0
1606990658760025901,3769420,1606987057282113351,imu_link,-0.002405928447842598,0.006763293407857418,-0.36441487073898315,0.9312090873718262,0.0,0.0,0.0,0.0,0.0,0.0,0.0,0.0,0.0,-42.74722671508789,0.6212455630302429,-0.5392005443572998,0.0,0.0,0.0,0.0,0.0,0.0,0.0,0.0,0.0,-0.0014153223019093275,-0.012171885930001736,0.04193338379263878,0.0,0.0,0.0,0.0,0.0,0.0,0.0,0.0,0.0
1606990658760043299,3769421,1606987057282241508,imu_link,-0.00240532960742712,0.006762571632862091,-0.36442282795906067,0.9312059879302979,0.0,0.0,0.0,0.0,0.0,0.0,0.0,0.0,0.0,-42.74820327758789,0.6211889386177063,-0.5391117930412292,0.0,0.0,0.0,0.0,0.0,0.0,0.0,0.0,0.0,-0.005303604062646627,-0.0076805176213383675,0.05606937035918236,0.0,0.0,0.0,0.0,0.0,0.0,0.0,0.0,0.0
1606990658760066529,3769422,1606987057282381833,imu_link,-0.00240532960742712,0.006762571632862091,-0.36442282795906067,0.9312059879302979,0.0,0.0,0.0,0.0,0.0,0.0,0.0,0.0,0.0,-42.74820327758789,0.6211889386177063,-0.5391117930412292,0.0,0.0,0.0,0.0,0.0,0.0,0.0,0.0,0.0,-0.005303604062646627,-0.0076805176213383675,0.05606937035918236,0.0,0.0,0.0,0.0,0.0,0.0,0.0,0.0,0.0
1606990658776767154,3769423,1606987057282508033,imu_link,-0.0024060846772044897,0.00676195090636611,-0.3644212484359741,0.9312065839767456,0.0,0.0,0.0,0.0,0.0,0.0,0.0,0.0,0.0,-42.74801254272461,0.6210920214653015,-0.5391653776168823,0.0,0.0,0.0,0.0,0.0,0.0,0.0,0.0,0.0,-0.01984703354537487,0.008814121596515179,0.07039736956357956,0.0,0.0,0.0,0.0,0.0,0.0,0.0,0.0,0.0
1606990658776793934,3769424,1606987057282622610,imu_link,-0.0024060846772044897,0.00676195090636611,-0.3644212484359741,0.9312065839767456,0.0,0.0,0.0,0.0,0.0,0.0,0.0,0.0,0.0,-42.74801254272461,0.6210920214653015,-0.5391653776168823,0.0,0.0,0.0,0.0,0.0,0.0,0.0,0.0,0.0,-0.01984703354537487,0.008814121596515179,0.07039736956357956,0.0,0.0,0.0,0.0,0.0,0.0,0.0,0.0,0.0
1606990658776820749,3769425,1606987057282735740,imu_link,-0.0024094232358038425,0.006757007446140051,-0.36442986130714417,0.9312032461166382,0.0,0.0,0.0,0.0,0.0,0.0,0.0,0.0,0.0,-42.74907302856445,0.6204200983047485,-0.5393209457397461,0.0,0.0,0.0,0.0,0.0,0.0,0.0,0.0,0.0,-0.013438504189252853,0.01062232069671154,0.0412881039083004,0.0,0.0,0.0,0.0,0.0,0.0,0.0,0.0,0.0
1606990658776828285,3769426,1606987057282845205,imu_link,-0.0024094232358038425,0.006757007446140051,-0.36442986130714417,0.9312032461166382,0.0,0.0,0.0,0.0,0.0,0.0,0.0,0.0,0.0,-42.74907302856445,0.6204200983047485,-0.5393209457397461,0.0,0.0,0.0,0.0,0.0,0.0,0.0,0.0,0.0,-0.013438504189252853,0.01062232069671154,0.0412881039083004,0.0,0.0,0.0,0.0,0.0,0.0,0.0,0.0,0.0
1606990658784137417,3769427,1606987057295006404,imu_link,-0.0024108258076012135,0.006758001632988453,-0.3644309937953949,0.9312028288841248,0.0,0.0,0.0,0.0,0.0,0.0,0.0,0.0,0.0,-42.749210357666016,0.6204670071601868,-0.5395128130912781,0.0,0.0,0.0,0.0,0.0,0.0,0.0,0.0,0.0,0.00048048110329546034,0.007816232740879059,0.034074120223522186,0.0,0.0,0.0,0.0,0.0,0.0,0.0,0.0,0.0
1606990658784179170,3769428,1606987057295207970,imu_link,-0.0024108258076012135,0.006758001632988453,-0.3644309937953949,0.9312028288841248,0.0,0.0,0.0,0.0,0.0,0.0,0.0,0.0,0.0,-42.749210357666016,0.6204670071601868,-0.5395128130912781,0.0,0.0,0.0,0.0,0.0,0.0,0.0,0.0,0.0,0.00048048110329546034,0.007816232740879059,0.034074120223522186,0.0,0.0,0.0,0.0,0.0,0.0,0.0,0.0,0.0
1606990658784207155,3769429,1606987057295389335,imu_link,-0.002412431174889207,0.006759034935384989,-0.3644329309463501,0.9312020540237427,0.0,0.0,0.0,0.0,0.0,0.0,0.0,0.0,0.0,-42.749446868896484,0.6205090880393982,-0.5397286415100098,0.0,0.0,0.0,0.0,0.0,0.0,0.0,0.0,0.0,-0.019381776452064514,0.013846329413354397,0.058932337909936905,0.0,0.0,0.0,0.0,0.0,0.0,0.0,0.0,0.0
1606990658784231189,3769430,1606987057295551335,imu_link,-0.002412431174889207,0.006759034935384989,-0.3644329309463501,0.9312020540237427,0.0,0.0,0.0,0.0,0.0,0.0,0.0,0.0,0.0,-42.749446868896484,0.6205090880393982,-0.5397286415100098,0.0,0.0,0.0,0.0,0.0,0.0,0.0,0.0,0.0,-0.019381776452064514,0.013846329413354397,0.058932337909936905,0.0,0.0,0.0,0.0,0.0,0.0,0.0,0.0,0.0
1606990658784250172,3769431,1606987057295706634,imu_link,-0.0024121550377458334,0.006760051008313894,-0.36443445086479187,0.9312013387680054,0.0,0.0,0.0,0.0,0.0,0.0,0.0,0.0,0.0,-42.749637603759766,0.6206280589103699,-0.5397427082061768,0.0,0.0,0.0,0.0,0.0,0.0,0.0,0.0,0.0,-0.027430005371570587,0.0019510131096467376,0.032313548028469086,0.0,0.0,0.0,0.0,0.0,0.0,0.0,0.0,0.0
1606990658846606862,3769432,1606987057295859117,imu_link,-0.0024121550377458334,0.006760051008313894,-0.36443445086479187,0.9312013387680054,0.0,0.0,0.0,0.0,0.0,0.0,0.0,0.0,0.0,-42.749637603759766,0.6206280589103699,-0.5397427082061768,0.0,0.0,0.0,0.0,0.0,0.0,0.0,0.0,0.0,-0.027430005371570587,0.0019510131096467376,0.032313548028469086,0.0,0.0,0.0,0.0,0.0,0.0,0.0,0.0,0.0
1606990658846638343,3769433,1606987057296020145,imu_link,-0.0024162358604371548,0.006754813250154257,-0.36443620920181274,0.9312008023262024,0.0,0.0,0.0,0.0,0.0,0.0,0.0,0.0,0.0,-42.74985122680664,0.6198978424072266,-0.5399604439735413,0.0,0.0,0.0,0.0,0.0,0.0,0.0,0.0,0.0,-0.011851341463625431,-0.0181492380797863,0.017797604203224182,0.0,0.0,0.0,0.0,0.0,0.0,0.0,0.0,0.0
1606990658846654294,3769434,1606987057296165251,imu_link,-0.0024162358604371548,0.006754813250154257,-0.36443620920181274,0.9312008023262024,0.0,0.0,0.0,0.0,0.0,0.0,0.0,0.0,0.0,-42.74985122680664,0.6198978424072266,-0.5399604439735413,0.0,0.0,0.0,0.0,0.0,0.0,0.0,0.0,0.0,-0.011851341463625431,-0.0181492380797863,0.017797604203224182,0.0,0.0,0.0,0.0,0.0,0.0,0.0,0.0,0.0
1606990658846666388,3769435,1606987057296303912,imu_link,-0.0024167762603610754,0.006752227898687124,-0.3644362986087799,0.9312006831169128,0.0,0.0,0.0,0.0,0.0,0.0,0.0,0.0,0.0,-42.7498664855957,0.6195991635322571,-0.5399103760719299,0.0,0.0,0.0,0.0,0.0,0.0,0.0,0.0,0.0,-0.0025348826311528683,-0.022640477865934372,0.0531027652323246,0.0,0.0,0.0,0.0,0.0,0.0,0.0,0.0,0.0
1606990658853696874,3769436,1606987057296439606,imu_link,-0.0024167762603610754,0.006752227898687124,-0.3644362986087799,0.9312006831169128,0.0,0.0,0.0,0.0,0.0,0.0,0.0,0.0,0.0,-42.7498664855957,0.6195991635322571,-0.5399103760719299,0.0,0.0,0.0,0.0,0.0,0.0,0.0,0.0,0.0,-0.0025348826311528683,-0.022640477865934372,0.0531027652323246,0.0,0.0,0.0,0.0,0.0,0.0,0.0,0.0,0.0
1606990658853732840,3769437,1606987057296576001,imu_link,-0.0024139678571373224,0.006749303080141544,-0.36443692445755005,0.9312004446983337,0.0,0.0,0.0,0.0,0.0,0.0,0.0,0.0,0.0,-42.74993133544922,0.6194040775299072,-0.5394887924194336,0.0,0.0,0.0,0.0,0.0,0.0,0.0,0.0,0.0,-0.0027138483710587025,-0.014828641898930073,0.055598095059394836,0.0,0.0,0.0,0.0,0.0,0.0,0.0,0.0,0.0
1606990658853757454,3769438,1606987057308693024,imu_link,-0.0024139678571373224,0.006749303080141544,-0.36443692445755005,0.9312004446983337,0.0,0.0,0.0,0.0,0.0,0.0,0.0,0.0,0.0,-42.74993133544922,0.6194040775299072,-0.5394887924194336,0.0,0.0,0.0,0.0,0.0,0.0,0.0,0.0,0.0,-0.0027138483710587025,-0.014828641898930073,0.055598095059394836,0.0,0.0,0.0,0.0,0.0,0.0,0.0,0.0,0.0
1606990658853792922,3769439,1606987057308891974,imu_link,-0.0024149275850504637,0.006748732179403305,-0.3644367754459381,0.9312005043029785,0.0,0.0,0.0,0.0,0.0,0.0,0.0,0.0,0.0,-42.749916076660156,0.6193031668663025,-0.539567232131958,0.0,0.0,0.0,0.0,0.0,0.0,0.0,0.0,0.0,0.0033428024034947157,0.005163436755537987,0.053479790687561035,0.0,0.0,0.0,0.0,0.0,0.0,0.0,0.0,0.0
1606990658853803514,3769440,1606987057309076571,imu_link,-0.0024149275850504637,0.006748732179403305,-0.3644367754459381,0.9312005043029785,0.0,0.0,0.0,0.0,0.0,0.0,0.0,0.0,0.0,-42.749916076660156,0.6193031668663025,-0.539567232131958,0.0,0.0,0.0,0.0,0.0,0.0,0.0,0.0,0.0,0.0033428024034947157,0.005163436755537987,0.053479790687561035,0.0,0.0,0.0,0.0,0.0,0.0,0.0,0.0,0.0
1606990658880393088,3769441,1606987057309250539,imu_link,-0.0024138884618878365,0.006748542655259371,-0.3644375801086426,0.9312002658843994,0.0,0.0,0.0,0.0,0.0,0.0,0.0,0.0,0.0,-42.75001525878906,0.6193259358406067,-0.5394489169120789,0.0,0.0,0.0,0.0,0.0,0.0,0.0,0.0,0.0,0.01170381996780634,0.013015181757509708,0.055252160876989365,0.0,0.0,0.0,0.0,0.0,0.0,0.0,0.0,0.0
1606990658880432347,3769442,1606987057309409402,imu_link,-0.0024138884618878365,0.006748542655259371,-0.3644375801086426,0.9312002658843994,0.0,0.0,0.0,0.0,0.0,0.0,0.0,0.0,0.0,-42.75001525878906,0.6193259358406067,-0.5394489169120789,0.0,0.0,0.0,0.0,0.0,0.0,0.0,0.0,0.0,0.01170381996780634,0.013015181757509708,0.055252160876989365,0.0,0.0,0.0,0.0,0.0,0.0,0.0,0.0,0.0
1606990658880459085,3769443,1606987057309560050,imu_link,-0.002414704067632556,0.006750093307346106,-0.3644365966320038,0.9312006235122681,0.0,0.0,0.0,0.0,0.0,0.0,0.0,0.0,0.0,-42.74989318847656,0.6194578409194946,-0.539600133895874,0.0,0.0,0.0,0.0,0.0,0.0,0.0,0.0,0.0,0.010895591229200363,0.0008321182103827596,0.023402459919452667,0.0,0.0,0.0,0.0,0.0,0.0,0.0,0.0,0.0
1606990658880478941,3769444,1606987057309721995,imu_link,-0.002414704067632556,0.006750093307346106,-0.3644365966320038,0.9312006235122681,0.0,0.0,0.0,0.0,0.0,0.0,0.0,0.0,0.0,-42.74989318847656,0.6194578409194946,-0.539600133895874,0.0,0.0,0.0,0.0,0.0,0.0,0.0,0.0,0.0,0.010895591229200363,0.0008321182103827596,0.023402459919452667,0.0,0.0,0.0,0.0,0.0,0.0,0.0,0.0,0.0
1606990658886238170,3769445,1606987057309866755,imu_link,-0.002413733396679163,0.006750287488102913,-0.36443495750427246,0.9312012791633606,0.0,0.0,0.0,0.0,0.0,0.0,0.0,0.0,0.0,-42.74969482421875,0.6195201277732849,-0.5395035147666931,0.0,0.0,0.0,0.0,0.0,0.0,0.0,0.0,0.0,0.007125809323042631,-0.004114429000765085,0.022671332582831383,0.0,0.0,0.0,0.0,0.0,0.0,0.0,0.0,0.0
1606990658886270332,3769446,1606987057310008007,imu_link,-0.002413733396679163,0.006750287488102913,-0.36443495750427246,0.9312012791633606,0.0,0.0,0.0,0.0,0.0,0.0,0.0,0.0,0.0,-42.74969482421875,0.6195201277732849,-0.5395035147666931,0.0,0.0,0.0,0.0,0.0,0.0,0.0,0.0,0.0,0.007125809323042631,-0.004114429000765085,0.022671332582831383,0.0,0.0,0.0,0.0,0.0,0.0,0.0,0.0,0.0
1606990658886288422,3769447,1606987057310144473,imu_link,-0.0024133725091814995,0.006750668399035931,-0.3644365072250366,0.9312006235122681,0.0,0.0,0.0,0.0,0.0,0.0,0.0,0.0,0.0,-42.74988555908203,0.6195748448371887,-0.5394819974899292,0.0,0.0,0.0,0.0,0.0,0.0,0.0,0.0,0.0,-0.004969495348632336,0.008182879537343979,0.062431495636701584,0.0,0.0,0.0,0.0,0.0,0.0,0.0,0.0,0.0
1606990658886337499,3769448,1606987057310279460,imu_link,-0.0024133725091814995,0.006750668399035931,-0.3644365072250366,0.9312006235122681,0.0,0.0,0.0,0.0,0.0,0.0,0.0,0.0,0.0,-42.74988555908203,0.6195748448371887,-0.5394819974899292,0.0,0.0,0.0,0.0,0.0,0.0,0.0,0.0,0.0,-0.004969495348632336,0.008182879537343979,0.062431495636701584,0.0,0.0,0.0,0.0,0.0,0.0,0.0,0.0,0.0
1606990658957779068,3769449,1606987057322226918,imu_link,-0.0024158223532140255,0.006751567125320435,-0.36443600058555603,0.9312008619308472,0.0,0.0,0.0,0.0,0.0,0.0,0.0,0.0,0.0,-42.74982452392578,0.6195687651634216,-0.5397806763648987,0.0,0.0,0.0,0.0,0.0,0.0,0.0,0.0,0.0,-0.016235128045082092,0.016459103673696518,0.08182843029499054,0.0,0.0,0.0,0.0,0.0,0.0,0.0,0.0,0.0
1606990658957803105,3769450,1606987057322381749,imu_link,-0.0024158223532140255,0.006751567125320435,-0.36443600058555603,0.9312008619308472,0.0,0.0,0.0,0.0,0.0,0.0,0.0,0.0,0.0,-42.74982452392578,0.6195687651634216,-0.5397806763648987,0.0,0.0,0.0,0.0,0.0,0.0,0.0,0.0,0.0,-0.016235128045082092,0.016459103673696518,0.08182843029499054,0.0,0.0,0.0,0.0,0.0,0.0,0.0,0.0,0.0
1606990658957814634,3769451,1606987057322515607,imu_link,-0.0024161268956959248,0.006751954089850187,-0.36443692445755005,0.9312005043029785,0.0,0.0,0.0,0.0,0.0,0.0,0.0,0.0,0.0,-42.74993133544922,0.6195967793464661,-0.5398299098014832,0.0,0.0,0.0,0.0,0.0,0.0,0.0,0.0,0.0,-0.017953943461179733,0.011303157545626163,0.0694013312458992,0.0,0.0,0.0,0.0,0.0,0.0,0.0,0.0,0.0
1606990658957832533,3769452,1606987057322657543,imu_link,-0.0024161268956959248,0.006751954089850187,-0.36443692445755005,0.9312005043029785,0.0,0.0,0.0,0.0,0.0,0.0,0.0,0.0,0.0,-42.74993133544922,0.6195967793464661,-0.5398299098014832,0.0,0.0,0.0,0.0,0.0,0.0,0.0,0.0,0.0,-0.017953943461179733,0.011303157545626163,0.0694013312458992,0.0,0.0,0.0,0.0,0.0,0.0,0.0,0.0,0.0
1606990658957838620,3769453,1606987057322776815,imu_link,-0.00241808220744133,0.006750559434294701,-0.3644333779811859,0.9312019348144531,0.0,0.0,0.0,0.0,0.0,0.0,0.0,0.0,0.0,-42.7495002746582,0.6193683743476868,-0.5399779081344604,0.0,0.0,0.0,0.0,0.0,0.0,0.0,0.0,0.0,-0.012503121979534626,0.0018951664678752422,0.050558529794216156,0.0,0.0,0.0,0.0,0.0,0.0,0.0,0.0,0.0
1606990658974681773,3769454,1606987057322908432,imu_link,-0.00241808220744133,0.006750559434294701,-0.3644333779811859,0.9312019348144531,0.0,0.0,0.0,0.0,0.0,0.0,0.0,0.0,0.0,-42.7495002746582,0.6193683743476868,-0.5399779081344604,0.0,0.0,0.0,0.0,0.0,0.0,0.0,0.0,0.0,-0.012503121979534626,0.0018951664678752422,0.050558529794216156,0.0,0.0,0.0,0.0,0.0,0.0,0.0,0.0,0.0
1606990658974706248,3769455,1606987057323093115,imu_link,-0.0024200447369366884,0.006749842781573534,-0.36443379521369934,0.9312017560005188,0.0,0.0,0.0,0.0,0.0,0.0,0.0,0.0,0.0,-42.749549865722656,0.6192097067832947,-0.540157675743103,0.0,0.0,0.0,0.0,0.0,0.0,0.0,0.0,0.0,0.010854343883693218,-0.007645187899470329,0.03361135721206665,0.0,0.0,0.0,0.0,0.0,0.0,0.0,0.0,0.0
1606990658974714970,3769456,1606987057323211323,imu_link,-0.0024200447369366884,0.006749842781573534,-0.36443379521369934,0.9312017560005188,0.0,0.0,0.0,0.0,0.0,0.0,0.0,0.0,0.0,-42.749549865722656,0.6192097067832947,-0.540157675743103,0.0,0.0,0.0,0.0,0.0,0.0,0.0,0.0,0.0,0.010854343883693218,-0.007645187899470329,0.03361135721206665,0.0,0.0,0.0,0.0,0.0,0.0,0.0,0.0,0.0
1606990658974743444,3769457,1606987057323318582,imu_link,-0.0024187923409044743,0.006750656757503748,-0.3644299805164337,0.9312032461166382,0.0,0.0,0.0,0.0,0.0,0.0,0.0,0.0,0.0,-42.74908447265625,0.6193510890007019,-0.540055513381958,0.0,0.0,0.0,0.0,0.0,0.0,0.0,0.0,0.0,0.011309986002743244,-0.006996677257120609,0.03436160832643509,0.0,0.0,0.0,0.0,0.0,0.0,0.0,0.0,0.0
1606990658981805867,3769458,1606987057323423459,imu_link,-0.0024187923409044743,0.006750656757503748,-0.3644299805164337,0.9312032461166382,0.0,0.0,0.0,0.0,0.0,0.0,0.0,0.0,0.0,-42.74908447265625,0.6193510890007019,-0.540055513381958,0.0,0.0,0.0,0.0,0.0,0.0,0.0,0.0,0.0,0.011309986002743244,-0.006996677257120609,0.03436160832643509,0.0,0.0,0.0,0.0,0.0,0.0,0.0,0.0,0.0
1606990658981828390,3769459,1606987057323527500,imu_link,-0.0024163757916539907,0.006752277258783579,-0.36443033814430237,0.9312030076980591,0.0,0.0,0.0,0.0,0.0,0.0,0.0,0.0,0.0,-42.74912643432617,0.619624674320221,-0.5398656129837036,0.0,0.0,0.0,0.0,0.0,0.0,0.0,0.0,0.0,-0.010164663195610046,-0.0020963421557098627,0.06539447605609894,0.0,0.0,0.0,0.0,0.0,0.0,0.0,0.0,0.0
1606990658981858709,3769460,1606987057335028337,imu_link,-0.0024163757916539907,0.006752277258783579,-0.36443033814430237,0.9312030076980591,0.0,0.0,0.0,0.0,0.0,0.0,0.0,0.0,0.0,-42.74912643432617,0.619624674320221,-0.5398656129837036,0.0,0.0,0.0,0.0,0.0,0.0,0.0,0.0,0.0,-0.010164663195610046,-0.0020963421557098627,0.06539447605609894,0.0,0.0,0.0,0.0,0.0,0.0,0.0,0.0,0.0
1606990658981866023,3769461,1606987057335181200,imu_link,-0.002419173251837492,0.006750776432454586,-0.3644320070743561,0.9312024116516113,0.0,0.0,0.0,0.0,0.0,0.0,0.0,0.0,0.0,-42.749332427978516,0.6193467974662781,-0.5401025414466858,0.0,0.0,0.0,0.0,0.0,0.0,0.0,0.0,0.0,-0.005293247755616903,0.004140172153711319,0.0757351815700531,0.0,0.0,0.0,0.0,0.0,0.0,0.0,0.0,0.0
1606990658981876762,3769462,1606987057335302471,imu_link,-0.002419173251837492,0.006750776432454586,-0.3644320070743561,0.9312024116516113,0.0,0.0,0.0,0.0,0.0,0.0,0.0,0.0,0.0,-42.749332427978516,0.6193467974662781,-0.5401025414466858,0.0,0.0,0.0,0.0,0.0,0.0,0.0,0.0,0.0,-0.005293247755616903,0.004140172153711319,0.0757351815700531,0.0,0.0,0.0,0.0,0.0,0.0,0.0,0.0,0.0
1606990658983853884,3769463,1606987057335414936,imu_link,-0.002416851231828332,0.006750603672116995,-0.36443284153938293,0.9312020540237427,0.0,0.0,0.0,0.0,0.0,0.0,0.0,0.0,0.0,-42.74943923950195,0.6194247603416443,-0.5398481488227844,0.0,0.0,0.0,0.0,0.0,0.0,0.0,0.0,0.0,0.0015120957978069782,0.005247244145721197,0.05171065405011177,0.0,0.0,0.0,0.0,0.0,0.0,0.0,0.0,0.0
1606990658983876737,3769464,1606987057335525031,imu_link,-0.002416851231828332,0.006750603672116995,-0.36443284153938293,0.9312020540237427,0.0,0.0,0.0,0.0,0.0,0.0,0.0,0.0,0.0,-42.74943923950195,0.6194247603416443,-0.5398481488227844,0.0,0.0,0.0,0.0,0.0,0.0,0.0,0.0,0.0,0.0015120957978069782,0.005247244145721197,0.05171065405011177,0.0,0.0,0.0,0.0,0.0,0.0,0.0,0.0,0.0
1606990658983889005,3769465,1606987057335656691,imu_link,-0.0024181038606911898,0.006750908680260181,-0.3644363284111023,0.9312007427215576,0.0,0.0,0.0,0.0,0.0,0.0,0.0,0.0,0.0,-42.7498664855957,0.619403064250946,-0.5399967432022095,0.0,0.0,0.0,0.0,0.0,0.0,0.0,0.0,0.0,0.0025430875830352306,0.006415884476155043,0.02686035819351673,0.0,0.0,0.0,0.0,0.0,0.0,0.0,0.0,0.0
1606990658983897119,3769466,1606987057335769813,imu_link,-0.0024181038606911898,0.006750908680260181,-0.3644363284111023,0.9312007427215576,0.0,0.0,0.0,0.0,0.0,0.0,0.0,0.0,0.0,-42.7498664855957,0.619403064250946,-0.5399967432022095,0.0,0.0,0.0,0.0,0.0,0.0,0.0,0.0,0.0,0.0025430875830352306,0.006415884476155043,0.02686035819351673,0.0,0.0,0.0,0.0,0.0,0.0,0.0,0.0,0.0
1606990659052965129,3769467,1606987057335878985,imu_link,-0.002418780466541648,0.0067525096237659454,-0.3644373118877411,0.9312003254890442,0.0,0.0,0.0,0.0,0.0,0.0,0.0,0.0,0.0,-42.7499885559082,0.619545042514801,-0.5401365160942078,0.0,0.0,0.0,0.0,0.0,0.0,0.0,0.0,0.0,0.007702749688178301,0.0026005185209214687,0.020851410925388336,0.0,0.0,0.0,0.0,0.0,0.0,0.0,0.0,0.0
1606990659053022991,3769468,1606987057335984610,imu_link,-0.002418780466541648,0.0067525096237659454,-0.3644373118877411,0.9312003254890442,0.0,0.0,0.0,0.0,0.0,0.0,0.0,0.0,0.0,-42.7499885559082,0.619545042514801,-0.5401365160942078,0.0,0.0,0.0,0.0,0.0,0.0,0.0,0.0,0.0,0.007702749688178301,0.0026005185209214687,0.020851410925388336,0.0,0.0,0.0,0.0,0.0,0.0,0.0,0.0,0.0
1606990659053067213,3769469,1606987057336088575,imu_link,-0.0024176016449928284,0.006754864007234573,-0.36443546414375305,0.9312010407447815,0.0,0.0,0.0,0.0,0.0,0.0,0.0,0.0,0.0,-42.749759674072266,0.6198466420173645,-0.5401078462600708,0.0,0.0,0.0,0.0,0.0,0.0,0.0,0.0,0.0,-0.003799632890149951,0.002966767642647028,0.02855234593153,0.0,0.0,0.0,0.0,0.0,0.0,0.0,0.0,0.0
1606990659053103408,3769470,1606987057348872421,imu_link,-0.0024176016449928284,0.006754864007234573,-0.36443546414375305,0.9312010407447815,0.0,0.0,0.0,0.0,0.0,0.0,0.0,0.0,0.0,-42.749759674072266,0.6198466420173645,-0.5401078462600708,0.0,0.0,0.0,0.0,0.0,0.0,0.0,0.0,0.0,-0.003799632890149951,0.002966767642647028,0.02855234593153,0.0,0.0,0.0,0.0,0.0,0.0,0.0,0.0,0.0
1606990659053122286,3769471,1606987057349056066,imu_link,-0.0024169180542230606,0.006755610927939415,-0.3644353151321411,0.9312011003494263,0.0,0.0,0.0,0.0,0.0,0.0,0.0,0.0,0.0,-42.74974060058594,0.6199549436569214,-0.5400660037994385,0.0,0.0,0.0,0.0,0.0,0.0,0.0,0.0,0.0,-0.008838334120810032,0.00716385617852211,0.028101501986384392,0.0,0.0,0.0,0.0,0.0,0.0,0.0,0.0,0.0
1606990659053177012,3769472,1606987057349189334,imu_link,-0.0024169180542230606,0.006755610927939415,-0.3644353151321411,0.9312011003494263,0.0,0.0,0.0,0.0,0.0,0.0,0.0,0.0,0.0,-42.74974060058594,0.6199549436569214,-0.5400660037994385,0.0,0.0,0.0,0.0,0.0,0.0,0.0,0.0,0.0,-0.008838334120810032,0.00716385617852211,0.028101501986384392,0.0,0.0,0.0,0.0,0.0,0.0,0.0,0.0,0.0
1606990659053243039,3769473,1606987057349310294,imu_link,-0.0024199108593165874,0.00675442349165678,-0.364435076713562,0.9312012195587158,0.0,0.0,0.0,0.0,0.0,0.0,0.0,0.0,0.0,-42.74970626831055,0.6197033524513245,-0.5403356552124023,0.0,0.0,0.0,0.0,0.0,0.0,0.0,0.0,0.0,-0.0038673619274049997,-0.002792768646031618,0.04448731616139412,0.0,0.0,0.0,0.0,0.0,0.0,0.0,0.0,0.0
1606990659053284272,3769474,1606987057349429816,imu_link,-0.0024199108593165874,0.00675442349165678,-0.364435076713562,0.9312012195587158,0.0,0.0,0.0,0.0,0.0,0.0,0.0,0.0,0.0,-42.74970626831055,0.6197033524513245,-0.5403356552124023,0.0,0.0,0.0,0.0,0.0,0.0,0.0,0.0,0.0,-0.0038673619274049997,-0.002792768646031618,0.04448731616139412,0.0,0.0,0.0,0.0,0.0,0.0,0.0,0.0,0.0
1606990659053302176,3769475,1606987057349548651,imu_link,-0.0024206636007875204,0.006754511967301369,-0.3644375503063202,0.9312002658843994,0.0,0.0,0.0,0.0,0.0,0.0,0.0,0.0,0.0,-42.75001907348633,0.6196799278259277,-0.5404212474822998,0.0,0.0,0.0,0.0,0.0,0.0,0.0,0.0,0.0,0.00309156347066164,-0.015193468891084194,0.07988876104354858,0.0,0.0,0.0,0.0,0.0,0.0,0.0,0.0,0.0
1606990659060687527,3769476,1606987057349687557,imu_link,-0.0024206636007875204,0.006754511967301369,-0.3644375503063202,0.9312002658843994,0.0,0.0,0.0,0.0,0.0,0.0,0.0,0.0,0.0,-42.75001907348633,0.6196799278259277,-0.5404212474822998,0.0,0.0,0.0,0.0,0.0,0.0,0.0,0.0,0.0,0.00309156347066164,-0.015193468891084194,0.07988876104354858,0.0,0.0,0.0,0.0,0.0,0.0,0.0,0.0,0.0
1606990659060732974,3769477,1606987057349803862,imu_link,-0.002418310847133398,0.006751635577529669,-0.3644389808177948,0.9311996102333069,0.0,0.0,0.0,0.0,0.0,0.0,0.0,0.0,0.0,-42.75019454956055,0.6194702982902527,-0.5400511026382446,0.0,0.0,0.0,0.0,0.0,0.0,0.0,0.0,0.0,0.02587128058075905,-0.014034453779459,0.06453471630811691,0.0,0.0,0.0,0.0,0.0,0.0,0.0,0.0,0.0
1606990659060775414,3769478,1606987057349910528,imu_link,-0.002418310847133398,0.006751635577529669,-0.3644389808177948,0.9311996102333069,0.0,0.0,0.0,0.0,0.0,0.0,0.0,0.0,0.0,-42.75019454956055,0.6194702982902527,-0.5400511026382446,0.0,0.0,0.0,0.0,0.0,0.0,0.0,0.0,0.0,0.02587128058075905,-0.014034453779459,0.06453471630811691,0.0,0.0,0.0,0.0,0.0,0.0,0.0,0.0,0.0
1606990659060811877,3769479,1606987057350016348,imu_link,-0.0024194573052227497,0.006752383895218372,-0.36443835496902466,0.9311999678611755,0.0,0.0,0.0,0.0,0.0,0.0,0.0,0.0,0.0,-42.7501106262207,0.6195027828216553,-0.5402041077613831,0.0,0.0,0.0,0.0,0.0,0.0,0.0,0.0,0.0,0.023255234584212303,-0.00010372736142016947,0.03916536271572113,0.0,0.0,0.0,0.0,0.0,0.0,0.0,0.0,0.0
1606990659060833529,3769480,1606987057350121031,imu_link,-0.0024194573052227497,0.006752383895218372,-0.36443835496902466,0.9311999678611755,0.0,0.0,0.0,0.0,0.0,0.0,0.0,0.0,0.0,-42.7501106262207,0.6195027828216553,-0.5402041077613831,0.0,0.0,0.0,0.0,0.0,0.0,0.0,0.0,0.0,0.023255234584212303,-0.00010372736142016947,0.03916536271572113,0.0,0.0,0.0,0.0,0.0,0.0,0.0,0.0,0.0
1606990659079474103,3769481,1606987057361960897,imu_link,-0.0024183616042137146,0.006755118258297443,-0.3644406795501709,0.9311990141868591,0.0,0.0,0.0,0.0,0.0,0.0,0.0,0.0,0.0,-42.75040054321289,0.6198390126228333,-0.5402030348777771,0.0,0.0,0.0,0.0,0.0,0.0,0.0,0.0,0.0,0.004605643451213837,0.016187358647584915,0.032836735248565674,0.0,0.0,0.0,0.0,0.0,0.0,0.0,0.0,0.0
1606990659079510429,3769482,1606987057362144792,imu_link,-0.0024183616042137146,0.006755118258297443,-0.3644406795501709,0.9311990141868591,0.0,0.0,0.0,0.0,0.0,0.0,0.0,0.0,0.0,-42.75040054321289,0.6198390126228333,-0.5402030348777771,0.0,0.0,0.0,0.0,0.0,0.0,0.0,0.0,0.0,0.004605643451213837,0.016187358647584915,0.032836735248565674,0.0,0.0,0.0,0.0,0.0,0.0,0.0,0.0,0.0
1606990659079532682,3769483,1606987057362273741,imu_link,-0.002417762763798237,0.0067571126855909824,-0.3644413650035858,0.9311987161636353,0.0,0.0,0.0,0.0,0.0,0.0,0.0,0.0,0.0,-42.75048828125,0.6200764179229736,-0.5402228832244873,0.0,0.0,0.0,0.0,0.0,0.0,0.0,0.0,0.0,-0.00830749236047268,0.013516183942556381,0.061597827821969986,0.0,0.0,0.0,0.0,0.0,0.0,0.0,0.0,0.0
1606990659079556874,3769484,1606987057362394510,imu_link,-0.002417762763798237,0.0067571126855909824,-0.3644413650035858,0.9311987161636353,0.0,0.0,0.0,0.0,0.0,0.0,0.0,0.0,0.0,-42.75048828125,0.6200764179229736,-0.5402228832244873,0.0,0.0,0.0,0.0,0.0,0.0,0.0,0.0,0.0,-0.00830749236047268,0.013516183942556381,0.061597827821969986,0.0,0.0,0.0,0.0,0.0,0.0,0.0,0.0,0.0
1606990659180587663,3769485,1606987057362512598,imu_link,-0.002421387704089284,0.006756749004125595,-0.36443766951560974,0.9312001466751099,0.0,0.0,0.0,0.0,0.0,0.0,0.0,0.0,0.0,-42.75003433227539,0.6198883652687073,-0.5405920743942261,0.0,0.0,0.0,0.0,0.0,0.0,0.0,0.0,0.0,-0.00944442953914404,0.003761795349419117,0.07383256405591965,0.0,0.0,0.0,0.0,0.0,0.0,0.0,0.0,0.0
1606990659180613046,3769486,1606987057362628206,imu_link,-0.002421387704089284,0.006756749004125595,-0.36443766951560974,0.9312001466751099,0.0,0.0,0.0,0.0,0.0,0.0,0.0,0.0,0.0,-42.75003433227539,0.6198883652687073,-0.5405920743942261,0.0,0.0,0.0,0.0,0.0,0.0,0.0,0.0,0.0,-0.00944442953914404,0.003761795349419117,0.07383256405591965,0.0,0.0,0.0,0.0,0.0,0.0,0.0,0.0,0.0
1606990659180637262,3769487,1606987057362764937,imu_link,-0.002420887118205428,0.006755157373845577,-0.3644394874572754,0.9311994314193726,0.0,0.0,0.0,0.0,0.0,0.0,0.0,0.0,0.0,-42.75025939941406,0.6197382211685181,-0.5404734015464783,0.0,0.0,0.0,0.0,0.0,0.0,0.0,0.0,0.0,-0.005982591770589352,0.007952298037707806,0.05374870449304581,0.0,0.0,0.0,0.0,0.0,0.0,0.0,0.0,0.0
1606990659180643390,3769488,1606987057362884118,imu_link,-0.002420887118205428,0.006755157373845577,-0.3644394874572754,0.9311994314193726,0.0,0.0,0.0,0.0,0.0,0.0,0.0,0.0,0.0,-42.75025939941406,0.6197382211685181,-0.5404734015464783,0.0,0.0,0.0,0.0,0.0,0.0,0.0,0.0,0.0,-0.005982591770589352,0.007952298037707806,0.05374870449304581,0.0,0.0,0.0,0.0,0.0,0.0,0.0,0.0,0.0
1606990659180657703,3769489,1606987057363034622,imu_link,-0.0024224899243563414,0.006755682174116373,-0.36443692445755005,0.9312004446983337,0.0,0.0,0.0,0.0,0.0,0.0,0.0,0.0,0.0,-42.749942779541016,0.6197288632392883,-0.5406646728515625,0.0,0.0,0.0,0.0,0.0,0.0,0.0,0.0,0.0,-0.005842371378093958,0.010101290419697762,0.05766574293375015,0.0,0.0,0.0,0.0,0.0,0.0,0.0,0.0,0.0
1606990659186928970,3769490,1606987057363148054,imu_link,-0.0024224899243563414,0.006755682174116373,-0.36443692445755005,0.9312004446983337,0.0,0.0,0.0,0.0,0.0,0.0,0.0,0.0,0.0,-42.749942779541016,0.6197288632392883,-0.5406646728515625,0.0,0.0,0.0,0.0,0.0,0.0,0.0,0.0,0.0,-0.005842371378093958,0.010101290419697762,0.05766574293375015,0.0,0.0,0.0,0.0,0.0,0.0,0.0,0.0,0.0
1606990659186962284,3769491,1606987057363253162,imu_link,-0.002423653844743967,0.006753769237548113,-0.3644377291202545,0.9312001466751099,0.0,0.0,0.0,0.0,0.0,0.0,0.0,0.0,0.0,-42.75004196166992,0.6194756627082825,-0.5407094359397888,0.0,0.0,0.0,0.0,0.0,0.0,0.0,0.0,0.0,-0.01233024150133133,0.019641300663352013,0.05564553663134575,0.0,0.0,0.0,0.0,0.0,0.0,0.0,0.0,0.0
1606990659187016262,3769492,1606987057372439342,imu_link,-0.002423653844743967,0.006753769237548113,-0.3644377291202545,0.9312001466751099,0.0,0.0,0.0,0.0,0.0,0.0,0.0,0.0,0.0,-42.75004196166992,0.6194756627082825,-0.5407094359397888,0.0,0.0,0.0,0.0,0.0,0.0,0.0,0.0,0.0,-0.01233024150133133,0.019641300663352013,0.05564553663134575,0.0,0.0,0.0,0.0,0.0,0.0,0.0,0.0,0.0
1606990659187035089,3769493,1606987057372619479,imu_link,-0.002429221523925662,0.006749431602656841,-0.3644331991672516,0.9312019348144531,0.0,0.0,0.0,0.0,0.0,0.0,0.0,0.0,0.0,-42.749481201171875,0.6187828779220581,-0.541119396686554,0.0,0.0,0.0,0.0,0.0,0.0,0.0,0.0,0.0,-0.008838213048875332,0.012052136473357677,0.06660409271717072,0.0,0.0,0.0,0.0,0.0,0.0,0.0,0.0,0.0
1606990659198955710,3769494,1606987057372744438,imu_link,-0.002429221523925662,0.006749431602656841,-0.3644331991672516,0.9312019348144531,0.0,0.0,0.0,0.0,0.0,0.0,0.0,0.0,0.0,-42.749481201171875,0.6187828779220581,-0.541119396686554,0.0,0.0,0.0,0.0,0.0,0.0,0.0,0.0,0.0,-0.008838213048875332,0.012052136473357677,0.06660409271717072,0.0,0.0,0.0,0.0,0.0,0.0,0.0,0.0,0.0
1606990659199000169,3769495,1606987057372882177,imu_link,-0.0024298345670104027,0.006749492604285479,-0.36443382501602173,0.931201696395874,0.0,0.0,0.0,0.0,0.0,0.0,0.0,0.0,0.0,-42.74955749511719,0.6187633872032166,-0.5411877632141113,0.0,0.0,0.0,0.0,0.0,0.0,0.0,0.0,0.0,0.012371581047773361,0.0033241810742765665,0.0561266653239727,0.0,0.0,0.0,0.0,0.0,0.0,0.0,0.0,0.0
1606990659199015828,3769496,1606987057373004455,imu_link,-0.0024298345670104027,0.006749492604285479,-0.36443382501602173,0.931201696395874,0.0,0.0,0.0,0.0,0.0,0.0,0.0,0.0,0.0,-42.74955749511719,0.6187633872032166,-0.5411877632141113,0.0,0.0,0.0,0.0,0.0,0.0,0.0,0.0,0.0,0.012371581047773361,0.0033241810742765665,0.0561266653239727,0.0,0.0,0.0,0.0,0.0,0.0,0.0,0.0,0.0
1606990659199124696,3769497,1606987057373121721,imu_link,-0.0024304576218128204,0.006753315683454275,-0.36442968249320984,0.9312032461166382,0.0,0.0,0.0,0.0,0.0,0.0,0.0,0.0,0.0,-42.749053955078125,0.619147777557373,-0.541411280632019,0.0,0.0,0.0,0.0,0.0,0.0,0.0,0.0,0.0,0.0006728035514242947,0.00892504770308733,0.0336882509291172,0.0,0.0,0.0,0.0,0.0,0.0,0.0,0.0,0.0
1606990659199149925,3769498,1606987057373231906,imu_link,-0.0024304576218128204,0.006753315683454275,-0.36442968249320984,0.9312032461166382,0.0,0.0,0.0,0.0,0.0,0.0,0.0,0.0,0.0,-42.749053955078125,0.619147777557373,-0.541411280632019,0.0,0.0,0.0,0.0,0.0,0.0,0.0,0.0,0.0,0.0006728035514242947,0.00892504770308733,0.0336882509291172,0.0,0.0,0.0,0.0,0.0,0.0,0.0,0.0,0.0
1606990659213185955,3769499,1606987057373340583,imu_link,-0.002429269952699542,0.006753677502274513,-0.3644307553768158,0.9312028288841248,0.0,0.0,0.0,0.0,0.0,0.0,0.0,0.0,0.0,-42.74918746948242,0.6192353367805481,-0.5413002967834473,0.0,0.0,0.0,0.0,0.0,0.0,0.0,0.0,0.0,-0.026270443573594093,0.0011631287634372711,0.024741634726524353,0.0,0.0,0.0,0.0,0.0,0.0,0.0,0.0,0.0
1606990659213213782,3769500,1606987057386090971,imu_link,-0.002429269952699542,0.006753677502274513,-0.3644307553768158,0.9312028288841248,0.0,0.0,0.0,0.0,0.0,0.0,0.0,0.0,0.0,-42.74918746948242,0.6192353367805481,-0.5413002967834473,0.0,0.0,0.0,0.0,0.0,0.0,0.0,0.0,0.0,-0.026270443573594093,0.0011631287634372711,0.024741634726524353,0.0,0.0,0.0,0.0,0.0,0.0,0.0,0.0,0.0
1606990659213237678,3769501,1606987057386276876,imu_link,-0.0024310459848493338,0.006748823914676905,-0.36442798376083374,0.9312039613723755,0.0,0.0,0.0,0.0,0.0,0.0,0.0,0.0,0.0,-42.748844146728516,0.6186448931694031,-0.5412853360176086,0.0,0.0,0.0,0.0,0.0,0.0,0.0,0.0,0.0,-0.022082438692450523,-0.005567348096519709,0.029789026826620102,0.0,0.0,0.0,0.0,0.0,0.0,0.0,0.0,0.0
1606990659213264998,3769502,1606987057386406782,imu_link,-0.0024310459848493338,0.006748823914676905,-0.36442798376083374,0.9312039613723755,0.0,0.0,0.0,0.0,0.0,0.0,0.0,0.0,0.0,-42.748844146728516,0.6186448931694031,-0.5412853360176086,0.0,0.0,0.0,0.0,0.0,0.0,0.0,0.0,0.0,-0.022082438692450523,-0.005567348096519709,0.029789026826620102,0.0,0.0,0.0,0.0,0.0,0.0,0.0,0.0,0.0
1606990659238853412,3769503,1606987057386525296,imu_link,-0.002429643413051963,0.00675046443939209,-0.3644291162490845,0.9312034845352173,0.0,0.0,0.0,0.0,0.0,0.0,0.0,0.0,0.0,-42.74898147583008,0.6188778281211853,-0.5412048697471619,0.0,0.0,0.0,0.0,0.0,0.0,0.0,0.0,0.0,0.003934158943593502,-0.0107201486825943,0.04954313114285469,0.0,0.0,0.0,0.0,0.0,0.0,0.0,0.0,0.0
1606990659238874610,3769504,1606987057386639515,imu_link,-0.002429643413051963,0.00675046443939209,-0.3644291162490845,0.9312034845352173,0.0,0.0,0.0,0.0,0.0,0.0,0.0,0.0,0.0,-42.74898147583008,0.6188778281211853,-0.5412048697471619,0.0,0.0,0.0,0.0,0.0,0.0,0.0,0.0,0.0,0.003934158943593502,-0.0107201486825943,0.04954313114285469,0.0,0.0,0.0,0.0,0.0,0.0,0.0,0.0,0.0
1606990659238908720,3769505,1606987057386777840,imu_link,-0.0024269702844321728,0.006749478168785572,-0.36442744731903076,0.9312041997909546,0.0,0.0,0.0,0.0,0.0,0.0,0.0,0.0,0.0,-42.74877166748047,0.6188852787017822,-0.5408772826194763,0.0,0.0,0.0,0.0,0.0,0.0,0.0,0.0,0.0,0.006619244813919067,-0.008643490262329578,0.04334649443626404,0.0,0.0,0.0,0.0,0.0,0.0,0.0,0.0,0.0
1606990659238939514,3769506,1606987057386893719,imu_link,-0.0024269702844321728,0.006749478168785572,-0.36442744731903076,0.9312041997909546,0.0,0.0,0.0,0.0,0.0,0.0,0.0,0.0,0.0,-42.74877166748047,0.6188852787017822,-0.5408772826194763,0.0,0.0,0.0,0.0,0.0,0.0,0.0,0.0,0.0,0.006619244813919067,-0.008643490262329578,0.04334649443626404,0.0,0.0,0.0,0.0,0.0,0.0,0.0,0.0,0.0
1606990659238963800,3769507,1606987057387043701,imu_link,-0.002429533051326871,0.006749675143510103,-0.3644287884235382,0.9312036633491516,0.0,0.0,0.0,0.0,0.0,0.0,0.0,0.0,0.0,-42.748939514160156,0.6187984347343445,-0.5411598682403564,0.0,0.0,0.0,0.0,0.0,0.0,0.0,0.0,0.0,-0.0030357246287167072,0.0034467324148863554,0.059155602008104324,0.0,0.0,0.0,0.0,0.0,0.0,0.0,0.0,0.0
1606990659238984541,3769508,1606987057387157048,imu_link,-0.002429533051326871,0.006749675143510103,-0.3644287884235382,0.9312036633491516,0.0,0.0,0.0,0.0,0.0,0.0,0.0,0.0,0.0,-42.748939514160156,0.6187984347343445,-0.5411598682403564,0.0,0.0,0.0,0.0,0.0,0.0,0.0,0.0,0.0,-0.0030357246287167072,0.0034467324148863554,0.059155602008104324,0.0,0.0,0.0,0.0,0.0,0.0,0.0,0.0,0.0
1606990659238996498,3769509,1606987057387264387,imu_link,-0.0024330054875463247,0.006748428102582693,-0.36443501710891724,0.9312012195587158,0.0,0.0,0.0,0.0,0.0,0.0,0.0,0.0,0.0,-42.74970626831055,0.618516743183136,-0.5414825081825256,0.0,0.0,0.0,0.0,0.0,0.0,0.0,0.0,0.0,0.010063870809972286,0.007595098577439785,0.07801684737205505,0.0,0.0,0.0,0.0,0.0,0.0,0.0,0.0,0.0
1606990659239002082,3769510,1606987057387368979,imu_link,-0.0024330054875463247,0.006748428102582693,-0.36443501710891724,0.9312012195587158,0.0,0.0,0.0,0.0,0.0,0.0,0.0,0.0,0.0,-42.74970626831055,0.618516743183136,-0.5414825081825256,0.0,0.0,0.0,0.0,0.0,0.0,0.0,0.0,0.0,0.010063870809972286,0.007595098577439785,0.07801684737205505,0.0,0.0,0.0,0.0,0.0,0.0,0.0,0.0,0.0
1606990659239008708,3769511,1606987057399068259,imu_link,-0.0024320241063833237,0.0067467172630131245,-0.3644365072250366,0.9312006235122681,0.0,0.0,0.0,0.0,0.0,0.0,0.0,0.0,0.0,-42.74989318847656,0.6183742880821228,-0.541307270526886,0.0,0.0,0.0,0.0,0.0,0.0,0.0,0.0,0.0,-0.004369708243757486,-0.006153808906674385,0.07221544533967972,0.0,0.0,0.0,0.0,0.0,0.0,0.0,0.0,0.0
1606990659253702481,3769512,1606987057399254605,imu_link,-0.0024320241063833237,0.0067467172630131245,-0.3644365072250366,0.9312006235122681,0.0,0.0,0.0,0.0,0.0,0.0,0.0,0.0,0.0,-42.74989318847656,0.6183742880821228,-0.541307270526886,0.0,0.0,0.0,0.0,0.0,0.0,0.0,0.0,0.0,-0.004369708243757486,-0.006153808906674385,0.07221544533967972,0.0,0.0,0.0,0.0,0.0,0.0,0.0,0.0,0.0
1606990659253729055,3769513,1606987057399392209,imu_link,-0.00243123690597713,0.006746753118932247,-0.3644426763057709,0.931198239326477,0.0,0.0,0.0,0.0,0.0,0.0,0.0,0.0,0.0,-42.750648498535156,0.6184074282646179,-0.5412288904190063,0.0,0.0,0.0,0.0,0.0,0.0,0.0,0.0,0.0,-0.017740927636623383,-0.006183425895869732,0.06995823234319687,0.0,0.0,0.0,0.0,0.0,0.0,0.0,0.0,0.0
1606990659253738926,3769514,1606987057399519198,imu_link,-0.00243123690597713,0.006746753118932247,-0.3644426763057709,0.931198239326477,0.0,0.0,0.0,0.0,0.0,0.0,0.0,0.0,0.0,-42.750648498535156,0.6184074282646179,-0.5412288904190063,0.0,0.0,0.0,0.0,0.0,0.0,0.0,0.0,0.0,-0.017740927636623383,-0.006183425895869732,0.06995823234319687,0.0,0.0,0.0,0.0,0.0,0.0,0.0,0.0,0.0
1606990659253746906,3769515,1606987057399640935,imu_link,-0.002430693246424198,0.006745119579136372,-0.3644433319568634,0.931198000907898,0.0,0.0,0.0,0.0,0.0,0.0,0.0,0.0,0.0,-42.75072479248047,0.6182554364204407,-0.5411030650138855,0.0,0.0,0.0,0.0,0.0,0.0,0.0,0.0,0.0,0.002512991661205888,0.017380407080054283,0.06967931240797043,0.0,0.0,0.0,0.0,0.0,0.0,0.0,0.0,0.0
1606990659263851021,3769516,1606987057399787243,imu_link,-0.002430693246424198,0.006745119579136372,-0.3644433319568634,0.931198000907898,0.0,0.0,0.0,0.0,0.0,0.0,0.0,0.0,0.0,-42.75072479248047,0.6182554364204407,-0.5411030650138855,0.0,0.0,0.0,0.0,0.0,0.0,0.0,0.0,0.0,0.002512991661205888,0.017380407080054283,0.06967931240797043,0.0,0.0,0.0,0.0,0.0,0.0,0.0,0.0,0.0
1606990659263889056,3769517,1606987057399907146,imu_link,-0.002435873029753566,0.006747022736817598,-0.3644433915615082,0.9311979413032532,0.0,0.0,0.0,0.0,0.0,0.0,0.0,0.0,0.0,-42.750736236572266,0.6182421445846558,-0.5417352914810181,0.0,0.0,0.0,0.0,0.0,0.0,0.0,0.0,0.0,0.003656435292214155,0.0194745734333992,0.06417976319789886,0.0,0.0,0.0,0.0,0.0,0.0,0.0,0.0,0.0
1606990659263902177,3769518,1606987057400017145,imu_link,-0.002435873029753566,0.006747022736817598,-0.3644433915615082,0.9311979413032532,0.0,0.0,0.0,0.0,0.0,0.0,0.0,0.0,0.0,-42.750736236572266,0.6182421445846558,-0.5417352914810181,0.0,0.0,0.0,0.0,0.0,0.0,0.0,0.0,0.0,0.003656435292214155,0.0194745734333992,0.06417976319789886,0.0,0.0,0.0,0.0,0.0,0.0,0.0,0.0,0.0
1606990659263909978,3769519,1606987057400123296,imu_link,-0.0024361861869692802,0.006746730301529169,-0.3644464313983917,0.9311967492103577,0.0,0.0,0.0,0.0,0.0,0.0,0.0,0.0,0.0,-42.7511100769043,0.6181960701942444,-0.5417585968971252,0.0,0.0,0.0,0.0,0.0,0.0,0.0,0.0,0.0,0.012562859803438187,0.015393535606563091,0.04549279436469078,0.0,0.0,0.0,0.0,0.0,0.0,0.0,0.0,0.0
1606990659263922378,3769520,1606987057400227111,imu_link,-0.0024361861869692802,0.006746730301529169,-0.3644464313983917,0.9311967492103577,0.0,0.0,0.0,0.0,0.0,0.0,0.0,0.0,0.0,-42.7511100769043,0.6181960701942444,-0.5417585968971252,0.0,0.0,0.0,0.0,0.0,0.0,0.0,0.0,0.0,0.012562859803438187,0.015393535606563091,0.04549279436469078,0.0,0.0,0.0,0.0,0.0,0.0,0.0,0.0,0.0
1606990659364229138,3769521,1606987057412453702,imu_link,-0.002439606236293912,0.006750395055860281,-0.36444488167762756,0.9311973452568054,0.0,0.0,0.0,0.0,0.0,0.0,0.0,0.0,0.0,-42.75092697143555,0.6184452176094055,-0.542275607585907,0.0,0.0,0.0,0.0,0.0,0.0,0.0,0.0,0.0,0.009880280122160912,0.01846015825867653,0.02530074119567871,0.0,0.0,0.0,0.0,0.0,0.0,0.0,0.0,0.0
1606990659364259823,3769522,1606987057412636149,imu_link,-0.002439606236293912,0.006750395055860281,-0.36444488167762756,0.9311973452568054,0.0,0.0,0.0,0.0,0.0,0.0,0.0,0.0,0.0,-42.75092697143555,0.6184452176094055,-0.542275607585907,0.0,0.0,0.0,0.0,0.0,0.0,0.0,0.0,0.0,0.009880280122160912,0.01846015825867653,0.02530074119567871,0.0,0.0,0.0,0.0,0.0,0.0,0.0,0.0,0.0
1606990659364274065,3769523,1606987057412768210,imu_link,-0.002440809039399028,0.006750697270035744,-0.3644435703754425,0.9311978220939636,0.0,0.0,0.0,0.0,0.0,0.0,0.0,0.0,0.0,-42.75076675415039,0.6184279918670654,-0.5424156785011292,0.0,0.0,0.0,0.0,0.0,0.0,0.0,0.0,0.0,0.004456573631614447,0.012289139442145824,0.049218885600566864,0.0,0.0,0.0,0.0,0.0,0.0,0.0,0.0,0.0
1606990659364301626,3769524,1606987057412891596,imu_link,-0.002440809039399028,0.006750697270035744,-0.3644435703754425,0.9311978220939636,0.0,0.0,0.0,0.0,0.0,0.0,0.0,0.0,0.0,-42.75076675415039,0.6184279918670654,-0.5424156785011292,0.0,0.0,0.0,0.0,0.0,0.0,0.0,0.0,0.0,0.004456573631614447,0.012289139442145824,0.049218885600566864,0.0,0.0,0.0,0.0,0.0,0.0,0.0,0.0,0.0
1606990659368263605,3769525,1606987057413011904,imu_link,-0.0024436742532998323,0.006751173175871372,-0.36444199085235596,0.9311984181404114,0.0,0.0,0.0,0.0,0.0,0.0,0.0,0.0,0.0,-42.75057601928711,0.6183599233627319,-0.5427403450012207,0.0,0.0,0.0,0.0,0.0,0.0,0.0,0.0,0.0,0.024275898933410645,-0.010157695040106773,0.053224168717861176,0.0,0.0,0.0,0.0,0.0,0.0,0.0,0.0,0.0
1606990659368344078,3769526,1606987057413131090,imu_link,-0.0024436742532998323,0.006751173175871372,-0.36444199085235596,0.9311984181404114,0.0,0.0,0.0,0.0,0.0,0.0,0.0,0.0,0.0,-42.75057601928711,0.6183599233627319,-0.5427403450012207,0.0,0.0,0.0,0.0,0.0,0.0,0.0,0.0,0.0,0.024275898933410645,-0.010157695040106773,0.053224168717861176,0.0,0.0,0.0,0.0,0.0,0.0,0.0,0.0,0.0
1606990659368362971,3769527,1606987057413270147,imu_link,-0.0024429787881672382,0.0067506274208426476,-0.3644424378871918,0.931198239326477,0.0,0.0,0.0,0.0,0.0,0.0,0.0,0.0,0.0,-42.75062942504883,0.6183304786682129,-0.542643666267395,0.0,0.0,0.0,0.0,0.0,0.0,0.0,0.0,0.0,0.01367963571101427,-0.009631726890802383,0.020092317834496498,0.0,0.0,0.0,0.0,0.0,0.0,0.0,0.0,0.0
1606990659368467286,3769528,1606987057413386516,imu_link,-0.0024429787881672382,0.0067506274208426476,-0.3644424378871918,0.931198239326477,0.0,0.0,0.0,0.0,0.0,0.0,0.0,0.0,0.0,-42.75062942504883,0.6183304786682129,-0.542643666267395,0.0,0.0,0.0,0.0,0.0,0.0,0.0,0.0,0.0,0.01367963571101427,-0.009631726890802383,0.020092317834496498,0.0,0.0,0.0,0.0,0.0,0.0,0.0,0.0,0.0
1606990659368552673,3769529,1606987057413493012,imu_link,-0.0024390623439103365,0.00675330962985754,-0.36444082856178284,0.9311988949775696,0.0,0.0,0.0,0.0,0.0,0.0,0.0,0.0,0.0,-42.750431060791016,0.6187812685966492,-0.542336642742157,0.0,0.0,0.0,0.0,0.0,0.0,0.0,0.0,0.0,0.009825032204389572,0.018395397812128067,0.024893302470445633,0.0,0.0,0.0,0.0,0.0,0.0,0.0,0.0,0.0
1606990659384957030,3769530,1606987057413599143,imu_link,-0.0024390623439103365,0.00675330962985754,-0.36444082856178284,0.9311988949775696,0.0,0.0,0.0,0.0,0.0,0.0,0.0,0.0,0.0,-42.750431060791016,0.6187812685966492,-0.542336642742157,0.0,0.0,0.0,0.0,0.0,0.0,0.0,0.0,0.0,0.009825032204389572,0.018395397812128067,0.024893302470445633,0.0,0.0,0.0,0.0,0.0,0.0,0.0,0.0,0.0
1606990659385015513,3769531,1606987057413704116,imu_link,-0.002438803669065237,0.006754154339432716,-0.3644410967826843,0.93119877576828,0.0,0.0,0.0,0.0,0.0,0.0,0.0,0.0,0.0,-42.750465393066406,0.6188820600509644,-0.5423445105552673,0.0,0.0,0.0,0.0,0.0,0.0,0.0,0.0,0.0,0.02336912229657173,0.027313286438584328,0.050006069242954254,0.0,0.0,0.0,0.0,0.0,0.0,0.0,0.0,0.0
1606990659385043205,3769532,1606987057426277924,imu_link,-0.002438803669065237,0.006754154339432716,-0.3644410967826843,0.93119877576828,0.0,0.0,0.0,0.0,0.0,0.0,0.0,0.0,0.0,-42.750465393066406,0.6188820600509644,-0.5423445105552673,0.0,0.0,0.0,0.0,0.0,0.0,0.0,0.0,0.0,0.02336912229657173,0.027313286438584328,0.050006069242954254,0.0,0.0,0.0,0.0,0.0,0.0,0.0,0.0,0.0
1606990659385073072,3769533,1606987057426447641,imu_link,-0.002441494492813945,0.006759704556316137,-0.3644416034221649,0.9311985373497009,0.0,0.0,0.0,0.0,0.0,0.0,0.0,0.0,0.0,-42.75053405761719,0.6193616390228271,-0.5428638458251953,0.0,0.0,0.0,0.0,0.0,0.0,0.0,0.0,0.0,0.012071940116584301,0.02255149371922016,0.06565569341182709,0.0,0.0,0.0,0.0,0.0,0.0,0.0,0.0,0.0
1606990659392769650,3769534,1606987057426566027,imu_link,-0.002441494492813945,0.006759704556316137,-0.3644416034221649,0.9311985373497009,0.0,0.0,0.0,0.0,0.0,0.0,0.0,0.0,0.0,-42.75053405761719,0.6193616390228271,-0.5428638458251953,0.0,0.0,0.0,0.0,0.0,0.0,0.0,0.0,0.0,0.012071940116584301,0.02255149371922016,0.06565569341182709,0.0,0.0,0.0,0.0,0.0,0.0,0.0,0.0,0.0
1606990659392823464,3769535,1606987057426671327,imu_link,-0.0024416001979261637,0.006759435869753361,-0.3644424080848694,0.931198239326477,0.0,0.0,0.0,0.0,0.0,0.0,0.0,0.0,0.0,-42.75063705444336,0.6193280816078186,-0.5428645014762878,0.0,0.0,0.0,0.0,0.0,0.0,0.0,0.0,0.0,-0.009103745222091675,0.009498756378889084,0.0676121786236763,0.0,0.0,0.0,0.0,0.0,0.0,0.0,0.0,0.0
1606990659392857106,3769536,1606987057426773828,imu_link,-0.0024416001979261637,0.006759435869753361,-0.3644424080848694,0.931198239326477,0.0,0.0,0.0,0.0,0.0,0.0,0.0,0.0,0.0,-42.75063705444336,0.6193280816078186,-0.5428645014762878,0.0,0.0,0.0,0.0,0.0,0.0,0.0,0.0,0.0,-0.009103745222091675,0.009498756378889084,0.0676121786236763,0.0,0.0,0.0,0.0,0.0,0.0,0.0,0.0,0.0
1606990659392972421,3769537,1606987057426877699,imu_link,-0.0024461287539452314,0.006761504337191582,-0.3644395172595978,0.9311993718147278,0.0,0.0,0.0,0.0,0.0,0.0,0.0,0.0,0.0,-42.750282287597656,0.6193613409996033,-0.5434321761131287,0.0,0.0,0.0,0.0,0.0,0.0,0.0,0.0,0.0,-0.019867833703756332,0.005066229030489922,0.06899802386760712,0.0,0.0,0.0,0.0,0.0,0.0,0.0,0.0,0.0
1606990659392999238,3769538,1606987057427063885,imu_link,-0.0024461287539452314,0.006761504337191582,-0.3644395172595978,0.9311993718147278,0.0,0.0,0.0,0.0,0.0,0.0,0.0,0.0,0.0,-42.750282287597656,0.6193613409996033,-0.5434321761131287,0.0,0.0,0.0,0.0,0.0,0.0,0.0,0.0,0.0,-0.019867833703756332,0.005066229030489922,0.06899802386760712,0.0,0.0,0.0,0.0,0.0,0.0,0.0,0.0,0.0
1606990659444324890,3769539,1606987057427191811,imu_link,-0.00244652247056365,0.006761107128113508,-0.3644421696662903,0.9311982989311218,0.0,0.0,0.0,0.0,0.0,0.0,0.0,0.0,0.0,-42.7506103515625,0.6193009614944458,-0.5434594750404358,0.0,0.0,0.0,0.0,0.0,0.0,0.0,0.0,0.0,-0.014812408946454525,0.014366713352501392,0.05958124250173569,0.0,0.0,0.0,0.0,0.0,0.0,0.0,0.0,0.0
1606990659444394385,3769540,1606987057427299229,imu_link,-0.00244652247056365,0.006761107128113508,-0.3644421696662903,0.9311982989311218,0.0,0.0,0.0,0.0,0.0,0.0,0.0,0.0,0.0,-42.7506103515625,0.6193009614944458,-0.5434594750404358,0.0,0.0,0.0,0.0,0.0,0.0,0.0,0.0,0.0,-0.014812408946454525,0.014366713352501392,0.05958124250173569,0.0,0.0,0.0,0.0,0.0,0.0,0.0,0.0,0.0
1606990659444428237,3769541,1606987057427403440,imu_link,-0.002450551837682724,0.006759755779057741,-0.36443760991096497,0.9312000870704651,0.0,0.0,0.0,0.0,0.0,0.0,0.0,0.0,0.0,-42.75004577636719,0.6189911365509033,-0.5438298583030701,0.0,0.0,0.0,0.0,0.0,0.0,0.0,0.0,0.0,-0.002004233654588461,0.009763562120497227,0.03043152391910553,0.0,0.0,0.0,0.0,0.0,0.0,0.0,0.0,0.0
1606990659444442770,3769542,1606987057427507506,imu_link,-0.002450551837682724,0.006759755779057741,-0.36443760991096497,0.9312000870704651,0.0,0.0,0.0,0.0,0.0,0.0,0.0,0.0,0.0,-42.75004577636719,0.6189911365509033,-0.5438298583030701,0.0,0.0,0.0,0.0,0.0,0.0,0.0,0.0,0.0,-0.002004233654588461,0.009763562120497227,0.03043152391910553,0.0,0.0,0.0,0.0,0.0,0.0,0.0,0.0,0.0
1606990659496092667,3769543,1606987057439758744,imu_link,-0.002452950458973646,0.006760211195796728,-0.3644373416900635,0.9312002062797546,0.0,0.0,0.0,0.0,0.0,0.0,0.0,0.0,0.0,-42.75001525878906,0.6189397573471069,-0.5441046953201294,0.0,0.0,0.0,0.0,0.0,0.0,0.0,0.0,0.0,0.014855667017400265,-0.009400962851941586,0.003132825717329979,0.0,0.0,0.0,0.0,0.0,0.0,0.0,0.0,0.0
1606990659496133707,3769544,1606987057439907027,imu_link,-0.002452950458973646,0.006760211195796728,-0.3644373416900635,0.9312002062797546,0.0,0.0,0.0,0.0,0.0,0.0,0.0,0.0,0.0,-42.75001525878906,0.6189397573471069,-0.5441046953201294,0.0,0.0,0.0,0.0,0.0,0.0,0.0,0.0,0.0,0.014855667017400265,-0.009400962851941586,0.003132825717329979,0.0,0.0,0.0,0.0,0.0,0.0,0.0,0.0,0.0
1606990659496156086,3769545,1606987057439996058,imu_link,-0.0024517071433365345,0.006761196535080671,-0.36443179845809937,0.9312023520469666,0.0,0.0,0.0,0.0,0.0,0.0,0.0,0.0,0.0,-42.749332427978516,0.6190999746322632,-0.5440095067024231,0.0,0.0,0.0,0.0,0.0,0.0,0.0,0.0,0.0,0.01984630711376667,-0.0038507047574967146,0.0260604415088892,0.0,0.0,0.0,0.0,0.0,0.0,0.0,0.0,0.0
1606990659496177077,3769546,1606987057440077562,imu_link,-0.0024517071433365345,0.006761196535080671,-0.36443179845809937,0.9312023520469666,0.0,0.0,0.0,0.0,0.0,0.0,0.0,0.0,0.0,-42.749332427978516,0.6190999746322632,-0.5440095067024231,0.0,0.0,0.0,0.0,0.0,0.0,0.0,0.0,0.0,0.01984630711376667,-0.0038507047574967146,0.0260604415088892,0.0,0.0,0.0,0.0,0.0,0.0,0.0,0.0,0.0
1606990659496193049,3769547,1606987057440169430,imu_link,-0.002452779095619917,0.006761171855032444,-0.3644321858882904,0.931202232837677,0.0,0.0,0.0,0.0,0.0,0.0,0.0,0.0,0.0,-42.7493782043457,0.6190524101257324,-0.5441230535507202,0.0,0.0,0.0,0.0,0.0,0.0,0.0,0.0,0.0,0.001801597303710878,0.015515989623963833,0.04621785134077072,0.0,0.0,0.0,0.0,0.0,0.0,0.0,0.0,0.0
1606990659530744606,3769548,1606987057440267782,imu_link,-0.002452779095619917,0.006761171855032444,-0.3644321858882904,0.931202232837677,0.0,0.0,0.0,0.0,0.0,0.0,0.0,0.0,0.0,-42.7493782043457,0.6190524101257324,-0.5441230535507202,0.0,0.0,0.0,0.0,0.0,0.0,0.0,0.0,0.0,0.001801597303710878,0.015515989623963833,0.04621785134077072,0.0,0.0,0.0,0.0,0.0,0.0,0.0,0.0,0.0
1606990659530774544,3769549,1606987057440351456,imu_link,-0.0024531842209398746,0.006760783027857542,-0.3644261658191681,0.9312044978141785,0.0,0.0,0.0,0.0,0.0,0.0,0.0,0.0,0.0,-42.74864196777344,0.6189975142478943,-0.5441461205482483,0.0,0.0,0.0,0.0,0.0,0.0,0.0,0.0,0.0,-0.008992895483970642,0.015102979727089405,0.04438050463795662,0.0,0.0,0.0,0.0,0.0,0.0,0.0,0.0,0.0
1606990659530786981,3769550,1606987057440433351,imu_link,-0.0024531842209398746,0.006760783027857542,-0.3644261658191681,0.9312044978141785,0.0,0.0,0.0,0.0,0.0,0.0,0.0,0.0,0.0,-42.74864196777344,0.6189975142478943,-0.5441461205482483,0.0,0.0,0.0,0.0,0.0,0.0,0.0,0.0,0.0,-0.008992895483970642,0.015102979727089405,0.04438050463795662,0.0,0.0,0.0,0.0,0.0,0.0,0.0,0.0,0.0
1606990659530804582,3769551,1606987057440514794,imu_link,-0.002452104352414608,0.0067598698660731316,-0.364426851272583,0.9312042593955994,0.0,0.0,0.0,0.0,0.0,0.0,0.0,0.0,0.0,-42.74872589111328,0.6189447045326233,-0.5439931750297546,0.0,0.0,0.0,0.0,0.0,0.0,0.0,0.0,0.0,-0.0037275960203260183,0.00784206110984087,0.034868836402893066,0.0,0.0,0.0,0.0,0.0,0.0,0.0,0.0,0.0
1606990659539603248,3769552,1606987057440596694,imu_link,-0.002452104352414608,0.0067598698660731316,-0.364426851272583,0.9312042593955994,0.0,0.0,0.0,0.0,0.0,0.0,0.0,0.0,0.0,-42.74872589111328,0.6189447045326233,-0.5439931750297546,0.0,0.0,0.0,0.0,0.0,0.0,0.0,0.0,0.0,-0.0037275960203260183,0.00784206110984087,0.034868836402893066,0.0,0.0,0.0,0.0,0.0,0.0,0.0,0.0,0.0
1606990659539649406,3769553,1606987057440678267,imu_link,-0.0024530452210456133,0.006759831216186285,-0.36442112922668457,0.9312065243721008,0.0,0.0,0.0,0.0,0.0,0.0,0.0,0.0,0.0,-42.74802017211914,0.618904709815979,-0.5440880656242371,0.0,0.0,0.0,0.0,0.0,0.0,0.0,0.0,0.0,-0.017730146646499634,-0.001584865734912455,0.035025790333747864,0.0,0.0,0.0,0.0,0.0,0.0,0.0,0.0,0.0
1606990659539687944,3769554,1606987057452642185,imu_link,-0.0024530452210456133,0.006759831216186285,-0.36442112922668457,0.9312065243721008,0.0,0.0,0.0,0.0,0.0,0.0,0.0,0.0,0.0,-42.74802017211914,0.618904709815979,-0.5440880656242371,0.0,0.0,0.0,0.0,0.0,0.0,0.0,0.0,0.0,-0.017730146646499634,-0.001584865734912455,0.035025790333747864,0.0,0.0,0.0,0.0,0.0,0.0,0.0,0.0,0.0
1606990659539716024,3769555,1606987057452789035,imu_link,-0.002453029388561845,0.006761012598872185,-0.36442360281944275,0.9312055706977844,0.0,0.0,0.0,0.0,0.0,0.0,0.0,0.0,0.0,-42.74832534790039,0.6190299987792969,-0.5441374182701111,0.0,0.0,0.0,0.0,0.0,0.0,0.0,0.0,0.0,-0.01985112950205803,0.01358705572783947,0.05388952046632767,0.0,0.0,0.0,0.0,0.0,0.0,0.0,0.0,0.0
1606990659539774763,3769556,1606987057452896163,imu_link,-0.002453029388561845,0.006761012598872185,-0.36442360281944275,0.9312055706977844,0.0,0.0,0.0,0.0,0.0,0.0,0.0,0.0,0.0,-42.74832534790039,0.6190299987792969,-0.5441374182701111,0.0,0.0,0.0,0.0,0.0,0.0,0.0,0.0,0.0,-0.01985112950205803,0.01358705572783947,0.05388952046632767,0.0,0.0,0.0,0.0,0.0,0.0,0.0,0.0,0.0
1606990659593715659,3769557,1606987057452986698,imu_link,-0.0024550927337259054,0.006759949028491974,-0.3644246459007263,0.931205153465271,0.0,0.0,0.0,0.0,0.0,0.0,0.0,0.0,0.0,-42.74845504760742,0.618829607963562,-0.544313907623291,0.0,0.0,0.0,0.0,0.0,0.0,0.0,0.0,0.0,-0.00039796304190531373,0.023815583437681198,0.037956081330776215,0.0,0.0,0.0,0.0,0.0,0.0,0.0,0.0,0.0
1606990659593731386,3769558,1606987057453126972,imu_link,-0.0024550927337259054,0.006759949028491974,-0.3644246459007263,0.931205153465271,0.0,0.0,0.0,0.0,0.0,0.0,0.0,0.0,0.0,-42.74845504760742,0.618829607963562,-0.544313907623291,0.0,0.0,0.0,0.0,0.0,0.0,0.0,0.0,0.0,-0.00039796304190531373,0.023815583437681198,0.037956081330776215,0.0,0.0,0.0,0.0,0.0,0.0,0.0,0.0,0.0
1606990659593737359,3769559,1606987057453229029,imu_link,-0.0024554324336349964,0.006758168339729309,-0.36442437767982483,0.9312052726745605,0.0,0.0,0.0,0.0,0.0,0.0,0.0,0.0,0.0,-42.748416900634766,0.6186256408691406,-0.5442755818367004,0.0,0.0,0.0,0.0,0.0,0.0,0.0,0.0,0.0,0.005865800194442272,-0.00326276826672256,0.029824398458003998,0.0,0.0,0.0,0.0,0.0,0.0,0.0,0.0,0.0
1606990659593748932,3769560,1606987057453312868,imu_link,-0.0024554324336349964,0.006758168339729309,-0.36442437767982483,0.9312052726745605,0.0,0.0,0.0,0.0,0.0,0.0,0.0,0.0,0.0,-42.748416900634766,0.6186256408691406,-0.5442755818367004,0.0,0.0,0.0,0.0,0.0,0.0,0.0,0.0,0.0,0.005865800194442272,-0.00326276826672256,0.029824398458003998,0.0,0.0,0.0,0.0,0.0,0.0,0.0,0.0,0.0
1606990659598062006,3769561,1606987057453391470,imu_link,-0.002454542089253664,0.006758652627468109,-0.3644263446331024,0.9312044978141785,0.0,0.0,0.0,0.0,0.0,0.0,0.0,0.0,0.0,-42.7486572265625,0.6187133193016052,-0.5442020893096924,0.0,0.0,0.0,0.0,0.0,0.0,0.0,0.0,0.0,0.007458311039954424,-0.011164058931171894,0.017323637381196022,0.0,0.0,0.0,0.0,0.0,0.0,0.0,0.0,0.0
1606990659598086924,3769562,1606987057453515336,imu_link,-0.002454542089253664,0.006758652627468109,-0.3644263446331024,0.9312044978141785,0.0,0.0,0.0,0.0,0.0,0.0,0.0,0.0,0.0,-42.7486572265625,0.6187133193016052,-0.5442020893096924,0.0,0.0,0.0,0.0,0.0,0.0,0.0,0.0,0.0,0.007458311039954424,-0.011164058931171894,0.017323637381196022,0.0,0.0,0.0,0.0,0.0,0.0,0.0,0.0,0.0
1606990659598097722,3769563,1606987057453596569,imu_link,-0.0024553542025387287,0.006757946219295263,-0.3644273579120636,0.931204080581665,0.0,0.0,0.0,0.0,0.0,0.0,0.0,0.0,0.0,-42.74878692626953,0.6186034083366394,-0.5442599058151245,0.0,0.0,0.0,0.0,0.0,0.0,0.0,0.0,0.0,0.014670905657112598,-0.0014590102946385741,0.005576287861913443,0.0,0.0,0.0,0.0,0.0,0.0,0.0,0.0,0.0
1606990659598105296,3769564,1606987057466417215,imu_link,-0.0024553542025387287,0.006757946219295263,-0.3644273579120636,0.931204080581665,0.0,0.0,0.0,0.0,0.0,0.0,0.0,0.0,0.0,-42.74878692626953,0.6186034083366394,-0.5442599058151245,0.0,0.0,0.0,0.0,0.0,0.0,0.0,0.0,0.0,0.014670905657112598,-0.0014590102946385741,0.005576287861913443,0.0,0.0,0.0,0.0,0.0,0.0,0.0,0.0,0.0
1606990659598112401,3769565,1606987057466566029,imu_link,-0.0024552380200475454,0.006760727614164352,-0.3644235134124756,0.9312055706977844,0.0,0.0,0.0,0.0,0.0,0.0,0.0,0.0,0.0,-42.748313903808594,0.6189073920249939,-0.5443611145019531,0.0,0.0,0.0,0.0,0.0,0.0,0.0,0.0,0.0,0.010878639295697212,-0.0036487304605543613,0.02481323480606079,0.0,0.0,0.0,0.0,0.0,0.0,0.0,0.0,0.0
1606990659609073115,3769566,1606987057466668802,imu_link,-0.0024552380200475454,0.006760727614164352,-0.3644235134124756,0.9312055706977844,0.0,0.0,0.0,0.0,0.0,0.0,0.0,0.0,0.0,-42.748313903808594,0.6189073920249939,-0.5443611145019531,0.0,0.0,0.0,0.0,0.0,0.0,0.0,0.0,0.0,0.010878639295697212,-0.0036487304605543613,0.02481323480606079,0.0,0.0,0.0,0.0,0.0,0.0,0.0,0.0,0.0
1606990659609093283,3769567,1606987057466754250,imu_link,-0.002456419635564089,0.00675989780575037,-0.3644234836101532,0.9312056303024292,0.0,0.0,0.0,0.0,0.0,0.0,0.0,0.0,0.0,-42.74830627441406,0.6187694668769836,-0.5444526076316833,0.0,0.0,0.0,0.0,0.0,0.0,0.0,0.0,0.0,-0.0020711126271635294,-0.0009059789008460939,0.03635546565055847,0.0,0.0,0.0,0.0,0.0,0.0,0.0,0.0,0.0
1606990659609098602,3769568,1606987057466842128,imu_link,-0.002456419635564089,0.00675989780575037,-0.3644234836101532,0.9312056303024292,0.0,0.0,0.0,0.0,0.0,0.0,0.0,0.0,0.0,-42.74830627441406,0.6187694668769836,-0.5444526076316833,0.0,0.0,0.0,0.0,0.0,0.0,0.0,0.0,0.0,-0.0020711126271635294,-0.0009059789008460939,0.03635546565055847,0.0,0.0,0.0,0.0,0.0,0.0,0.0,0.0,0.0
1606990659609103430,3769569,1606987057466928378,imu_link,-0.002455509267747402,0.006758763454854488,-0.36442023515701294,0.9312068223953247,0.0,0.0,0.0,0.0,0.0,0.0,0.0,0.0,0.0,-42.74790954589844,0.6186883449554443,-0.5443059802055359,0.0,0.0,0.0,0.0,0.0,0.0,0.0,0.0,0.0,0.0003812611976172775,-3.9480000850744545e-05,0.028636960312724113,0.0,0.0,0.0,0.0,0.0,0.0,0.0,0.0,0.0
1606990659617569319,3769570,1606987057467067956,imu_link,-0.002455509267747402,0.006758763454854488,-0.36442023515701294,0.9312068223953247,0.0,0.0,0.0,0.0,0.0,0.0,0.0,0.0,0.0,-42.74790954589844,0.6186883449554443,-0.5443059802055359,0.0,0.0,0.0,0.0,0.0,0.0,0.0,0.0,0.0,0.0003812611976172775,-3.9480000850744545e-05,0.028636960312724113,0.0,0.0,0.0,0.0,0.0,0.0,0.0,0.0,0.0
1606990659617592401,3769571,1606987057467150973,imu_link,-0.0024567153304815292,0.006759329233318567,-0.3644183278083801,0.9312076568603516,0.0,0.0,0.0,0.0,0.0,0.0,0.0,0.0,0.0,-42.74767303466797,0.6186994910240173,-0.544456958770752,0.0,0.0,0.0,0.0,0.0,0.0,0.0,0.0,0.0,0.011795940808951855,-0.009805611334741116,-0.0022596181370317936,0.0,0.0,0.0,0.0,0.0,0.0,0.0,0.0,0.0
1606990659617599452,3769572,1606987057467278488,imu_link,-0.0024567153304815292,0.006759329233318567,-0.3644183278083801,0.9312076568603516,0.0,0.0,0.0,0.0,0.0,0.0,0.0,0.0,0.0,-42.74767303466797,0.6186994910240173,-0.544456958770752,0.0,0.0,0.0,0.0,0.0,0.0,0.0,0.0,0.0,0.011795940808951855,-0.009805611334741116,-0.0022596181370317936,0.0,0.0,0.0,0.0,0.0,0.0,0.0,0.0,0.0
1606990659617611143,3769573,1606987057467368211,imu_link,-0.002456584945321083,0.006762838922441006,-0.3644126057624817,0.9312098622322083,0.0,0.0,0.0,0.0,0.0,0.0,0.0,0.0,0.0,-42.746971130371094,0.6190828084945679,-0.5445858240127563,0.0,0.0,0.0,0.0,0.0,0.0,0.0,0.0,0.0,0.012602205388247967,-0.0015139059396460652,-0.008589021861553192,0.0,0.0,0.0,0.0,0.0,0.0,0.0,0.0,0.0
1606990659617628000,3769574,1606987057467454876,imu_link,-0.002456584945321083,0.006762838922441006,-0.3644126057624817,0.9312098622322083,0.0,0.0,0.0,0.0,0.0,0.0,0.0,0.0,0.0,-42.746971130371094,0.6190828084945679,-0.5445858240127563,0.0,0.0,0.0,0.0,0.0,0.0,0.0,0.0,0.0,0.012602205388247967,-0.0015139059396460652,-0.008589021861553192,0.0,0.0,0.0,0.0,0.0,0.0,0.0,0.0,0.0
1606990659666707495,3769575,1606987057479798448,imu_link,-0.0024563383776694536,0.006763094570487738,-0.3644143342971802,0.931209146976471,0.0,0.0,0.0,0.0,0.0,0.0,0.0,0.0,0.0,-42.747188568115234,0.6191193461418152,-0.5445714592933655,0.0,0.0,0.0,0.0,0.0,0.0,0.0,0.0,0.0,0.005463688634335995,0.007634186185896397,0.01594325713813305,0.0,0.0,0.0,0.0,0.0,0.0,0.0,0.0,0.0
1606990659666726410,3769576,1606987057479936618,imu_link,-0.0024563383776694536,0.006763094570487738,-0.3644143342971802,0.931209146976471,0.0,0.0,0.0,0.0,0.0,0.0,0.0,0.0,0.0,-42.747188568115234,0.6191193461418152,-0.5445714592933655,0.0,0.0,0.0,0.0,0.0,0.0,0.0,0.0,0.0,0.005463688634335995,0.007634186185896397,0.01594325713813305,0.0,0.0,0.0,0.0,0.0,0.0,0.0,0.0,0.0
1606990659666741111,3769577,1606987057480025303,imu_link,-0.0024566790089011192,0.0067635392770171165,-0.36441075801849365,0.9312105178833008,0.0,0.0,0.0,0.0,0.0,0.0,0.0,0.0,0.0,-42.74674987792969,0.6191546320915222,-0.5446239709854126,0.0,0.0,0.0,0.0,0.0,0.0,0.0,0.0,0.0,-0.003974263556301594,-0.003045210847631097,0.052198681980371475,0.0,0.0,0.0,0.0,0.0,0.0,0.0,0.0,0.0
1606990659666747155,3769578,1606987057480106867,imu_link,-0.0024566790089011192,0.0067635392770171165,-0.36441075801849365,0.9312105178833008,0.0,0.0,0.0,0.0,0.0,0.0,0.0,0.0,0.0,-42.74674987792969,0.6191546320915222,-0.5446239709854126,0.0,0.0,0.0,0.0,0.0,0.0,0.0,0.0,0.0,-0.003974263556301594,-0.003045210847631097,0.052198681980371475,0.0,0.0,0.0,0.0,0.0,0.0,0.0,0.0,0.0
1606990659675553778,3769579,1606987057480242756,imu_link,-0.002455731388181448,0.006762782111763954,-0.3644091486930847,0.9312111735343933,0.0,0.0,0.0,0.0,0.0,0.0,0.0,0.0,0.0,-42.746551513671875,0.619114339351654,-0.5444900989532471,0.0,0.0,0.0,0.0,0.0,0.0,0.0,0.0,0.0,-0.006301790475845337,-0.01600002497434616,0.05713022127747536,0.0,0.0,0.0,0.0,0.0,0.0,0.0,0.0,0.0
1606990659675579642,3769580,1606987057480326054,imu_link,-0.002455731388181448,0.006762782111763954,-0.3644091486930847,0.9312111735343933,0.0,0.0,0.0,0.0,0.0,0.0,0.0,0.0,0.0,-42.746551513671875,0.619114339351654,-0.5444900989532471,0.0,0.0,0.0,0.0,0.0,0.0,0.0,0.0,0.0,-0.006301790475845337,-0.01600002497434616,0.05713022127747536,0.0,0.0,0.0,0.0,0.0,0.0,0.0,0.0,0.0
1606990659675588795,3769581,1606987057480427980,imu_link,-0.0024543977342545986,0.006761834491044283,-0.36440739035606384,0.9312118887901306,0.0,0.0,0.0,0.0,0.0,0.0,0.0,0.0,0.0,-42.746334075927734,0.6190699934959412,-0.5443070530891418,0.0,0.0,0.0,0.0,0.0,0.0,0.0,0.0,0.0,-9.976813453249633e-05,-0.01210709661245346,0.03349486365914345,0.0,0.0,0.0,0.0,0.0,0.0,0.0,0.0,0.0
1606990659675601493,3769582,1606987057480511829,imu_link,-0.0024543977342545986,0.006761834491044283,-0.36440739035606384,0.9312118887901306,0.0,0.0,0.0,0.0,0.0,0.0,0.0,0.0,0.0,-42.746334075927734,0.6190699934959412,-0.5443070530891418,0.0,0.0,0.0,0.0,0.0,0.0,0.0,0.0,0.0,-9.976813453249633e-05,-0.01210709661245346,0.03349486365914345,0.0,0.0,0.0,0.0,0.0,0.0,0.0,0.0,0.0
1606990659675620993,3769583,1606987057480592170,imu_link,-0.0024543977342545986,0.006761834491044283,-0.36440739035606384,0.9312118887901306,0.0,0.0,0.0,0.0,0.0,0.0,0.0,0.0,0.0,-42.746334075927734,0.6190699934959412,-0.5443070530891418,0.0,0.0,0.0,0.0,0.0,0.0,0.0,0.0,0.0,-0.01317419484257698,-0.0004570180317386985,0.062276795506477356,0.0,0.0,0.0,0.0,0.0,0.0,0.0,0.0,0.0
1606990659727306423,3769584,1606987057480673674,imu_link,-0.0024543977342545986,0.006761834491044283,-0.36440739035606384,0.9312118887901306,0.0,0.0,0.0,0.0,0.0,0.0,0.0,0.0,0.0,-42.746334075927734,0.6190699934959412,-0.5443070530891418,0.0,0.0,0.0,0.0,0.0,0.0,0.0,0.0,0.0,-0.01317419484257698,-0.0004570180317386985,0.062276795506477356,0.0,0.0,0.0,0.0,0.0,0.0,0.0,0.0,0.0
1606990659727338520,3769585,1606987057480755162,imu_link,-0.00245578377507627,0.0067605371586978436,-0.36440545320510864,0.9312126636505127,0.0,0.0,0.0,0.0,0.0,0.0,0.0,0.0,0.0,-42.746089935302734,0.6188748478889465,-0.5443993806838989,0.0,0.0,0.0,0.0,0.0,0.0,0.0,0.0,0.0,-0.011120585724711418,-0.014875170774757862,0.06975024938583374,0.0,0.0,0.0,0.0,0.0,0.0,0.0,0.0,0.0
1606990659727349370,3769586,1606987057493613200,imu_link,-0.00245578377507627,0.0067605371586978436,-0.36440545320510864,0.9312126636505127,0.0,0.0,0.0,0.0,0.0,0.0,0.0,0.0,0.0,-42.746089935302734,0.6188748478889465,-0.5443993806838989,0.0,0.0,0.0,0.0,0.0,0.0,0.0,0.0,0.0,-0.011120585724711418,-0.014875170774757862,0.06975024938583374,0.0,0.0,0.0,0.0,0.0,0.0,0.0,0.0,0.0
1606990659727360345,3769587,1606987057493732355,imu_link,-0.0024559826124459505,0.006761561613529921,-0.36440595984458923,0.9312124848365784,0.0,0.0,0.0,0.0,0.0,0.0,0.0,0.0,0.0,-42.74615478515625,0.6189756393432617,-0.5444638133049011,0.0,0.0,0.0,0.0,0.0,0.0,0.0,0.0,0.0,0.005733609665185213,-0.02561943233013153,0.06395877152681351,0.0,0.0,0.0,0.0,0.0,0.0,0.0,0.0,0.0
1606990659733825666,3769588,1606987057493816600,imu_link,-0.0024559826124459505,0.006761561613529921,-0.36440595984458923,0.9312124848365784,0.0,0.0,0.0,0.0,0.0,0.0,0.0,0.0,0.0,-42.74615478515625,0.6189756393432617,-0.5444638133049011,0.0,0.0,0.0,0.0,0.0,0.0,0.0,0.0,0.0,0.005733609665185213,-0.02561943233013153,0.06395877152681351,0.0,0.0,0.0,0.0,0.0,0.0,0.0,0.0,0.0
1606990659733860807,3769589,1606987057493916331,imu_link,-0.0024530591908842325,0.006761315278708935,-0.3644063174724579,0.9312123656272888,0.0,0.0,0.0,0.0,0.0,0.0,0.0,0.0,0.0,-42.74619674682617,0.6190711259841919,-0.5441417694091797,0.0,0.0,0.0,0.0,0.0,0.0,0.0,0.0,0.0,-0.011963920667767525,-0.007814385928213596,0.063416987657547,0.0,0.0,0.0,0.0,0.0,0.0,0.0,0.0,0.0
1606990659733872348,3769590,1606987057493996286,imu_link,-0.0024530591908842325,0.006761315278708935,-0.3644063174724579,0.9312123656272888,0.0,0.0,0.0,0.0,0.0,0.0,0.0,0.0,0.0,-42.74619674682617,0.6190711259841919,-0.5441417694091797,0.0,0.0,0.0,0.0,0.0,0.0,0.0,0.0,0.0,-0.011963920667767525,-0.007814385928213596,0.063416987657547,0.0,0.0,0.0,0.0,0.0,0.0,0.0,0.0,0.0
1606990659733883898,3769591,1606987057494116770,imu_link,-0.002454423811286688,0.006762483157217503,-0.364408016204834,0.9312115907669067,0.0,0.0,0.0,0.0,0.0,0.0,0.0,0.0,0.0,-42.74641036987305,0.619137704372406,-0.5443373322486877,0.0,0.0,0.0,0.0,0.0,0.0,0.0,0.0,0.0,-0.02280884049832821,0.0006726977881044149,0.0460665300488472,0.0,0.0,0.0,0.0,0.0,0.0,0.0,0.0,0.0
1606990659826580379,3769592,1606987057494216371,imu_link,-0.002454423811286688,0.006762483157217503,-0.364408016204834,0.9312115907669067,0.0,0.0,0.0,0.0,0.0,0.0,0.0,0.0,0.0,-42.74641036987305,0.619137704372406,-0.5443373322486877,0.0,0.0,0.0,0.0,0.0,0.0,0.0,0.0,0.0,-0.02280884049832821,0.0006726977881044149,0.0460665300488472,0.0,0.0,0.0,0.0,0.0,0.0,0.0,0.0,0.0
1606990659826611778,3769593,1606987057494301648,imu_link,-0.0024552897084504366,0.006762151140719652,-0.36440908908843994,0.9312111735343933,0.0,0.0,0.0,0.0,0.0,0.0,0.0,0.0,0.0,-42.74654006958008,0.619065523147583,-0.544416606426239,0.0,0.0,0.0,0.0,0.0,0.0,0.0,0.0,0.0,-0.018791355192661285,-0.006814828608185053,0.042227547615766525,0.0,0.0,0.0,0.0,0.0,0.0,0.0,0.0,0.0
1606990659826627524,3769594,1606987057494381573,imu_link,-0.0024552897084504366,0.006762151140719652,-0.36440908908843994,0.9312111735343933,0.0,0.0,0.0,0.0,0.0,0.0,0.0,0.0,0.0,-42.74654006958008,0.619065523147583,-0.544416606426239,0.0,0.0,0.0,0.0,0.0,0.0,0.0,0.0,0.0,-0.018791355192661285,-0.006814828608185053,0.042227547615766525,0.0,0.0,0.0,0.0,0.0,0.0,0.0,0.0,0.0
1606990659826672536,3769595,1606987057494511333,imu_link,-0.0024558897130191326,0.006760298740118742,-0.36440953612327576,0.9312110543251038,0.0,0.0,0.0,0.0,0.0,0.0,0.0,0.0,0.0,-42.74659729003906,0.6188424825668335,-0.5444034934043884,0.0,0.0,0.0,0.0,0.0,0.0,0.0,0.0,0.0,-0.014701461419463158,-0.009578146040439606,0.04879129305481911,0.0,0.0,0.0,0.0,0.0,0.0,0.0,0.0,0.0
1606990659826687416,3769596,1606987057494595007,imu_link,-0.0024558897130191326,0.006760298740118742,-0.36440953612327576,0.9312110543251038,0.0,0.0,0.0,0.0,0.0,0.0,0.0,0.0,0.0,-42.74659729003906,0.6188424825668335,-0.5444034934043884,0.0,0.0,0.0,0.0,0.0,0.0,0.0,0.0,0.0,-0.014701461419463158,-0.009578146040439606,0.04879129305481911,0.0,0.0,0.0,0.0,0.0,0.0,0.0,0.0,0.0
1606990659835123778,3769597,1606987057507154819,imu_link,-0.0024546999484300613,0.006760182324796915,-0.3644058406352997,0.9312125444412231,0.0,0.0,0.0,0.0,0.0,0.0,0.0,0.0,0.0,-42.74613952636719,0.6188820004463196,-0.5442692041397095,0.0,0.0,0.0,0.0,0.0,0.0,0.0,0.0,0.0,-0.0072782584466040134,-0.0016263880534097552,0.03944268450140953,0.0,0.0,0.0,0.0,0.0,0.0,0.0,0.0,0.0
1606990659835148149,3769598,1606987057507367722,imu_link,-0.0024546999484300613,0.006760182324796915,-0.3644058406352997,0.9312125444412231,0.0,0.0,0.0,0.0,0.0,0.0,0.0,0.0,0.0,-42.74613952636719,0.6188820004463196,-0.5442692041397095,0.0,0.0,0.0,0.0,0.0,0.0,0.0,0.0,0.0,-0.0072782584466040134,-0.0016263880534097552,0.03944268450140953,0.0,0.0,0.0,0.0,0.0,0.0,0.0,0.0,0.0
1606990659835166536,3769599,1606987057507484913,imu_link,-0.002455145353451371,0.0067620775662362576,-0.36440715193748474,0.9312120079994202,0.0,0.0,0.0,0.0,0.0,0.0,0.0,0.0,0.0,-42.74630355834961,0.6190648674964905,-0.5443967580795288,0.0,0.0,0.0,0.0,0.0,0.0,0.0,0.0,0.0,0.002616698620840907,0.002209787257015705,0.040160201489925385,0.0,0.0,0.0,0.0,0.0,0.0,0.0,0.0,0.0
1606990659835175232,3769600,1606987057507583471,imu_link,-0.002455145353451371,0.0067620775662362576,-0.36440715193748474,0.9312120079994202,0.0,0.0,0.0,0.0,0.0,0.0,0.0,0.0,0.0,-42.74630355834961,0.6190648674964905,-0.5443967580795288,0.0,0.0,0.0,0.0,0.0,0.0,0.0,0.0,0.0,0.002616698620840907,0.002209787257015705,0.040160201489925385,0.0,0.0,0.0,0.0,0.0,0.0,0.0,0.0,0.0
1606990659844743094,3769601,1606987057507670046,imu_link,-0.0024572275578975677,0.006759734358638525,-0.36440205574035645,0.9312139749526978,0.0,0.0,0.0,0.0,0.0,0.0,0.0,0.0,0.0,-42.745670318603516,0.6187307834625244,-0.5445177555084229,0.0,0.0,0.0,0.0,0.0,0.0,0.0,0.0,0.0,0.011374060995876789,0.016772080212831497,0.06402479857206345,0.0,0.0,0.0,0.0,0.0,0.0,0.0,0.0,0.0
1606990659844818348,3769602,1606987057507767893,imu_link,-0.0024572275578975677,0.006759734358638525,-0.36440205574035645,0.9312139749526978,0.0,0.0,0.0,0.0,0.0,0.0,0.0,0.0,0.0,-42.745670318603516,0.6187307834625244,-0.5445177555084229,0.0,0.0,0.0,0.0,0.0,0.0,0.0,0.0,0.0,0.011374060995876789,0.016772080212831497,0.06402479857206345,0.0,0.0,0.0,0.0,0.0,0.0,0.0,0.0,0.0
1606990659844843674,3769603,1606987057507853461,imu_link,-0.0024553353432565928,0.0067624300718307495,-0.36440205574035645,0.9312139749526978,0.0,0.0,0.0,0.0,0.0,0.0,0.0,0.0,0.0,-42.745670318603516,0.6190975308418274,-0.5444283485412598,0.0,0.0,0.0,0.0,0.0,0.0,0.0,0.0,0.0,0.009742556139826775,0.040187861770391464,0.04912672936916351,0.0,0.0,0.0,0.0,0.0,0.0,0.0,0.0,0.0
1606990659844858584,3769604,1606987057507933531,imu_link,-0.0024553353432565928,0.0067624300718307495,-0.36440205574035645,0.9312139749526978,0.0,0.0,0.0,0.0,0.0,0.0,0.0,0.0,0.0,-42.745670318603516,0.6190975308418274,-0.5444283485412598,0.0,0.0,0.0,0.0,0.0,0.0,0.0,0.0,0.0,0.009742556139826775,0.040187861770391464,0.04912672936916351,0.0,0.0,0.0,0.0,0.0,0.0,0.0,0.0,0.0
1606990659844885313,3769605,1606987057508028341,imu_link,-0.0024600231554359198,0.006764260120689869,-0.3643971085548401,0.9312158823013306,0.0,0.0,0.0,0.0,0.0,0.0,0.0,0.0,0.0,-42.74507141113281,0.6190999150276184,-0.5450018644332886,0.0,0.0,0.0,0.0,0.0,0.0,0.0,0.0,0.0,-0.008953056298196316,0.026219943538308144,0.04172858968377113,0.0,0.0,0.0,0.0,0.0,0.0,0.0,0.0,0.0
1606990659855088505,3769606,1606987057508113483,imu_link,-0.0024600231554359198,0.006764260120689869,-0.3643971085548401,0.9312158823013306,0.0,0.0,0.0,0.0,0.0,0.0,0.0,0.0,0.0,-42.74507141113281,0.6190999150276184,-0.5450018644332886,0.0,0.0,0.0,0.0,0.0,0.0,0.0,0.0,0.0,-0.008953056298196316,0.026219943538308144,0.04172858968377113,0.0,0.0,0.0,0.0,0.0,0.0,0.0,0.0,0.0
1606990659855120509,3769607,1606987057508201852,imu_link,-0.002460254356265068,0.006765562109649181,-0.36439815163612366,0.9312154650688171,0.0,0.0,0.0,0.0,0.0,0.0,0.0,0.0,0.0,-42.74520492553711,0.6192286014556885,-0.545081615447998,0.0,0.0,0.0,0.0,0.0,0.0,0.0,0.0,0.0,-0.011299091391265392,-0.007092524319887161,0.04412079602479935,0.0,0.0,0.0,0.0,0.0,0.0,0.0,0.0,0.0
1606990659855134401,3769608,1606987057520041262,imu_link,-0.002460254356265068,0.006765562109649181,-0.36439815163612366,0.9312154650688171,0.0,0.0,0.0,0.0,0.0,0.0,0.0,0.0,0.0,-42.74520492553711,0.6192286014556885,-0.545081615447998,0.0,0.0,0.0,0.0,0.0,0.0,0.0,0.0,0.0,-0.011299091391265392,-0.007092524319887161,0.04412079602479935,0.0,0.0,0.0,0.0,0.0,0.0,0.0,0.0,0.0
1606990659855159015,3769609,1606987057520166587,imu_link,-0.0024584883358329535,0.0067648207768797874,-0.36439260840415955,0.9312176704406738,0.0,0.0,0.0,0.0,0.0,0.0,0.0,0.0,0.0,-42.74451446533203,0.6192265152931213,-0.544858455657959,0.0,0.0,0.0,0.0,0.0,0.0,0.0,0.0,0.0,0.009227470494806767,-0.006806625053286552,0.04534114524722099,0.0,0.0,0.0,0.0,0.0,0.0,0.0,0.0,0.0
1606990659979935626,3769610,1606987057520255042,imu_link,-0.0024584883358329535,0.0067648207768797874,-0.36439260840415955,0.9312176704406738,0.0,0.0,0.0,0.0,0.0,0.0,0.0,0.0,0.0,-42.74451446533203,0.6192265152931213,-0.544858455657959,0.0,0.0,0.0,0.0,0.0,0.0,0.0,0.0,0.0,0.009227470494806767,-0.006806625053286552,0.04534114524722099,0.0,0.0,0.0,0.0,0.0,0.0,0.0,0.0,0.0
1606990659979975755,3769611,1606987057520350718,imu_link,-0.0024591286201030016,0.006765289697796106,-0.3643915355205536,0.9312180876731873,0.0,0.0,0.0,0.0,0.0,0.0,0.0,0.0,0.0,-42.744384765625,0.6192504167556763,-0.5449456572532654,0.0,0.0,0.0,0.0,0.0,0.0,0.0,0.0,0.0,0.010141957551240921,0.00797560065984726,0.0492914542555809,0.0,0.0,0.0,0.0,0.0,0.0,0.0,0.0,0.0
1606990659980023556,3769612,1606987057520435615,imu_link,-0.0024591286201030016,0.006765289697796106,-0.3643915355205536,0.9312180876731873,0.0,0.0,0.0,0.0,0.0,0.0,0.0,0.0,0.0,-42.744384765625,0.6192504167556763,-0.5449456572532654,0.0,0.0,0.0,0.0,0.0,0.0,0.0,0.0,0.0,0.010141957551240921,0.00797560065984726,0.0492914542555809,0.0,0.0,0.0,0.0,0.0,0.0,0.0,0.0,0.0
1606990659980060435,3769613,1606987057520541249,imu_link,-0.002459769370034337,0.006767957471311092,-0.36439916491508484,0.9312150478363037,0.0,0.0,0.0,0.0,0.0,0.0,0.0,0.0,0.0,-42.745330810546875,0.6195038557052612,-0.5451305508613586,0.0,0.0,0.0,0.0,0.0,0.0,0.0,0.0,0.0,0.004814447835087776,0.0015680475626140833,0.049871113151311874,0.0,0.0,0.0,0.0,0.0,0.0,0.0,0.0,0.0
1606990659980088515,3769614,1606987057520624427,imu_link,-0.002459769370034337,0.006767957471311092,-0.36439916491508484,0.9312150478363037,0.0,0.0,0.0,0.0,0.0,0.0,0.0,0.0,0.0,-42.745330810546875,0.6195038557052612,-0.5451305508613586,0.0,0.0,0.0,0.0,0.0,0.0,0.0,0.0,0.0,0.004814447835087776,0.0015680475626140833,0.049871113151311874,0.0,0.0,0.0,0.0,0.0,0.0,0.0,0.0,0.0
1606990659987382239,3769615,1606987057520749561,imu_link,-0.002459545386955142,0.006766613572835922,-0.36440038681030273,0.9312145113945007,0.0,0.0,0.0,0.0,0.0,0.0,0.0,0.0,0.0,-42.745479583740234,0.6193690299987793,-0.5450513958930969,0.0,0.0,0.0,0.0,0.0,0.0,0.0,0.0,0.0,-0.007508652284741402,-0.011657443828880787,0.05887223035097122,0.0,0.0,0.0,0.0,0.0,0.0,0.0,0.0,0.0
1606990659987420021,3769616,1606987057520831546,imu_link,-0.002459545386955142,0.006766613572835922,-0.36440038681030273,0.9312145113945007,0.0,0.0,0.0,0.0,0.0,0.0,0.0,0.0,0.0,-42.745479583740234,0.6193690299987793,-0.5450513958930969,0.0,0.0,0.0,0.0,0.0,0.0,0.0,0.0,0.0,-0.007508652284741402,-0.011657443828880787,0.05887223035097122,0.0,0.0,0.0,0.0,0.0,0.0,0.0,0.0,0.0
1606990659987436218,3769617,1606987057520958530,imu_link,-0.0024588960222899914,0.006765195168554783,-0.3644089102745056,0.9312112331390381,0.0,0.0,0.0,0.0,0.0,0.0,0.0,0.0,0.0,-42.746524810791016,0.619239866733551,-0.5449284911155701,0.0,0.0,0.0,0.0,0.0,0.0,0.0,0.0,0.0,-0.016952678561210632,0.004433369729667902,0.05227353796362877,0.0,0.0,0.0,0.0,0.0,0.0,0.0,0.0,0.0
1606990659987449587,3769618,1606987057533796982,imu_link,-0.0024588960222899914,0.006765195168554783,-0.3644089102745056,0.9312112331390381,0.0,0.0,0.0,0.0,0.0,0.0,0.0,0.0,0.0,-42.746524810791016,0.619239866733551,-0.5449284911155701,0.0,0.0,0.0,0.0,0.0,0.0,0.0,0.0,0.0,-0.016952678561210632,0.004433369729667902,0.05227353796362877,0.0,0.0,0.0,0.0,0.0,0.0,0.0,0.0,0.0
