%time,field.header.seq,field.header.stamp,field.header.frame_id,field.orientation.x,field.orientation.y,field.orientation.z,field.orientation.w,field.orientation_covariance0,field.orientation_covariance1,field.orientation_covariance2,field.orientation_covariance3,field.orientation_covariance4,field.orientation_covariance5,field.orientation_covariance6,field.orientation_covariance7,field.orientation_covariance8,field.angular_velocity.x,field.angular_velocity.y,field.angular_velocity.z,field.angular_velocity_covariance0,field.angular_velocity_covariance1,field.angular_velocity_covariance2,field.angular_velocity_covariance3,field.angular_velocity_covariance4,field.angular_velocity_covariance5,field.angular_velocity_covariance6,field.angular_velocity_covariance7,field.angular_velocity_covariance8,field.linear_acceleration.x,field.linear_acceleration.y,field.linear_acceleration.z,field.linear_acceleration_covariance0,field.linear_acceleration_covariance1,field.linear_acceleration_covariance2,field.linear_acceleration_covariance3,field.linear_acceleration_covariance4,field.linear_acceleration_covariance5,field.linear_acceleration_covariance6,field.linear_acceleration_covariance7,field.linear_acceleration_covariance8
1606989683067805050,2989491,1606986082358674410,imu_link,0.01241422351449728,0.0042946310713887215,0.9306074976921082,0.3657829761505127,0.0,0.0,0.0,0.0,0.0,0.0,0.0,0.0,0.0,137.0747833251953,-1.1439136266708374,0.9785709381103516,0.0,0.0,0.0,0.0,0.0,0.0,0.0,0.0,0.0,0.015413638204336166,-0.015931639820337296,0.0419480986893177,0.0,0.0,0.0,0.0,0.0,0.0,0.0,0.0,0.0
1606989683067820023,2989492,1606986082358986372,imu_link,0.01241422351449728,0.0042946310713887215,0.9306074976921082,0.3657829761505127,0.0,0.0,0.0,0.0,0.0,0.0,0.0,0.0,0.0,137.0747833251953,-1.1439136266708374,0.9785709381103516,0.0,0.0,0.0,0.0,0.0,0.0,0.0,0.0,0.0,0.015413638204336166,-0.015931639820337296,0.0419480986893177,0.0,0.0,0.0,0.0,0.0,0.0,0.0,0.0,0.0
1606989683067837858,2989493,1606986082359074896,imu_link,0.012412415817379951,0.004299590364098549,0.9306102991104126,0.3657757341861725,0.0,0.0,0.0,0.0,0.0,0.0,0.0,0.0,0.0,137.07566833496094,-1.1435203552246094,0.9790152311325073,0.0,0.0,0.0,0.0,0.0,0.0,0.0,0.0,0.0,0.009607480838894844,-0.012921050190925598,0.06064734235405922,0.0,0.0,0.0,0.0,0.0,0.0,0.0,0.0,0.0
1606989683067870007,2989494,1606986082359232030,imu_link,0.012412415817379951,0.004299590364098549,0.9306102991104126,0.3657757341861725,0.0,0.0,0.0,0.0,0.0,0.0,0.0,0.0,0.0,137.07566833496094,-1.1435203552246094,0.9790152311325073,0.0,0.0,0.0,0.0,0.0,0.0,0.0,0.0,0.0,0.009607480838894844,-0.012921050190925598,0.06064734235405922,0.0,0.0,0.0,0.0,0.0,0.0,0.0,0.0,0.0
1606989683076861387,2989495,1606986082359320354,imu_link,0.012411434203386307,0.004302068147808313,0.930609941482544,0.36577680706977844,0.0,0.0,0.0,0.0,0.0,0.0,0.0,0.0,0.0,137.07554626464844,-1.143310785293579,0.9792397022247314,0.0,0.0,0.0,0.0,0.0,0.0,0.0,0.0,0.0,-0.016437256708741188,-0.003883215133100748,0.06612341105937958,0.0,0.0,0.0,0.0,0.0,0.0,0.0,0.0,0.0
1606989683076888639,2989496,1606986082359488098,imu_link,0.012411434203386307,0.004302068147808313,0.930609941482544,0.36577680706977844,0.0,0.0,0.0,0.0,0.0,0.0,0.0,0.0,0.0,137.07554626464844,-1.143310785293579,0.9792397022247314,0.0,0.0,0.0,0.0,0.0,0.0,0.0,0.0,0.0,-0.016437256708741188,-0.003883215133100748,0.06612341105937958,0.0,0.0,0.0,0.0,0.0,0.0,0.0,0.0,0.0
1606989683076899842,2989497,1606986082359572528,imu_link,0.012414922937750816,0.004301076754927635,0.9306118488311768,0.36577171087265015,0.0,0.0,0.0,0.0,0.0,0.0,0.0,0.0,0.0,137.076171875,-1.1437296867370605,0.9792740345001221,0.0,0.0,0.0,0.0,0.0,0.0,0.0,0.0,0.0,-0.020884353667497635,0.010902623645961285,0.06544729322195053,0.0,0.0,0.0,0.0,0.0,0.0,0.0,0.0,0.0
1606989683076907451,2989498,1606986082359656177,imu_link,0.012414922937750816,0.004301076754927635,0.9306118488311768,0.36577171087265015,0.0,0.0,0.0,0.0,0.0,0.0,0.0,0.0,0.0,137.076171875,-1.1437296867370605,0.9792740345001221,0.0,0.0,0.0,0.0,0.0,0.0,0.0,0.0,0.0,-0.020884353667497635,0.010902623645961285,0.06544729322195053,0.0,0.0,0.0,0.0,0.0,0.0,0.0,0.0,0.0
1606989683146666439,2989499,1606986082372232482,imu_link,0.012416155077517033,0.004301060456782579,0.9306128621101379,0.3657691180706024,0.0,0.0,0.0,0.0,0.0,0.0,0.0,0.0,0.0,137.07647705078125,-1.1438645124435425,0.9793208837509155,0.0,0.0,0.0,0.0,0.0,0.0,0.0,0.0,0.0,-0.016327694058418274,0.020116670057177544,0.06810759007930756,0.0,0.0,0.0,0.0,0.0,0.0,0.0,0.0,0.0
1606989683146851332,2989500,1606986082372390518,imu_link,0.012416155077517033,0.004301060456782579,0.9306128621101379,0.3657691180706024,0.0,0.0,0.0,0.0,0.0,0.0,0.0,0.0,0.0,137.07647705078125,-1.1438645124435425,0.9793208837509155,0.0,0.0,0.0,0.0,0.0,0.0,0.0,0.0,0.0,-0.016327694058418274,0.020116670057177544,0.06810759007930756,0.0,0.0,0.0,0.0,0.0,0.0,0.0,0.0,0.0
1606989683146914255,2989501,1606986082372482776,imu_link,0.012416270561516285,0.004294238984584808,0.9306137561798096,0.3657670319080353,0.0,0.0,0.0,0.0,0.0,0.0,0.0,0.0,0.0,137.07675170898438,-1.1441651582717896,0.9785954356193542,0.0,0.0,0.0,0.0,0.0,0.0,0.0,0.0,0.0,-0.013119694776833057,0.019864356145262718,0.06653034687042236,0.0,0.0,0.0,0.0,0.0,0.0,0.0,0.0,0.0
1606989683146933376,2989502,1606986082372577160,imu_link,0.012416270561516285,0.004294238984584808,0.9306137561798096,0.3657670319080353,0.0,0.0,0.0,0.0,0.0,0.0,0.0,0.0,0.0,137.07675170898438,-1.1441651582717896,0.9785954356193542,0.0,0.0,0.0,0.0,0.0,0.0,0.0,0.0,0.0,-0.013119694776833057,0.019864356145262718,0.06653034687042236,0.0,0.0,0.0,0.0,0.0,0.0,0.0,0.0,0.0
1606989683146982985,2989503,1606986082372659866,imu_link,0.012416577897965908,0.004295244812965393,0.9306140542030334,0.3657661974430084,0.0,0.0,0.0,0.0,0.0,0.0,0.0,0.0,0.0,137.07684326171875,-1.144156575202942,0.9787145853042603,0.0,0.0,0.0,0.0,0.0,0.0,0.0,0.0,0.0,0.0038788127712905407,0.013040331192314625,0.06853016465902328,0.0,0.0,0.0,0.0,0.0,0.0,0.0,0.0,0.0
1606989683155073406,2989504,1606986082372767871,imu_link,0.012416577897965908,0.004295244812965393,0.9306140542030334,0.3657661974430084,0.0,0.0,0.0,0.0,0.0,0.0,0.0,0.0,0.0,137.07684326171875,-1.144156575202942,0.9787145853042603,0.0,0.0,0.0,0.0,0.0,0.0,0.0,0.0,0.0,0.0038788127712905407,0.013040331192314625,0.06853016465902328,0.0,0.0,0.0,0.0,0.0,0.0,0.0,0.0,0.0
1606989683155117508,2989505,1606986082372847966,imu_link,0.012417135760188103,0.004295062273740768,0.9306159019470215,0.36576148867607117,0.0,0.0,0.0,0.0,0.0,0.0,0.0,0.0,0.0,137.07742309570312,-1.1442288160324097,0.978712797164917,0.0,0.0,0.0,0.0,0.0,0.0,0.0,0.0,0.0,0.01754782721400261,-0.011451474390923977,0.07205363363027573,0.0,0.0,0.0,0.0,0.0,0.0,0.0,0.0,0.0
1606989683155143296,2989506,1606986082372931926,imu_link,0.012417135760188103,0.004295062273740768,0.9306159019470215,0.36576148867607117,0.0,0.0,0.0,0.0,0.0,0.0,0.0,0.0,0.0,137.07742309570312,-1.1442288160324097,0.978712797164917,0.0,0.0,0.0,0.0,0.0,0.0,0.0,0.0,0.0,0.01754782721400261,-0.011451474390923977,0.07205363363027573,0.0,0.0,0.0,0.0,0.0,0.0,0.0,0.0,0.0
1606989683155164921,2989507,1606986082373013254,imu_link,0.012417538091540337,0.004294199403375387,0.9306159615516663,0.36576128005981445,0.0,0.0,0.0,0.0,0.0,0.0,0.0,0.0,0.0,137.07745361328125,-1.1443079710006714,0.9786374568939209,0.0,0.0,0.0,0.0,0.0,0.0,0.0,0.0,0.0,0.009854510426521301,-0.017236681655049324,0.07503742724657059,0.0,0.0,0.0,0.0,0.0,0.0,0.0,0.0,0.0
1606989683160758948,2989508,1606986082373094251,imu_link,0.012417538091540337,0.004294199403375387,0.9306159615516663,0.36576128005981445,0.0,0.0,0.0,0.0,0.0,0.0,0.0,0.0,0.0,137.07745361328125,-1.1443079710006714,0.9786374568939209,0.0,0.0,0.0,0.0,0.0,0.0,0.0,0.0,0.0,0.009854510426521301,-0.017236681655049324,0.07503742724657059,0.0,0.0,0.0,0.0,0.0,0.0,0.0,0.0,0.0
1606989683160808867,2989509,1606986082373173555,imu_link,0.01241738349199295,0.004296851344406605,0.9306117296218872,0.3657720983028412,0.0,0.0,0.0,0.0,0.0,0.0,0.0,0.0,0.0,137.0761260986328,-1.1441689729690552,0.9789270162582397,0.0,0.0,0.0,0.0,0.0,0.0,0.0,0.0,0.0,0.006730955559760332,-0.005383425857871771,0.07641521096229553,0.0,0.0,0.0,0.0,0.0,0.0,0.0,0.0,0.0
1606989683160829499,2989510,1606986082385146704,imu_link,0.01241738349199295,0.004296851344406605,0.9306117296218872,0.3657720983028412,0.0,0.0,0.0,0.0,0.0,0.0,0.0,0.0,0.0,137.0761260986328,-1.1441689729690552,0.9789270162582397,0.0,0.0,0.0,0.0,0.0,0.0,0.0,0.0,0.0,0.006730955559760332,-0.005383425857871771,0.07641521096229553,0.0,0.0,0.0,0.0,0.0,0.0,0.0,0.0,0.0
1606989683160854019,2989511,1606986082385287139,imu_link,0.012418394908308983,0.00429769279435277,0.9306122660636902,0.36577072739601135,0.0,0.0,0.0,0.0,0.0,0.0,0.0,0.0,0.0,137.0762939453125,-1.1442431211471558,0.9790574312210083,0.0,0.0,0.0,0.0,0.0,0.0,0.0,0.0,0.0,0.00937942136079073,0.0051473211497068405,0.08523585647344589,0.0,0.0,0.0,0.0,0.0,0.0,0.0,0.0,0.0
1606989683160895898,2989512,1606986082385433278,imu_link,0.012418394908308983,0.00429769279435277,0.9306122660636902,0.36577072739601135,0.0,0.0,0.0,0.0,0.0,0.0,0.0,0.0,0.0,137.0762939453125,-1.1442431211471558,0.9790574312210083,0.0,0.0,0.0,0.0,0.0,0.0,0.0,0.0,0.0,0.00937942136079073,0.0051473211497068405,0.08523585647344589,0.0,0.0,0.0,0.0,0.0,0.0,0.0,0.0,0.0
1606989683169986154,2989513,1606986082385536918,imu_link,0.012416897341609001,0.00429740222170949,0.9306095242500305,0.36577779054641724,0.0,0.0,0.0,0.0,0.0,0.0,0.0,0.0,0.0,137.07540893554688,-1.1440880298614502,0.9789724349975586,0.0,0.0,0.0,0.0,0.0,0.0,0.0,0.0,0.0,0.007217036094516516,0.010034848004579544,0.07422928512096405,0.0,0.0,0.0,0.0,0.0,0.0,0.0,0.0,0.0
1606989683170018429,2989514,1606986082385625367,imu_link,0.012416897341609001,0.00429740222170949,0.9306095242500305,0.36577779054641724,0.0,0.0,0.0,0.0,0.0,0.0,0.0,0.0,0.0,137.07540893554688,-1.1440880298614502,0.9789724349975586,0.0,0.0,0.0,0.0,0.0,0.0,0.0,0.0,0.0,0.007217036094516516,0.010034848004579544,0.07422928512096405,0.0,0.0,0.0,0.0,0.0,0.0,0.0,0.0,0.0
1606989683170056433,2989515,1606986082385725780,imu_link,0.012417959049344063,0.004297290928661823,0.9306098222732544,0.36577707529067993,0.0,0.0,0.0,0.0,0.0,0.0,0.0,0.0,0.0,137.0755157470703,-1.1442066431045532,0.9790041446685791,0.0,0.0,0.0,0.0,0.0,0.0,0.0,0.0,0.0,-0.0007152201142162085,-0.0023289560340344906,0.06300021708011627,0.0,0.0,0.0,0.0,0.0,0.0,0.0,0.0,0.0
1606989683170101769,2989516,1606986082385807674,imu_link,0.012417959049344063,0.004297290928661823,0.9306098222732544,0.36577707529067993,0.0,0.0,0.0,0.0,0.0,0.0,0.0,0.0,0.0,137.0755157470703,-1.1442066431045532,0.9790041446685791,0.0,0.0,0.0,0.0,0.0,0.0,0.0,0.0,0.0,-0.0007152201142162085,-0.0023289560340344906,0.06300021708011627,0.0,0.0,0.0,0.0,0.0,0.0,0.0,0.0,0.0
1606989683205172568,2989517,1606986082385888992,imu_link,0.012419445440173149,0.004298614803701639,0.930610179901123,0.3657759428024292,0.0,0.0,0.0,0.0,0.0,0.0,0.0,0.0,0.0,137.0756378173828,-1.1443108320236206,0.9792065024375916,0.0,0.0,0.0,0.0,0.0,0.0,0.0,0.0,0.0,-0.0013763448223471642,-0.017402272671461105,0.0735161155462265,0.0,0.0,0.0,0.0,0.0,0.0,0.0,0.0,0.0
1606989683205244731,2989518,1606986082385965003,imu_link,0.012419445440173149,0.004298614803701639,0.930610179901123,0.3657759428024292,0.0,0.0,0.0,0.0,0.0,0.0,0.0,0.0,0.0,137.0756378173828,-1.1443108320236206,0.9792065024375916,0.0,0.0,0.0,0.0,0.0,0.0,0.0,0.0,0.0,-0.0013763448223471642,-0.017402272671461105,0.0735161155462265,0.0,0.0,0.0,0.0,0.0,0.0,0.0,0.0,0.0
1606989683205267223,2989519,1606986082386044683,imu_link,0.012418428435921669,0.004297759849578142,0.9306102395057678,0.3657757341861725,0.0,0.0,0.0,0.0,0.0,0.0,0.0,0.0,0.0,137.07565307617188,-1.1442383527755737,0.9790723323822021,0.0,0.0,0.0,0.0,0.0,0.0,0.0,0.0,0.0,0.0013162908144295216,-0.002031157026067376,0.0730917900800705,0.0,0.0,0.0,0.0,0.0,0.0,0.0,0.0,0.0
1606989683205308832,2989520,1606986082399044298,imu_link,0.012418428435921669,0.004297759849578142,0.9306102395057678,0.3657757341861725,0.0,0.0,0.0,0.0,0.0,0.0,0.0,0.0,0.0,137.07565307617188,-1.1442383527755737,0.9790723323822021,0.0,0.0,0.0,0.0,0.0,0.0,0.0,0.0,0.0,0.0013162908144295216,-0.002031157026067376,0.0730917900800705,0.0,0.0,0.0,0.0,0.0,0.0,0.0,0.0,0.0
1606989683205322242,2989521,1606986082399189744,imu_link,0.012418868020176888,0.004299643449485302,0.9306113123893738,0.36577293276786804,0.0,0.0,0.0,0.0,0.0,0.0,0.0,0.0,0.0,137.0760040283203,-1.144209384918213,0.9792882204055786,0.0,0.0,0.0,0.0,0.0,0.0,0.0,0.0,0.0,-0.007105411496013403,0.01398704294115305,0.0816170871257782,0.0,0.0,0.0,0.0,0.0,0.0,0.0,0.0,0.0
1606989683210660373,2989522,1606986082399344096,imu_link,0.012418868020176888,0.004299643449485302,0.9306113123893738,0.36577293276786804,0.0,0.0,0.0,0.0,0.0,0.0,0.0,0.0,0.0,137.0760040283203,-1.144209384918213,0.9792882204055786,0.0,0.0,0.0,0.0,0.0,0.0,0.0,0.0,0.0,-0.007105411496013403,0.01398704294115305,0.0816170871257782,0.0,0.0,0.0,0.0,0.0,0.0,0.0,0.0,0.0
1606989683210746690,2989523,1606986082399437032,imu_link,0.012418337166309357,0.00429893471300602,0.9306121468544006,0.3657709062099457,0.0,0.0,0.0,0.0,0.0,0.0,0.0,0.0,0.0,137.07626342773438,-1.1441844701766968,0.9791879057884216,0.0,0.0,0.0,0.0,0.0,0.0,0.0,0.0,0.0,-0.02003861404955387,0.010055954568088055,0.06474578380584717,0.0,0.0,0.0,0.0,0.0,0.0,0.0,0.0,0.0
1606989683210792471,2989524,1606986082399515433,imu_link,0.012418337166309357,0.00429893471300602,0.9306121468544006,0.3657709062099457,0.0,0.0,0.0,0.0,0.0,0.0,0.0,0.0,0.0,137.07626342773438,-1.1441844701766968,0.9791879057884216,0.0,0.0,0.0,0.0,0.0,0.0,0.0,0.0,0.0,-0.02003861404955387,0.010055954568088055,0.06474578380584717,0.0,0.0,0.0,0.0,0.0,0.0,0.0,0.0,0.0
1606989683210809769,2989525,1606986082399595163,imu_link,0.012419689446687698,0.004294877406209707,0.9306141138076782,0.36576589941978455,0.0,0.0,0.0,0.0,0.0,0.0,0.0,0.0,0.0,137.07687377929688,-1.1445040702819824,0.9788057804107666,0.0,0.0,0.0,0.0,0.0,0.0,0.0,0.0,0.0,-0.021520566195249557,-0.006314781494438648,0.05143018066883087,0.0,0.0,0.0,0.0,0.0,0.0,0.0,0.0,0.0
1606989683269410628,2989526,1606986082399694272,imu_link,0.012419689446687698,0.004294877406209707,0.9306141138076782,0.36576589941978455,0.0,0.0,0.0,0.0,0.0,0.0,0.0,0.0,0.0,137.07687377929688,-1.1445040702819824,0.9788057804107666,0.0,0.0,0.0,0.0,0.0,0.0,0.0,0.0,0.0,-0.021520566195249557,-0.006314781494438648,0.05143018066883087,0.0,0.0,0.0,0.0,0.0,0.0,0.0,0.0,0.0
1606989683269441022,2989527,1606986082399776572,imu_link,0.012420514598488808,0.004296485800296068,0.9306138753890991,0.3657664656639099,0.0,0.0,0.0,0.0,0.0,0.0,0.0,0.0,0.0,137.07681274414062,-1.1445239782333374,0.9790126085281372,0.0,0.0,0.0,0.0,0.0,0.0,0.0,0.0,0.0,-0.023971788585186005,-0.01596079394221306,0.042315781116485596,0.0,0.0,0.0,0.0,0.0,0.0,0.0,0.0,0.0
1606989683269451144,2989528,1606986082399935169,imu_link,0.012420514598488808,0.004296485800296068,0.9306138753890991,0.3657664656639099,0.0,0.0,0.0,0.0,0.0,0.0,0.0,0.0,0.0,137.07681274414062,-1.1445239782333374,0.9790126085281372,0.0,0.0,0.0,0.0,0.0,0.0,0.0,0.0,0.0,-0.023971788585186005,-0.01596079394221306,0.042315781116485596,0.0,0.0,0.0,0.0,0.0,0.0,0.0,0.0,0.0
1606989683269459955,2989529,1606986082400018302,imu_link,0.012423688545823097,0.004299279302358627,0.9306157231330872,0.3657616078853607,0.0,0.0,0.0,0.0,0.0,0.0,0.0,0.0,0.0,137.077392578125,-1.1447504758834839,0.9794377684593201,0.0,0.0,0.0,0.0,0.0,0.0,0.0,0.0,0.0,-0.009090464562177658,-0.0012129758251830935,0.02478042058646679,0.0,0.0,0.0,0.0,0.0,0.0,0.0,0.0,0.0
1606989683269483071,2989530,1606986082400094979,imu_link,0.012423688545823097,0.004299279302358627,0.9306157231330872,0.3657616078853607,0.0,0.0,0.0,0.0,0.0,0.0,0.0,0.0,0.0,137.077392578125,-1.1447504758834839,0.9794377684593201,0.0,0.0,0.0,0.0,0.0,0.0,0.0,0.0,0.0,-0.009090464562177658,-0.0012129758251830935,0.02478042058646679,0.0,0.0,0.0,0.0,0.0,0.0,0.0,0.0,0.0
1606989683275107114,2989531,1606986082412390650,imu_link,0.01242390088737011,0.0043016099371016026,0.9306161999702454,0.36576035618782043,0.0,0.0,0.0,0.0,0.0,0.0,0.0,0.0,0.0,137.07754516601562,-1.144676685333252,0.9796937704086304,0.0,0.0,0.0,0.0,0.0,0.0,0.0,0.0,0.0,0.004288599826395512,-0.0012884484604001045,0.04376518726348877,0.0,0.0,0.0,0.0,0.0,0.0,0.0,0.0,0.0
1606989683275147427,2989532,1606986082412530544,imu_link,0.01242390088737011,0.0043016099371016026,0.9306161999702454,0.36576035618782043,0.0,0.0,0.0,0.0,0.0,0.0,0.0,0.0,0.0,137.07754516601562,-1.144676685333252,0.9796937704086304,0.0,0.0,0.0,0.0,0.0,0.0,0.0,0.0,0.0,0.004288599826395512,-0.0012884484604001045,0.04376518726348877,0.0,0.0,0.0,0.0,0.0,0.0,0.0,0.0,0.0
1606989683275160105,2989533,1606986082412675154,imu_link,0.01242463756352663,0.004301803186535835,0.93061763048172,0.3657568097114563,0.0,0.0,0.0,0.0,0.0,0.0,0.0,0.0,0.0,137.07798767089844,-1.1447510719299316,0.9797407388687134,0.0,0.0,0.0,0.0,0.0,0.0,0.0,0.0,0.0,0.01538948342204094,0.009936568327248096,0.07746560871601105,0.0,0.0,0.0,0.0,0.0,0.0,0.0,0.0,0.0
1606989683275169826,2989534,1606986082412774042,imu_link,0.01242463756352663,0.004301803186535835,0.93061763048172,0.3657568097114563,0.0,0.0,0.0,0.0,0.0,0.0,0.0,0.0,0.0,137.07798767089844,-1.1447510719299316,0.9797407388687134,0.0,0.0,0.0,0.0,0.0,0.0,0.0,0.0,0.0,0.01538948342204094,0.009936568327248096,0.07746560871601105,0.0,0.0,0.0,0.0,0.0,0.0,0.0,0.0,0.0
1606989683284659395,2989535,1606986082412860472,imu_link,0.012425199151039124,0.004304014146327972,0.9306182861328125,0.3657551407814026,0.0,0.0,0.0,0.0,0.0,0.0,0.0,0.0,0.0,137.07818603515625,-1.1447199583053589,0.9799980521202087,0.0,0.0,0.0,0.0,0.0,0.0,0.0,0.0,0.0,0.012104367837309837,0.0218510739505291,0.0765003114938736,0.0,0.0,0.0,0.0,0.0,0.0,0.0,0.0,0.0
1606989683284683726,2989536,1606986082412940989,imu_link,0.012425199151039124,0.004304014146327972,0.9306182861328125,0.3657551407814026,0.0,0.0,0.0,0.0,0.0,0.0,0.0,0.0,0.0,137.07818603515625,-1.1447199583053589,0.9799980521202087,0.0,0.0,0.0,0.0,0.0,0.0,0.0,0.0,0.0,0.012104367837309837,0.0218510739505291,0.0765003114938736,0.0,0.0,0.0,0.0,0.0,0.0,0.0,0.0,0.0
1606989683284694977,2989537,1606986082413045080,imu_link,0.012422372587025166,0.004299459047615528,0.9306197166442871,0.36575162410736084,0.0,0.0,0.0,0.0,0.0,0.0,0.0,0.0,0.0,137.07862854003906,-1.1446131467819214,0.9793894290924072,0.0,0.0,0.0,0.0,0.0,0.0,0.0,0.0,0.0,0.007885444909334183,-0.0014143702574074268,0.0620218850672245,0.0,0.0,0.0,0.0,0.0,0.0,0.0,0.0,0.0
1606989683284709621,2989538,1606986082413126764,imu_link,0.012422372587025166,0.004299459047615528,0.9306197166442871,0.36575162410736084,0.0,0.0,0.0,0.0,0.0,0.0,0.0,0.0,0.0,137.07862854003906,-1.1446131467819214,0.9793894290924072,0.0,0.0,0.0,0.0,0.0,0.0,0.0,0.0,0.0,0.007885444909334183,-0.0014143702574074268,0.0620218850672245,0.0,0.0,0.0,0.0,0.0,0.0,0.0,0.0,0.0
1606989683284722250,2989539,1606986082413212121,imu_link,0.012422328814864159,0.004299089778214693,0.9306198954582214,0.3657512068748474,0.0,0.0,0.0,0.0,0.0,0.0,0.0,0.0,0.0,137.07867431640625,-1.1446243524551392,0.9793475866317749,0.0,0.0,0.0,0.0,0.0,0.0,0.0,0.0,0.0,0.025693684816360474,-0.016680611297488213,0.06022122502326965,0.0,0.0,0.0,0.0,0.0,0.0,0.0,0.0,0.0
1606989683296279154,2989540,1606986082413292312,imu_link,0.012422328814864159,0.004299089778214693,0.9306198954582214,0.3657512068748474,0.0,0.0,0.0,0.0,0.0,0.0,0.0,0.0,0.0,137.07867431640625,-1.1446243524551392,0.9793475866317749,0.0,0.0,0.0,0.0,0.0,0.0,0.0,0.0,0.0,0.025693684816360474,-0.016680611297488213,0.06022122502326965,0.0,0.0,0.0,0.0,0.0,0.0,0.0,0.0,0.0
1606989683296303620,2989541,1606986082413378416,imu_link,0.012421480379998684,0.004304617643356323,0.9306197762489319,0.3657515048980713,0.0,0.0,0.0,0.0,0.0,0.0,0.0,0.0,0.0,137.07864379882812,-1.1443020105361938,0.979901909828186,0.0,0.0,0.0,0.0,0.0,0.0,0.0,0.0,0.0,0.016240540891885757,0.009280819445848465,0.0662398710846901,0.0,0.0,0.0,0.0,0.0,0.0,0.0,0.0,0.0
1606989683296322805,2989542,1606986082426285798,imu_link,0.012421480379998684,0.004304617643356323,0.9306197762489319,0.3657515048980713,0.0,0.0,0.0,0.0,0.0,0.0,0.0,0.0,0.0,137.07864379882812,-1.1443020105361938,0.979901909828186,0.0,0.0,0.0,0.0,0.0,0.0,0.0,0.0,0.0,0.016240540891885757,0.009280819445848465,0.0662398710846901,0.0,0.0,0.0,0.0,0.0,0.0,0.0,0.0,0.0
1606989683296340177,2989543,1606986082426427526,imu_link,0.012421180494129658,0.004304937552660704,0.9306212067604065,0.36574772000312805,0.0,0.0,0.0,0.0,0.0,0.0,0.0,0.0,0.0,137.0791015625,-1.1442604064941406,0.9799188375473022,0.0,0.0,0.0,0.0,0.0,0.0,0.0,0.0,0.0,0.008685032837092876,0.02521348185837269,0.06292236596345901,0.0,0.0,0.0,0.0,0.0,0.0,0.0,0.0,0.0
1606989683302335390,2989544,1606986082426558158,imu_link,0.012421180494129658,0.004304937552660704,0.9306212067604065,0.36574772000312805,0.0,0.0,0.0,0.0,0.0,0.0,0.0,0.0,0.0,137.0791015625,-1.1442604064941406,0.9799188375473022,0.0,0.0,0.0,0.0,0.0,0.0,0.0,0.0,0.0,0.008685032837092876,0.02521348185837269,0.06292236596345901,0.0,0.0,0.0,0.0,0.0,0.0,0.0,0.0,0.0
1606989683302372733,2989545,1606986082426646648,imu_link,0.012419098056852818,0.004299766384065151,0.930621325969696,0.3657476603984833,0.0,0.0,0.0,0.0,0.0,0.0,0.0,0.0,0.0,137.07911682128906,-1.14425528049469,0.9792799353599548,0.0,0.0,0.0,0.0,0.0,0.0,0.0,0.0,0.0,0.01695173606276512,0.015406673774123192,0.04144001007080078,0.0,0.0,0.0,0.0,0.0,0.0,0.0,0.0,0.0
1606989683302385262,2989546,1606986082426729625,imu_link,0.012419098056852818,0.004299766384065151,0.930621325969696,0.3657476603984833,0.0,0.0,0.0,0.0,0.0,0.0,0.0,0.0,0.0,137.07911682128906,-1.14425528049469,0.9792799353599548,0.0,0.0,0.0,0.0,0.0,0.0,0.0,0.0,0.0,0.01695173606276512,0.015406673774123192,0.04144001007080078,0.0,0.0,0.0,0.0,0.0,0.0,0.0,0.0,0.0
1606989683302396415,2989547,1606986082426816922,imu_link,0.012419319711625576,0.004298982676118612,0.930621325969696,0.3657476603984833,0.0,0.0,0.0,0.0,0.0,0.0,0.0,0.0,0.0,137.07913208007812,-1.144311785697937,0.9792056679725647,0.0,0.0,0.0,0.0,0.0,0.0,0.0,0.0,0.0,0.011497308500111103,0.02089059352874756,0.036266423761844635,0.0,0.0,0.0,0.0,0.0,0.0,0.0,0.0,0.0
1606989683302406860,2989548,1606986082426919053,imu_link,0.012419319711625576,0.004298982676118612,0.930621325969696,0.3657476603984833,0.0,0.0,0.0,0.0,0.0,0.0,0.0,0.0,0.0,137.07913208007812,-1.144311785697937,0.9792056679725647,0.0,0.0,0.0,0.0,0.0,0.0,0.0,0.0,0.0,0.011497308500111103,0.02089059352874756,0.036266423761844635,0.0,0.0,0.0,0.0,0.0,0.0,0.0,0.0,0.0
1606989683384227215,2989549,1606986082427029774,imu_link,0.012417474761605263,0.0042954133823513985,0.9306219220161438,0.36574605107307434,0.0,0.0,0.0,0.0,0.0,0.0,0.0,0.0,0.0,137.07931518554688,-1.1442663669586182,0.978745698928833,0.0,0.0,0.0,0.0,0.0,0.0,0.0,0.0,0.0,0.009119920432567596,0.0191188957542181,0.05193944647908211,0.0,0.0,0.0,0.0,0.0,0.0,0.0,0.0,0.0
1606989683384252546,2989550,1606986082427112566,imu_link,0.012417474761605263,0.0042954133823513985,0.9306219220161438,0.36574605107307434,0.0,0.0,0.0,0.0,0.0,0.0,0.0,0.0,0.0,137.07931518554688,-1.1442663669586182,0.978745698928833,0.0,0.0,0.0,0.0,0.0,0.0,0.0,0.0,0.0,0.009119920432567596,0.0191188957542181,0.05193944647908211,0.0,0.0,0.0,0.0,0.0,0.0,0.0,0.0,0.0
1606989683384262449,2989551,1606986082427199006,imu_link,0.012416157871484756,0.004297936800867319,0.9306224584579468,0.3657448887825012,0.0,0.0,0.0,0.0,0.0,0.0,0.0,0.0,0.0,137.0794677734375,-1.1440212726593018,0.9789578318595886,0.0,0.0,0.0,0.0,0.0,0.0,0.0,0.0,0.0,0.0023122718557715416,0.0008966798195615411,0.0652877613902092,0.0,0.0,0.0,0.0,0.0,0.0,0.0,0.0,0.0
1606989683384271358,2989552,1606986082427281096,imu_link,0.012416157871484756,0.004297936800867319,0.9306224584579468,0.3657448887825012,0.0,0.0,0.0,0.0,0.0,0.0,0.0,0.0,0.0,137.0794677734375,-1.1440212726593018,0.9789578318595886,0.0,0.0,0.0,0.0,0.0,0.0,0.0,0.0,0.0,0.0023122718557715416,0.0008966798195615411,0.0652877613902092,0.0,0.0,0.0,0.0,0.0,0.0,0.0,0.0,0.0
1606989683390905086,2989553,1606986082439765001,imu_link,0.012416023761034012,0.004298045299947262,0.930622935295105,0.3657437264919281,0.0,0.0,0.0,0.0,0.0,0.0,0.0,0.0,0.0,137.07962036132812,-1.1440036296844482,0.9789624214172363,0.0,0.0,0.0,0.0,0.0,0.0,0.0,0.0,0.0,-0.02065419591963291,-0.010613934136927128,0.06875745207071304,0.0,0.0,0.0,0.0,0.0,0.0,0.0,0.0,0.0
1606989683390921203,2989554,1606986082439890483,imu_link,0.012416023761034012,0.004298045299947262,0.930622935295105,0.3657437264919281,0.0,0.0,0.0,0.0,0.0,0.0,0.0,0.0,0.0,137.07962036132812,-1.1440036296844482,0.9789624214172363,0.0,0.0,0.0,0.0,0.0,0.0,0.0,0.0,0.0,-0.02065419591963291,-0.010613934136927128,0.06875745207071304,0.0,0.0,0.0,0.0,0.0,0.0,0.0,0.0,0.0
1606989683390926827,2989555,1606986082440020806,imu_link,0.012415074743330479,0.004296933766454458,0.930623471736908,0.3657423257827759,0.0,0.0,0.0,0.0,0.0,0.0,0.0,0.0,0.0,137.0797882080078,-1.1439505815505981,0.9788024425506592,0.0,0.0,0.0,0.0,0.0,0.0,0.0,0.0,0.0,-0.006295906845480204,-0.001955083105713129,0.07181817293167114,0.0,0.0,0.0,0.0,0.0,0.0,0.0,0.0,0.0
1606989683390931417,2989556,1606986082440111572,imu_link,0.012415074743330479,0.004296933766454458,0.930623471736908,0.3657423257827759,0.0,0.0,0.0,0.0,0.0,0.0,0.0,0.0,0.0,137.0797882080078,-1.1439505815505981,0.9788024425506592,0.0,0.0,0.0,0.0,0.0,0.0,0.0,0.0,0.0,-0.006295906845480204,-0.001955083105713129,0.07181817293167114,0.0,0.0,0.0,0.0,0.0,0.0,0.0,0.0,0.0
1606989683390936676,2989557,1606986082440188733,imu_link,0.012418337166309357,0.0042967600747942924,0.9306240677833557,0.36574074625968933,0.0,0.0,0.0,0.0,0.0,0.0,0.0,0.0,0.0,137.07997131347656,-1.1443074941635132,0.9789187908172607,0.0,0.0,0.0,0.0,0.0,0.0,0.0,0.0,0.0,0.013812771067023277,-0.0008584066526964307,0.07420159131288528,0.0,0.0,0.0,0.0,0.0,0.0,0.0,0.0,0.0
1606989683399245385,2989558,1606986082440278407,imu_link,0.012418337166309357,0.0042967600747942924,0.9306240677833557,0.36574074625968933,0.0,0.0,0.0,0.0,0.0,0.0,0.0,0.0,0.0,137.07997131347656,-1.1443074941635132,0.9789187908172607,0.0,0.0,0.0,0.0,0.0,0.0,0.0,0.0,0.0,0.013812771067023277,-0.0008584066526964307,0.07420159131288528,0.0,0.0,0.0,0.0,0.0,0.0,0.0,0.0,0.0
1606989683399261376,2989559,1606986082440352061,imu_link,0.012418698519468307,0.004295262973755598,0.9306238293647766,0.36574116349220276,0.0,0.0,0.0,0.0,0.0,0.0,0.0,0.0,0.0,137.07992553710938,-1.1444082260131836,0.9787750244140625,0.0,0.0,0.0,0.0,0.0,0.0,0.0,0.0,0.0,0.0008914405480027199,-0.006690132897347212,0.05780322104692459,0.0,0.0,0.0,0.0,0.0,0.0,0.0,0.0,0.0
1606989683399270808,2989560,1606986082440500044,imu_link,0.012418698519468307,0.004295262973755598,0.9306238293647766,0.36574116349220276,0.0,0.0,0.0,0.0,0.0,0.0,0.0,0.0,0.0,137.07992553710938,-1.1444082260131836,0.9787750244140625,0.0,0.0,0.0,0.0,0.0,0.0,0.0,0.0,0.0,0.0008914405480027199,-0.006690132897347212,0.05780322104692459,0.0,0.0,0.0,0.0,0.0,0.0,0.0,0.0,0.0
1606989683399277248,2989561,1606986082440574234,imu_link,0.012418108992278576,0.004297799430787563,0.9306237101554871,0.365741491317749,0.0,0.0,0.0,0.0,0.0,0.0,0.0,0.0,0.0,137.0798797607422,-1.1442387104034424,0.9790210127830505,0.0,0.0,0.0,0.0,0.0,0.0,0.0,0.0,0.0,-0.0017521143890917301,-0.002102079102769494,0.047962870448827744,0.0,0.0,0.0,0.0,0.0,0.0,0.0,0.0,0.0
1606989683408475223,2989562,1606986082440644378,imu_link,0.012418108992278576,0.004297799430787563,0.9306237101554871,0.365741491317749,0.0,0.0,0.0,0.0,0.0,0.0,0.0,0.0,0.0,137.0798797607422,-1.1442387104034424,0.9790210127830505,0.0,0.0,0.0,0.0,0.0,0.0,0.0,0.0,0.0,-0.0017521143890917301,-0.002102079102769494,0.047962870448827744,0.0,0.0,0.0,0.0,0.0,0.0,0.0,0.0,0.0
1606989683408503944,2989563,1606986082440714880,imu_link,0.012418949045240879,0.004299375228583813,0.9306238293647766,0.3657412827014923,0.0,0.0,0.0,0.0,0.0,0.0,0.0,0.0,0.0,137.0799102783203,-1.144262433052063,0.9792240858078003,0.0,0.0,0.0,0.0,0.0,0.0,0.0,0.0,0.0,0.009552406147122383,0.005128391087055206,0.08026139438152313,0.0,0.0,0.0,0.0,0.0,0.0,0.0,0.0,0.0
1606989683408521412,2989564,1606986082452725728,imu_link,0.012418949045240879,0.004299375228583813,0.9306238293647766,0.3657412827014923,0.0,0.0,0.0,0.0,0.0,0.0,0.0,0.0,0.0,137.0799102783203,-1.144262433052063,0.9792240858078003,0.0,0.0,0.0,0.0,0.0,0.0,0.0,0.0,0.0,0.009552406147122383,0.005128391087055206,0.08026139438152313,0.0,0.0,0.0,0.0,0.0,0.0,0.0,0.0,0.0
1606989683408534768,2989565,1606986082452863963,imu_link,0.012419721111655235,0.004298042505979538,0.9306209087371826,0.36574870347976685,0.0,0.0,0.0,0.0,0.0,0.0,0.0,0.0,0.0,137.07899475097656,-1.1443928480148315,0.979123592376709,0.0,0.0,0.0,0.0,0.0,0.0,0.0,0.0,0.0,0.001659694593399763,-0.001459712628275156,0.07323639839887619,0.0,0.0,0.0,0.0,0.0,0.0,0.0,0.0,0.0
1606989683433352473,2989566,1606986082453020986,imu_link,0.012419721111655235,0.004298042505979538,0.9306209087371826,0.36574870347976685,0.0,0.0,0.0,0.0,0.0,0.0,0.0,0.0,0.0,137.07899475097656,-1.1443928480148315,0.979123592376709,0.0,0.0,0.0,0.0,0.0,0.0,0.0,0.0,0.0,0.001659694593399763,-0.001459712628275156,0.07323639839887619,0.0,0.0,0.0,0.0,0.0,0.0,0.0,0.0,0.0
1606989683433385676,2989567,1606986082453119599,imu_link,0.012418562546372414,0.00429685739800334,0.9306210279464722,0.36574846506118774,0.0,0.0,0.0,0.0,0.0,0.0,0.0,0.0,0.0,137.0790252685547,-1.1443194150924683,0.9789479970932007,0.0,0.0,0.0,0.0,0.0,0.0,0.0,0.0,0.0,-0.021559007465839386,-0.005561087280511856,0.046046022325754166,0.0,0.0,0.0,0.0,0.0,0.0,0.0,0.0,0.0
1606989683433394748,2989568,1606986082453214183,imu_link,0.012418562546372414,0.00429685739800334,0.9306210279464722,0.36574846506118774,0.0,0.0,0.0,0.0,0.0,0.0,0.0,0.0,0.0,137.0790252685547,-1.1443194150924683,0.9789479970932007,0.0,0.0,0.0,0.0,0.0,0.0,0.0,0.0,0.0,-0.021559007465839386,-0.005561087280511856,0.046046022325754166,0.0,0.0,0.0,0.0,0.0,0.0,0.0,0.0,0.0
1606989683433403931,2989569,1606986082453318655,imu_link,0.012423394247889519,0.0042959293350577354,0.9306175112724304,0.36575716733932495,0.0,0.0,0.0,0.0,0.0,0.0,0.0,0.0,0.0,137.07794189453125,-1.1448643207550049,0.9790627360343933,0.0,0.0,0.0,0.0,0.0,0.0,0.0,0.0,0.0,-0.01922653242945671,0.011029872111976147,0.04789694398641586,0.0,0.0,0.0,0.0,0.0,0.0,0.0,0.0,0.0
1606989683433457486,2989570,1606986082453402664,imu_link,0.012423394247889519,0.0042959293350577354,0.9306175112724304,0.36575716733932495,0.0,0.0,0.0,0.0,0.0,0.0,0.0,0.0,0.0,137.07794189453125,-1.1448643207550049,0.9790627360343933,0.0,0.0,0.0,0.0,0.0,0.0,0.0,0.0,0.0,-0.01922653242945671,0.011029872111976147,0.04789694398641586,0.0,0.0,0.0,0.0,0.0,0.0,0.0,0.0,0.0
1606989683474996752,2989571,1606986082453484664,imu_link,0.01242410484701395,0.004294050857424736,0.9306172132492065,0.36575788259506226,0.0,0.0,0.0,0.0,0.0,0.0,0.0,0.0,0.0,137.07786560058594,-1.1450179815292358,0.9788929224014282,0.0,0.0,0.0,0.0,0.0,0.0,0.0,0.0,0.0,-0.002654269803315401,0.029439536854624748,0.03621622920036316,0.0,0.0,0.0,0.0,0.0,0.0,0.0,0.0,0.0
1606989683475019527,2989572,1606986082453563336,imu_link,0.01242410484701395,0.004294050857424736,0.9306172132492065,0.36575788259506226,0.0,0.0,0.0,0.0,0.0,0.0,0.0,0.0,0.0,137.07786560058594,-1.1450179815292358,0.9788929224014282,0.0,0.0,0.0,0.0,0.0,0.0,0.0,0.0,0.0,-0.002654269803315401,0.029439536854624748,0.03621622920036316,0.0,0.0,0.0,0.0,0.0,0.0,0.0,0.0,0.0
1606989683475028403,2989573,1606986082453643918,imu_link,0.012422402389347553,0.004288434516638517,0.930617094039917,0.36575832962989807,0.0,0.0,0.0,0.0,0.0,0.0,0.0,0.0,0.0,137.0778045654297,-1.1450713872909546,0.9782229661941528,0.0,0.0,0.0,0.0,0.0,0.0,0.0,0.0,0.0,-0.01287468709051609,0.03314841911196709,0.04414031654596329,0.0,0.0,0.0,0.0,0.0,0.0,0.0,0.0,0.0
1606989683475035342,2989574,1606986082466388613,imu_link,0.012422402389347553,0.004288434516638517,0.930617094039917,0.36575832962989807,0.0,0.0,0.0,0.0,0.0,0.0,0.0,0.0,0.0,137.0778045654297,-1.1450713872909546,0.9782229661941528,0.0,0.0,0.0,0.0,0.0,0.0,0.0,0.0,0.0,-0.01287468709051609,0.03314841911196709,0.04414031654596329,0.0,0.0,0.0,0.0,0.0,0.0,0.0,0.0,0.0
1606989683482312741,2989575,1606986082466533809,imu_link,0.012422402389347553,0.004288434516638517,0.930617094039917,0.36575832962989807,0.0,0.0,0.0,0.0,0.0,0.0,0.0,0.0,0.0,137.0778045654297,-1.1450713872909546,0.9782229661941528,0.0,0.0,0.0,0.0,0.0,0.0,0.0,0.0,0.0,-0.01885957270860672,0.02076113410294056,0.07502726465463638,0.0,0.0,0.0,0.0,0.0,0.0,0.0,0.0,0.0
1606989683482334010,2989576,1606986082466678764,imu_link,0.012422402389347553,0.004288434516638517,0.930617094039917,0.36575832962989807,0.0,0.0,0.0,0.0,0.0,0.0,0.0,0.0,0.0,137.0778045654297,-1.1450713872909546,0.9782229661941528,0.0,0.0,0.0,0.0,0.0,0.0,0.0,0.0,0.0,-0.01885957270860672,0.02076113410294056,0.07502726465463638,0.0,0.0,0.0,0.0,0.0,0.0,0.0,0.0,0.0
1606989683482342033,2989577,1606986082466779728,imu_link,0.012423386797308922,0.004283989779651165,0.9306167364120483,0.36575934290885925,0.0,0.0,0.0,0.0,0.0,0.0,0.0,0.0,0.0,137.0776824951172,-1.1453617811203003,0.9777914881706238,0.0,0.0,0.0,0.0,0.0,0.0,0.0,0.0,0.0,-0.0011726716766133904,0.014161109924316406,0.08701015263795853,0.0,0.0,0.0,0.0,0.0,0.0,0.0,0.0,0.0
1606989683482370118,2989578,1606986082466875079,imu_link,0.012423386797308922,0.004283989779651165,0.9306167364120483,0.36575934290885925,0.0,0.0,0.0,0.0,0.0,0.0,0.0,0.0,0.0,137.0776824951172,-1.1453617811203003,0.9777914881706238,0.0,0.0,0.0,0.0,0.0,0.0,0.0,0.0,0.0,-0.0011726716766133904,0.014161109924316406,0.08701015263795853,0.0,0.0,0.0,0.0,0.0,0.0,0.0,0.0,0.0
1606989683482383027,2989579,1606986082466986496,imu_link,0.012421856634318829,0.004283642861992121,0.9306177496910095,0.3657568097114563,0.0,0.0,0.0,0.0,0.0,0.0,0.0,0.0,0.0,137.0780029296875,-1.1452159881591797,0.9776871204376221,0.0,0.0,0.0,0.0,0.0,0.0,0.0,0.0,0.0,-0.001613858388736844,0.02480209246277809,0.09003902226686478,0.0,0.0,0.0,0.0,0.0,0.0,0.0,0.0,0.0
1606989683490871920,2989580,1606986082467093760,imu_link,0.012421856634318829,0.004283642861992121,0.9306177496910095,0.3657568097114563,0.0,0.0,0.0,0.0,0.0,0.0,0.0,0.0,0.0,137.0780029296875,-1.1452159881591797,0.9776871204376221,0.0,0.0,0.0,0.0,0.0,0.0,0.0,0.0,0.0,-0.001613858388736844,0.02480209246277809,0.09003902226686478,0.0,0.0,0.0,0.0,0.0,0.0,0.0,0.0,0.0
1606989683490890482,2989581,1606986082467179293,imu_link,0.012419354170560837,0.004277509171515703,0.93061763048172,0.365757018327713,0.0,0.0,0.0,0.0,0.0,0.0,0.0,0.0,0.0,137.07798767089844,-1.1452058553695679,0.9769282937049866,0.0,0.0,0.0,0.0,0.0,0.0,0.0,0.0,0.0,-0.0014022309333086014,0.023528417572379112,0.07623711228370667,0.0,0.0,0.0,0.0,0.0,0.0,0.0,0.0,0.0
1606989683490896012,2989582,1606986082467261989,imu_link,0.012419354170560837,0.004277509171515703,0.93061763048172,0.365757018327713,0.0,0.0,0.0,0.0,0.0,0.0,0.0,0.0,0.0,137.07798767089844,-1.1452058553695679,0.9769282937049866,0.0,0.0,0.0,0.0,0.0,0.0,0.0,0.0,0.0,-0.0014022309333086014,0.023528417572379112,0.07623711228370667,0.0,0.0,0.0,0.0,0.0,0.0,0.0,0.0,0.0
1606989683490921099,2989583,1606986082467345497,imu_link,0.012418137863278389,0.004278586711734533,0.9306175112724304,0.36575767397880554,0.0,0.0,0.0,0.0,0.0,0.0,0.0,0.0,0.0,137.07791137695312,-1.1450304985046387,0.9769927859306335,0.0,0.0,0.0,0.0,0.0,0.0,0.0,0.0,0.0,0.009657208807766438,0.008164635859429836,0.04657034948468208,0.0,0.0,0.0,0.0,0.0,0.0,0.0,0.0,0.0
1606989683497963161,2989584,1606986082467426054,imu_link,0.012418137863278389,0.004278586711734533,0.9306175112724304,0.36575767397880554,0.0,0.0,0.0,0.0,0.0,0.0,0.0,0.0,0.0,137.07791137695312,-1.1450304985046387,0.9769927859306335,0.0,0.0,0.0,0.0,0.0,0.0,0.0,0.0,0.0,0.009657208807766438,0.008164635859429836,0.04657034948468208,0.0,0.0,0.0,0.0,0.0,0.0,0.0,0.0,0.0
1606989683497985269,2989585,1606986082479843837,imu_link,0.012415897101163864,0.004278583452105522,0.9306158423423767,0.36576202511787415,0.0,0.0,0.0,0.0,0.0,0.0,0.0,0.0,0.0,137.07737731933594,-1.144787073135376,0.9769037365913391,0.0,0.0,0.0,0.0,0.0,0.0,0.0,0.0,0.0,0.01341440062969923,0.004331329837441444,0.04752993956208229,0.0,0.0,0.0,0.0,0.0,0.0,0.0,0.0,0.0
1606989683498015121,2989586,1606986082479985254,imu_link,0.012415897101163864,0.004278583452105522,0.9306158423423767,0.36576202511787415,0.0,0.0,0.0,0.0,0.0,0.0,0.0,0.0,0.0,137.07737731933594,-1.144787073135376,0.9769037365913391,0.0,0.0,0.0,0.0,0.0,0.0,0.0,0.0,0.0,0.01341440062969923,0.004331329837441444,0.04752993956208229,0.0,0.0,0.0,0.0,0.0,0.0,0.0,0.0,0.0
1606989683498028685,2989587,1606986082480137888,imu_link,0.012418357655405998,0.004279391840100288,0.9306154847145081,0.3657625913619995,0.0,0.0,0.0,0.0,0.0,0.0,0.0,0.0,0.0,137.07730102539062,-1.145014762878418,0.9770941734313965,0.0,0.0,0.0,0.0,0.0,0.0,0.0,0.0,0.0,0.003891298547387123,0.0010917959734797478,0.049387749284505844,0.0,0.0,0.0,0.0,0.0,0.0,0.0,0.0,0.0
1606989683498051298,2989588,1606986082480237634,imu_link,0.012418357655405998,0.004279391840100288,0.9306154847145081,0.3657625913619995,0.0,0.0,0.0,0.0,0.0,0.0,0.0,0.0,0.0,137.07730102539062,-1.145014762878418,0.9770941734313965,0.0,0.0,0.0,0.0,0.0,0.0,0.0,0.0,0.0,0.003891298547387123,0.0010917959734797478,0.049387749284505844,0.0,0.0,0.0,0.0,0.0,0.0,0.0,0.0,0.0
1606989683535755178,2989589,1606986082480335455,imu_link,0.012419328093528748,0.004277982749044895,0.9306153059005737,0.3657631278038025,0.0,0.0,0.0,0.0,0.0,0.0,0.0,0.0,0.0,137.0772247314453,-1.145176887512207,0.9769852161407471,0.0,0.0,0.0,0.0,0.0,0.0,0.0,0.0,0.0,-0.015227541327476501,-0.011410386301577091,0.05567190796136856,0.0,0.0,0.0,0.0,0.0,0.0,0.0,0.0,0.0
1606989683535807703,2989590,1606986082480419073,imu_link,0.012419328093528748,0.004277982749044895,0.9306153059005737,0.3657631278038025,0.0,0.0,0.0,0.0,0.0,0.0,0.0,0.0,0.0,137.0772247314453,-1.145176887512207,0.9769852161407471,0.0,0.0,0.0,0.0,0.0,0.0,0.0,0.0,0.0,-0.015227541327476501,-0.011410386301577091,0.05567190796136856,0.0,0.0,0.0,0.0,0.0,0.0,0.0,0.0,0.0
1606989683535818891,2989591,1606986082480524593,imu_link,0.01241834182292223,0.00427507609128952,0.930614709854126,0.36576470732688904,0.0,0.0,0.0,0.0,0.0,0.0,0.0,0.0,0.0,137.07705688476562,-1.1451917886734009,0.976635754108429,0.0,0.0,0.0,0.0,0.0,0.0,0.0,0.0,0.0,-0.015136528760194778,0.00297336233779788,0.060561176389455795,0.0,0.0,0.0,0.0,0.0,0.0,0.0,0.0,0.0
1606989683535825061,2989592,1606986082480605445,imu_link,0.01241834182292223,0.00427507609128952,0.930614709854126,0.36576470732688904,0.0,0.0,0.0,0.0,0.0,0.0,0.0,0.0,0.0,137.07705688476562,-1.1451917886734009,0.976635754108429,0.0,0.0,0.0,0.0,0.0,0.0,0.0,0.0,0.0,-0.015136528760194778,0.00297336233779788,0.060561176389455795,0.0,0.0,0.0,0.0,0.0,0.0,0.0,0.0,0.0
1606989683540743244,2989593,1606986082480735370,imu_link,0.012421597726643085,0.004274281207472086,0.9306149482727051,0.36576417088508606,0.0,0.0,0.0,0.0,0.0,0.0,0.0,0.0,0.0,137.0771026611328,-1.1455731391906738,0.9766867756843567,0.0,0.0,0.0,0.0,0.0,0.0,0.0,0.0,0.0,-0.010510973632335663,0.015369685366749763,0.03294336423277855,0.0,0.0,0.0,0.0,0.0,0.0,0.0,0.0,0.0
1606989683540768792,2989594,1606986082480820943,imu_link,0.012421597726643085,0.004274281207472086,0.9306149482727051,0.36576417088508606,0.0,0.0,0.0,0.0,0.0,0.0,0.0,0.0,0.0,137.0771026611328,-1.1455731391906738,0.9766867756843567,0.0,0.0,0.0,0.0,0.0,0.0,0.0,0.0,0.0,-0.010510973632335663,0.015369685366749763,0.03294336423277855,0.0,0.0,0.0,0.0,0.0,0.0,0.0,0.0,0.0
1606989683540777950,2989595,1606986082480894865,imu_link,0.01242159865796566,0.00427241949364543,0.9306142926216125,0.3657654821872711,0.0,0.0,0.0,0.0,0.0,0.0,0.0,0.0,0.0,137.0769500732422,-1.1456496715545654,0.9764900207519531,0.0,0.0,0.0,0.0,0.0,0.0,0.0,0.0,0.0,-0.009851166047155857,0.006836330518126488,0.019858907908201218,0.0,0.0,0.0,0.0,0.0,0.0,0.0,0.0,0.0
1606989683540786719,2989596,1606986082493684514,imu_link,0.01242159865796566,0.00427241949364543,0.9306142926216125,0.3657654821872711,0.0,0.0,0.0,0.0,0.0,0.0,0.0,0.0,0.0,137.0769500732422,-1.1456496715545654,0.9764900207519531,0.0,0.0,0.0,0.0,0.0,0.0,0.0,0.0,0.0,-0.009851166047155857,0.006836330518126488,0.019858907908201218,0.0,0.0,0.0,0.0,0.0,0.0,0.0,0.0,0.0
1606989683540813060,2989597,1606986082493826412,imu_link,0.012422689236700535,0.004270584788173437,0.9306167364120483,0.36575958132743835,0.0,0.0,0.0,0.0,0.0,0.0,0.0,0.0,0.0,137.0776824951172,-1.1458492279052734,0.9763326048851013,0.0,0.0,0.0,0.0,0.0,0.0,0.0,0.0,0.0,-0.004320583306252956,0.0029222946614027023,0.04163500666618347,0.0,0.0,0.0,0.0,0.0,0.0,0.0,0.0,0.0
1606989683548973490,2989598,1606986082493965058,imu_link,0.012422689236700535,0.004270584788173437,0.9306167364120483,0.36575958132743835,0.0,0.0,0.0,0.0,0.0,0.0,0.0,0.0,0.0,137.0776824951172,-1.1458492279052734,0.9763326048851013,0.0,0.0,0.0,0.0,0.0,0.0,0.0,0.0,0.0,-0.004320583306252956,0.0029222946614027023,0.04163500666618347,0.0,0.0,0.0,0.0,0.0,0.0,0.0,0.0,0.0
1606989683549008879,2989599,1606986082494069159,imu_link,0.012422961182892323,0.004271737299859524,0.930616021156311,0.36576130986213684,0.0,0.0,0.0,0.0,0.0,0.0,0.0,0.0,0.0,137.0774688720703,-1.145828127861023,0.976469099521637,0.0,0.0,0.0,0.0,0.0,0.0,0.0,0.0,0.0,0.006421439349651337,-0.003353643696755171,0.06950801610946655,0.0,0.0,0.0,0.0,0.0,0.0,0.0,0.0,0.0
1606989683549029216,2989600,1606986082494156792,imu_link,0.012422961182892323,0.004271737299859524,0.930616021156311,0.36576130986213684,0.0,0.0,0.0,0.0,0.0,0.0,0.0,0.0,0.0,137.0774688720703,-1.145828127861023,0.976469099521637,0.0,0.0,0.0,0.0,0.0,0.0,0.0,0.0,0.0,0.006421439349651337,-0.003353643696755171,0.06950801610946655,0.0,0.0,0.0,0.0,0.0,0.0,0.0,0.0,0.0
1606989683549062250,2989601,1606986082494259374,imu_link,0.012422489002346992,0.004273044876754284,0.9306183457374573,0.36575543880462646,0.0,0.0,0.0,0.0,0.0,0.0,0.0,0.0,0.0,137.0781707763672,-1.1457290649414062,0.9765816926956177,0.0,0.0,0.0,0.0,0.0,0.0,0.0,0.0,0.0,0.023043496534228325,-0.012154189869761467,0.05903186649084091,0.0,0.0,0.0,0.0,0.0,0.0,0.0,0.0,0.0
1606989683565444251,2989602,1606986082494347007,imu_link,0.012422489002346992,0.004273044876754284,0.9306183457374573,0.36575543880462646,0.0,0.0,0.0,0.0,0.0,0.0,0.0,0.0,0.0,137.0781707763672,-1.1457290649414062,0.9765816926956177,0.0,0.0,0.0,0.0,0.0,0.0,0.0,0.0,0.0,0.023043496534228325,-0.012154189869761467,0.05903186649084091,0.0,0.0,0.0,0.0,0.0,0.0,0.0,0.0,0.0
1606989683565478395,2989603,1606986082494435356,imu_link,0.01242494024336338,0.004275435581803322,0.930618941783905,0.36575376987457275,0.0,0.0,0.0,0.0,0.0,0.0,0.0,0.0,0.0,137.07838439941406,-1.1458920240402222,0.976937472820282,0.0,0.0,0.0,0.0,0.0,0.0,0.0,0.0,0.0,0.013492959551513195,-0.015096091665327549,0.048487141728401184,0.0,0.0,0.0,0.0,0.0,0.0,0.0,0.0,0.0
1606989683565511813,2989604,1606986082494528487,imu_link,0.01242494024336338,0.004275435581803322,0.930618941783905,0.36575376987457275,0.0,0.0,0.0,0.0,0.0,0.0,0.0,0.0,0.0,137.07838439941406,-1.1458920240402222,0.976937472820282,0.0,0.0,0.0,0.0,0.0,0.0,0.0,0.0,0.0,0.013492959551513195,-0.015096091665327549,0.048487141728401184,0.0,0.0,0.0,0.0,0.0,0.0,0.0,0.0,0.0
1606989683565529168,2989605,1606986082494613053,imu_link,0.012424997054040432,0.004279567394405603,0.9306163191795349,0.36576035618782043,0.0,0.0,0.0,0.0,0.0,0.0,0.0,0.0,0.0,137.0775604248047,-1.1457178592681885,0.9773886203765869,0.0,0.0,0.0,0.0,0.0,0.0,0.0,0.0,0.0,0.0006126340012997389,-0.0039964886382222176,0.029724495485424995,0.0,0.0,0.0,0.0,0.0,0.0,0.0,0.0,0.0
1606989683565558145,2989606,1606986082494696295,imu_link,0.012424997054040432,0.004279567394405603,0.9306163191795349,0.36576035618782043,0.0,0.0,0.0,0.0,0.0,0.0,0.0,0.0,0.0,137.0775604248047,-1.1457178592681885,0.9773886203765869,0.0,0.0,0.0,0.0,0.0,0.0,0.0,0.0,0.0,0.0006126340012997389,-0.0039964886382222176,0.029724495485424995,0.0,0.0,0.0,0.0,0.0,0.0,0.0,0.0,0.0
1606989683654195053,2989607,1606986082506574806,imu_link,0.012423289008438587,0.004280040971934795,0.9306159019470215,0.36576148867607117,0.0,0.0,0.0,0.0,0.0,0.0,0.0,0.0,0.0,137.0774383544922,-1.1455146074295044,0.9773688316345215,0.0,0.0,0.0,0.0,0.0,0.0,0.0,0.0,0.0,0.013512441888451576,0.005425948183983564,0.027403485029935837,0.0,0.0,0.0,0.0,0.0,0.0,0.0,0.0,0.0
1606989683654225819,2989608,1606986082506717721,imu_link,0.012423289008438587,0.004280040971934795,0.9306159019470215,0.36576148867607117,0.0,0.0,0.0,0.0,0.0,0.0,0.0,0.0,0.0,137.0774383544922,-1.1455146074295044,0.9773688316345215,0.0,0.0,0.0,0.0,0.0,0.0,0.0,0.0,0.0,0.013512441888451576,0.005425948183983564,0.027403485029935837,0.0,0.0,0.0,0.0,0.0,0.0,0.0,0.0,0.0
1606989683654238565,2989609,1606986082506861394,imu_link,0.01242054346948862,0.00428064214065671,0.9306143522262573,0.3657655119895935,0.0,0.0,0.0,0.0,0.0,0.0,0.0,0.0,0.0,137.07693481445312,-1.1451923847198486,0.9773227572441101,0.0,0.0,0.0,0.0,0.0,0.0,0.0,0.0,0.0,0.0118485102429986,0.008179808035492897,0.058511361479759216,0.0,0.0,0.0,0.0,0.0,0.0,0.0,0.0,0.0
1606989683654250764,2989610,1606986082506991259,imu_link,0.01242054346948862,0.00428064214065671,0.9306143522262573,0.3657655119895935,0.0,0.0,0.0,0.0,0.0,0.0,0.0,0.0,0.0,137.07693481445312,-1.1451923847198486,0.9773227572441101,0.0,0.0,0.0,0.0,0.0,0.0,0.0,0.0,0.0,0.0118485102429986,0.008179808035492897,0.058511361479759216,0.0,0.0,0.0,0.0,0.0,0.0,0.0,0.0,0.0
1606989683666071593,2989611,1606986082507080706,imu_link,0.01242038793861866,0.00427981186658144,0.9306146502494812,0.36576470732688904,0.0,0.0,0.0,0.0,0.0,0.0,0.0,0.0,0.0,137.07704162597656,-1.1452114582061768,0.9772264957427979,0.0,0.0,0.0,0.0,0.0,0.0,0.0,0.0,0.0,0.002538044471293688,0.0015141288749873638,0.07744576036930084,0.0,0.0,0.0,0.0,0.0,0.0,0.0,0.0,0.0
1606989683666173910,2989612,1606986082507189684,imu_link,0.01242038793861866,0.00427981186658144,0.9306146502494812,0.36576470732688904,0.0,0.0,0.0,0.0,0.0,0.0,0.0,0.0,0.0,137.07704162597656,-1.1452114582061768,0.9772264957427979,0.0,0.0,0.0,0.0,0.0,0.0,0.0,0.0,0.0,0.002538044471293688,0.0015141288749873638,0.07744576036930084,0.0,0.0,0.0,0.0,0.0,0.0,0.0,0.0,0.0
1606989683666232139,2989613,1606986082507272044,imu_link,0.012421773746609688,0.004278284963220358,0.9306158423423767,0.36576148867607117,0.0,0.0,0.0,0.0,0.0,0.0,0.0,0.0,0.0,137.0774383544922,-1.1454267501831055,0.9771180748939514,0.0,0.0,0.0,0.0,0.0,0.0,0.0,0.0,0.0,0.006654164753854275,0.011253743432462215,0.05568835884332657,0.0,0.0,0.0,0.0,0.0,0.0,0.0,0.0,0.0
1606989683666253042,2989614,1606986082507444368,imu_link,0.012421773746609688,0.004278284963220358,0.9306158423423767,0.36576148867607117,0.0,0.0,0.0,0.0,0.0,0.0,0.0,0.0,0.0,137.0774383544922,-1.1454267501831055,0.9771180748939514,0.0,0.0,0.0,0.0,0.0,0.0,0.0,0.0,0.0,0.006654164753854275,0.011253743432462215,0.05568835884332657,0.0,0.0,0.0,0.0,0.0,0.0,0.0,0.0,0.0
1606989683666278858,2989615,1606986082507529134,imu_link,0.012422611005604267,0.004277786239981651,0.9306158423423767,0.36576157808303833,0.0,0.0,0.0,0.0,0.0,0.0,0.0,0.0,0.0,137.07742309570312,-1.1455367803573608,0.9771000146865845,0.0,0.0,0.0,0.0,0.0,0.0,0.0,0.0,0.0,0.0045101516880095005,0.020644204691052437,0.010983811691403389,0.0,0.0,0.0,0.0,0.0,0.0,0.0,0.0,0.0
1606989683674040165,2989616,1606986082507612141,imu_link,0.012422611005604267,0.004277786239981651,0.9306158423423767,0.36576157808303833,0.0,0.0,0.0,0.0,0.0,0.0,0.0,0.0,0.0,137.07742309570312,-1.1455367803573608,0.9771000146865845,0.0,0.0,0.0,0.0,0.0,0.0,0.0,0.0,0.0,0.0045101516880095005,0.020644204691052437,0.010983811691403389,0.0,0.0,0.0,0.0,0.0,0.0,0.0,0.0,0.0
1606989683674087216,2989617,1606986082520068840,imu_link,0.012419169768691063,0.004273352678865194,0.9306173324584961,0.3657580316066742,0.0,0.0,0.0,0.0,0.0,0.0,0.0,0.0,0.0,137.07786560058594,-1.1453593969345093,0.9764783382415771,0.0,0.0,0.0,0.0,0.0,0.0,0.0,0.0,0.0,0.020395630970597267,0.003347523044794798,0.026261523365974426,0.0,0.0,0.0,0.0,0.0,0.0,0.0,0.0,0.0
1606989683674131403,2989618,1606986082520224495,imu_link,0.012419169768691063,0.004273352678865194,0.9306173324584961,0.3657580316066742,0.0,0.0,0.0,0.0,0.0,0.0,0.0,0.0,0.0,137.07786560058594,-1.1453593969345093,0.9764783382415771,0.0,0.0,0.0,0.0,0.0,0.0,0.0,0.0,0.0,0.020395630970597267,0.003347523044794798,0.026261523365974426,0.0,0.0,0.0,0.0,0.0,0.0,0.0,0.0,0.0
1606989683674144481,2989619,1606986082520322412,imu_link,0.012420818209648132,0.004272570833563805,0.9306171536445618,0.36575835943222046,0.0,0.0,0.0,0.0,0.0,0.0,0.0,0.0,0.0,137.07781982421875,-1.145567536354065,0.9764646291732788,0.0,0.0,0.0,0.0,0.0,0.0,0.0,0.0,0.0,0.029725905507802963,-0.0043554771691560745,0.048522185534238815,0.0,0.0,0.0,0.0,0.0,0.0,0.0,0.0,0.0
1606989683679552225,2989620,1606986082520428923,imu_link,0.012420818209648132,0.004272570833563805,0.9306171536445618,0.36575835943222046,0.0,0.0,0.0,0.0,0.0,0.0,0.0,0.0,0.0,137.07781982421875,-1.145567536354065,0.9764646291732788,0.0,0.0,0.0,0.0,0.0,0.0,0.0,0.0,0.0,0.029725905507802963,-0.0043554771691560745,0.048522185534238815,0.0,0.0,0.0,0.0,0.0,0.0,0.0,0.0,0.0
1606989683679624801,2989621,1606986082520522675,imu_link,0.012420027516782284,0.004273985978215933,0.9306177496910095,0.3657569885253906,0.0,0.0,0.0,0.0,0.0,0.0,0.0,0.0,0.0,137.0780029296875,-1.14542555809021,0.9765806198120117,0.0,0.0,0.0,0.0,0.0,0.0,0.0,0.0,0.0,0.013712194748222828,0.011873514391481876,0.0333084836602211,0.0,0.0,0.0,0.0,0.0,0.0,0.0,0.0,0.0
1606989683679667696,2989622,1606986082520615079,imu_link,0.012420027516782284,0.004273985978215933,0.9306177496910095,0.3657569885253906,0.0,0.0,0.0,0.0,0.0,0.0,0.0,0.0,0.0,137.0780029296875,-1.14542555809021,0.9765806198120117,0.0,0.0,0.0,0.0,0.0,0.0,0.0,0.0,0.0,0.013712194748222828,0.011873514391481876,0.0333084836602211,0.0,0.0,0.0,0.0,0.0,0.0,0.0,0.0,0.0
1606989683679701186,2989623,1606986082520716529,imu_link,0.012420888990163803,0.0042741382494568825,0.9306176900863647,0.36575695872306824,0.0,0.0,0.0,0.0,0.0,0.0,0.0,0.0,0.0,137.0780029296875,-1.1455109119415283,0.9766330122947693,0.0,0.0,0.0,0.0,0.0,0.0,0.0,0.0,0.0,0.009976726025342941,0.008987382985651493,0.037562232464551926,0.0,0.0,0.0,0.0,0.0,0.0,0.0,0.0,0.0
1606989683679721260,2989624,1606986082520799205,imu_link,0.012420888990163803,0.0042741382494568825,0.9306176900863647,0.36575695872306824,0.0,0.0,0.0,0.0,0.0,0.0,0.0,0.0,0.0,137.0780029296875,-1.1455109119415283,0.9766330122947693,0.0,0.0,0.0,0.0,0.0,0.0,0.0,0.0,0.0,0.009976726025342941,0.008987382985651493,0.037562232464551926,0.0,0.0,0.0,0.0,0.0,0.0,0.0,0.0,0.0
1606989683755066542,2989625,1606986082520883596,imu_link,0.01241955254226923,0.004273444414138794,0.93061763048172,0.3657573461532593,0.0,0.0,0.0,0.0,0.0,0.0,0.0,0.0,0.0,137.0779571533203,-1.1453973054885864,0.976503312587738,0.0,0.0,0.0,0.0,0.0,0.0,0.0,0.0,0.0,0.015031609684228897,0.008889301680028439,0.042938847094774246,0.0,0.0,0.0,0.0,0.0,0.0,0.0,0.0,0.0
1606989683755103679,2989626,1606986082520957662,imu_link,0.01241955254226923,0.004273444414138794,0.93061763048172,0.3657573461532593,0.0,0.0,0.0,0.0,0.0,0.0,0.0,0.0,0.0,137.0779571533203,-1.1453973054885864,0.976503312587738,0.0,0.0,0.0,0.0,0.0,0.0,0.0,0.0,0.0,0.015031609684228897,0.008889301680028439,0.042938847094774246,0.0,0.0,0.0,0.0,0.0,0.0,0.0,0.0,0.0
1606989683755124647,2989627,1606986082521043661,imu_link,0.012418502941727638,0.004274236503988504,0.9306183457374573,0.36575546860694885,0.0,0.0,0.0,0.0,0.0,0.0,0.0,0.0,0.0,137.0781707763672,-1.1452540159225464,0.9765415191650391,0.0,0.0,0.0,0.0,0.0,0.0,0.0,0.0,0.0,0.010158324614167213,0.023882566019892693,0.03877393156290054,0.0,0.0,0.0,0.0,0.0,0.0,0.0,0.0,0.0
1606989683755199968,2989628,1606986082533703442,imu_link,0.012418502941727638,0.004274236503988504,0.9306183457374573,0.36575546860694885,0.0,0.0,0.0,0.0,0.0,0.0,0.0,0.0,0.0,137.0781707763672,-1.1452540159225464,0.9765415191650391,0.0,0.0,0.0,0.0,0.0,0.0,0.0,0.0,0.0,0.010158324614167213,0.023882566019892693,0.03877393156290054,0.0,0.0,0.0,0.0,0.0,0.0,0.0,0.0,0.0
1606989683764976636,2989629,1606986082533795916,imu_link,0.012416394427418709,0.0042717126198112965,0.930618405342102,0.36575543880462646,0.0,0.0,0.0,0.0,0.0,0.0,0.0,0.0,0.0,137.0782012939453,-1.1451349258422852,0.9761838316917419,0.0,0.0,0.0,0.0,0.0,0.0,0.0,0.0,0.0,0.004170042462646961,0.010099753737449646,0.05180927366018295,0.0,0.0,0.0,0.0,0.0,0.0,0.0,0.0,0.0
1606989683765016769,2989630,1606986082533921976,imu_link,0.012416394427418709,0.0042717126198112965,0.930618405342102,0.36575543880462646,0.0,0.0,0.0,0.0,0.0,0.0,0.0,0.0,0.0,137.0782012939453,-1.1451349258422852,0.9761838316917419,0.0,0.0,0.0,0.0,0.0,0.0,0.0,0.0,0.0,0.004170042462646961,0.010099753737449646,0.05180927366018295,0.0,0.0,0.0,0.0,0.0,0.0,0.0,0.0,0.0
1606989683765034464,2989631,1606986082533975445,imu_link,0.01241712924093008,0.004269070457667112,0.9306185841560364,0.36575496196746826,0.0,0.0,0.0,0.0,0.0,0.0,0.0,0.0,0.0,137.07826232910156,-1.1453245878219604,0.9759323000907898,0.0,0.0,0.0,0.0,0.0,0.0,0.0,0.0,0.0,0.0002315532765351236,0.0023329011164605618,0.05906281620264053,0.0,0.0,0.0,0.0,0.0,0.0,0.0,0.0,0.0
1606989683765055346,2989632,1606986082534025805,imu_link,0.01241712924093008,0.004269070457667112,0.9306185841560364,0.36575496196746826,0.0,0.0,0.0,0.0,0.0,0.0,0.0,0.0,0.0,137.07826232910156,-1.1453245878219604,0.9759323000907898,0.0,0.0,0.0,0.0,0.0,0.0,0.0,0.0,0.0,0.0002315532765351236,0.0023329011164605618,0.05906281620264053,0.0,0.0,0.0,0.0,0.0,0.0,0.0,0.0,0.0
1606989683765081724,2989633,1606986082534073395,imu_link,0.012417156249284744,0.004268865566700697,0.9306185841560364,0.3657549321651459,0.0,0.0,0.0,0.0,0.0,0.0,0.0,0.0,0.0,137.07826232910156,-1.1453361511230469,0.9759114384651184,0.0,0.0,0.0,0.0,0.0,0.0,0.0,0.0,0.0,-0.008171792142093182,0.012509198859333992,0.05626416951417923,0.0,0.0,0.0,0.0,0.0,0.0,0.0,0.0,0.0
1606989683855519482,2989634,1606986082534137647,imu_link,0.012417156249284744,0.004268865566700697,0.9306185841560364,0.3657549321651459,0.0,0.0,0.0,0.0,0.0,0.0,0.0,0.0,0.0,137.07826232910156,-1.1453361511230469,0.9759114384651184,0.0,0.0,0.0,0.0,0.0,0.0,0.0,0.0,0.0,-0.008171792142093182,0.012509198859333992,0.05626416951417923,0.0,0.0,0.0,0.0,0.0,0.0,0.0,0.0,0.0
1606989683855560835,2989635,1606986082534190764,imu_link,0.012418551370501518,0.0042678858153522015,0.9306184649467468,0.3657552897930145,0.0,0.0,0.0,0.0,0.0,0.0,0.0,0.0,0.0,137.07821655273438,-1.1455256938934326,0.97586590051651,0.0,0.0,0.0,0.0,0.0,0.0,0.0,0.0,0.0,-1.6171135939657688e-05,0.0233782771974802,0.05563931167125702,0.0,0.0,0.0,0.0,0.0,0.0,0.0,0.0,0.0
1606989683855599100,2989636,1606986082534240195,imu_link,0.012418551370501518,0.0042678858153522015,0.9306184649467468,0.3657552897930145,0.0,0.0,0.0,0.0,0.0,0.0,0.0,0.0,0.0,137.07821655273438,-1.1455256938934326,0.97586590051651,0.0,0.0,0.0,0.0,0.0,0.0,0.0,0.0,0.0,-1.6171135939657688e-05,0.0233782771974802,0.05563931167125702,0.0,0.0,0.0,0.0,0.0,0.0,0.0,0.0,0.0
1606989683855613693,2989637,1606986082534285818,imu_link,0.012417488731443882,0.004264246206730604,0.9306185841560364,0.3657548725605011,0.0,0.0,0.0,0.0,0.0,0.0,0.0,0.0,0.0,137.07826232910156,-1.145565152168274,0.975432813167572,0.0,0.0,0.0,0.0,0.0,0.0,0.0,0.0,0.0,0.004255278035998344,0.016428088769316673,0.05066481605172157,0.0,0.0,0.0,0.0,0.0,0.0,0.0,0.0,0.0
1606989683860852759,2989638,1606986082534334388,imu_link,0.012417488731443882,0.004264246206730604,0.9306185841560364,0.3657548725605011,0.0,0.0,0.0,0.0,0.0,0.0,0.0,0.0,0.0,137.07826232910156,-1.145565152168274,0.975432813167572,0.0,0.0,0.0,0.0,0.0,0.0,0.0,0.0,0.0,0.004255278035998344,0.016428088769316673,0.05066481605172157,0.0,0.0,0.0,0.0,0.0,0.0,0.0,0.0,0.0
1606989683860892898,2989639,1606986082547308958,imu_link,0.012416909448802471,0.004264086950570345,0.930618941783905,0.36575421690940857,0.0,0.0,0.0,0.0,0.0,0.0,0.0,0.0,0.0,137.07835388183594,-1.1455109119415283,0.9753905534744263,0.0,0.0,0.0,0.0,0.0,0.0,0.0,0.0,0.0,-0.010592197999358177,0.01353276614099741,0.05271109566092491,0.0,0.0,0.0,0.0,0.0,0.0,0.0,0.0,0.0
1606989683860903472,2989640,1606986082547422994,imu_link,0.012416909448802471,0.004264086950570345,0.930618941783905,0.36575421690940857,0.0,0.0,0.0,0.0,0.0,0.0,0.0,0.0,0.0,137.07835388183594,-1.1455109119415283,0.9753905534744263,0.0,0.0,0.0,0.0,0.0,0.0,0.0,0.0,0.0,-0.010592197999358177,0.01353276614099741,0.05271109566092491,0.0,0.0,0.0,0.0,0.0,0.0,0.0,0.0,0.0
1606989683860943137,2989641,1606986082547542278,imu_link,0.012418484315276146,0.004259341862052679,0.9306194186210632,0.36575302481651306,0.0,0.0,0.0,0.0,0.0,0.0,0.0,0.0,0.0,137.07850646972656,-1.1458791494369507,0.9749489426612854,0.0,0.0,0.0,0.0,0.0,0.0,0.0,0.0,0.0,-0.013436083681881428,0.014819679781794548,0.043926503509283066,0.0,0.0,0.0,0.0,0.0,0.0,0.0,0.0,0.0
1606989683868132831,2989642,1606986082547613146,imu_link,0.012418484315276146,0.004259341862052679,0.9306194186210632,0.36575302481651306,0.0,0.0,0.0,0.0,0.0,0.0,0.0,0.0,0.0,137.07850646972656,-1.1458791494369507,0.9749489426612854,0.0,0.0,0.0,0.0,0.0,0.0,0.0,0.0,0.0,-0.013436083681881428,0.014819679781794548,0.043926503509283066,0.0,0.0,0.0,0.0,0.0,0.0,0.0,0.0,0.0
1606989683868187403,2989643,1606986082547673931,imu_link,0.012417728081345558,0.004258971195667982,0.930618941783905,0.36575424671173096,0.0,0.0,0.0,0.0,0.0,0.0,0.0,0.0,0.0,137.07835388183594,-1.145812749862671,0.9748791456222534,0.0,0.0,0.0,0.0,0.0,0.0,0.0,0.0,0.0,0.003754214383661747,-0.003382534720003605,0.03884951025247574,0.0,0.0,0.0,0.0,0.0,0.0,0.0,0.0,0.0
1606989683868206491,2989644,1606986082547738348,imu_link,0.012417728081345558,0.004258971195667982,0.930618941783905,0.36575424671173096,0.0,0.0,0.0,0.0,0.0,0.0,0.0,0.0,0.0,137.07835388183594,-1.145812749862671,0.9748791456222534,0.0,0.0,0.0,0.0,0.0,0.0,0.0,0.0,0.0,0.003754214383661747,-0.003382534720003605,0.03884951025247574,0.0,0.0,0.0,0.0,0.0,0.0,0.0,0.0,0.0
1606989683868219350,2989645,1606986082547817980,imu_link,0.01241862028837204,0.004259125329554081,0.9306212663650513,0.3657482862472534,0.0,0.0,0.0,0.0,0.0,0.0,0.0,0.0,0.0,137.07908630371094,-1.1459077596664429,0.9749257564544678,0.0,0.0,0.0,0.0,0.0,0.0,0.0,0.0,0.0,0.0009394669905304909,-0.009707081131637096,0.03630025312304497,0.0,0.0,0.0,0.0,0.0,0.0,0.0,0.0,0.0
1606989683868228265,2989646,1606986082547886631,imu_link,0.01241862028837204,0.004259125329554081,0.9306212663650513,0.3657482862472534,0.0,0.0,0.0,0.0,0.0,0.0,0.0,0.0,0.0,137.07908630371094,-1.1459077596664429,0.9749257564544678,0.0,0.0,0.0,0.0,0.0,0.0,0.0,0.0,0.0,0.0009394669905304909,-0.009707081131637096,0.03630025312304497,0.0,0.0,0.0,0.0,0.0,0.0,0.0,0.0,0.0
1606989683876290064,2989647,1606986082547952098,imu_link,0.012418723665177822,0.004258996807038784,0.9306219816207886,0.36574646830558777,0.0,0.0,0.0,0.0,0.0,0.0,0.0,0.0,0.0,137.0792999267578,-1.1459259986877441,0.9749141335487366,0.0,0.0,0.0,0.0,0.0,0.0,0.0,0.0,0.0,0.0018172500422224402,-0.016498757526278496,0.06319908052682877,0.0,0.0,0.0,0.0,0.0,0.0,0.0,0.0,0.0
1606989683876341557,2989648,1606986082548017245,imu_link,0.012418723665177822,0.004258996807038784,0.9306219816207886,0.36574646830558777,0.0,0.0,0.0,0.0,0.0,0.0,0.0,0.0,0.0,137.0792999267578,-1.1459259986877441,0.9749141335487366,0.0,0.0,0.0,0.0,0.0,0.0,0.0,0.0,0.0,0.0018172500422224402,-0.016498757526278496,0.06319908052682877,0.0,0.0,0.0,0.0,0.0,0.0,0.0,0.0,0.0
1606989683876356250,2989649,1606986082548082909,imu_link,0.01241701003164053,0.004263114649802446,0.9306240081787109,0.3657413125038147,0.0,0.0,0.0,0.0,0.0,0.0,0.0,0.0,0.0,137.07994079589844,-1.1455758810043335,0.9752750992774963,0.0,0.0,0.0,0.0,0.0,0.0,0.0,0.0,0.0,0.006696433760225773,-0.018783755600452423,0.0564395934343338,0.0,0.0,0.0,0.0,0.0,0.0,0.0,0.0,0.0
1606989683876367457,2989650,1606986082561188211,imu_link,0.01241701003164053,0.004263114649802446,0.9306240081787109,0.3657413125038147,0.0,0.0,0.0,0.0,0.0,0.0,0.0,0.0,0.0,137.07994079589844,-1.1455758810043335,0.9752750992774963,0.0,0.0,0.0,0.0,0.0,0.0,0.0,0.0,0.0,0.006696433760225773,-0.018783755600452423,0.0564395934343338,0.0,0.0,0.0,0.0,0.0,0.0,0.0,0.0,0.0
1606989683886065208,2989651,1606986082561302323,imu_link,0.012416892684996128,0.004264244344085455,0.9306238293647766,0.36574169993400574,0.0,0.0,0.0,0.0,0.0,0.0,0.0,0.0,0.0,137.07989501953125,-1.1455155611038208,0.9753912091255188,0.0,0.0,0.0,0.0,0.0,0.0,0.0,0.0,0.0,0.0010780912125483155,-0.009070109575986862,0.01715991273522377,0.0,0.0,0.0,0.0,0.0,0.0,0.0,0.0,0.0
1606989683886111493,2989652,1606986082561429846,imu_link,0.012416892684996128,0.004264244344085455,0.9306238293647766,0.36574169993400574,0.0,0.0,0.0,0.0,0.0,0.0,0.0,0.0,0.0,137.07989501953125,-1.1455155611038208,0.9753912091255188,0.0,0.0,0.0,0.0,0.0,0.0,0.0,0.0,0.0,0.0010780912125483155,-0.009070109575986862,0.01715991273522377,0.0,0.0,0.0,0.0,0.0,0.0,0.0,0.0,0.0
1606989683886130469,2989653,1606986082561508572,imu_link,0.012416712939739227,0.004266713280230761,0.9306213855743408,0.36574786901474,0.0,0.0,0.0,0.0,0.0,0.0,0.0,0.0,0.0,137.07913208007812,-1.1453864574432373,0.975654661655426,0.0,0.0,0.0,0.0,0.0,0.0,0.0,0.0,0.0,-0.0029501153621822596,0.0010270908242091537,0.03879883140325546,0.0,0.0,0.0,0.0,0.0,0.0,0.0,0.0,0.0
1606989683886144541,2989654,1606986082561573310,imu_link,0.012416712939739227,0.004266713280230761,0.9306213855743408,0.36574786901474,0.0,0.0,0.0,0.0,0.0,0.0,0.0,0.0,0.0,137.07913208007812,-1.1453864574432373,0.975654661655426,0.0,0.0,0.0,0.0,0.0,0.0,0.0,0.0,0.0,-0.0029501153621822596,0.0010270908242091537,0.03879883140325546,0.0,0.0,0.0,0.0,0.0,0.0,0.0,0.0,0.0
1606989683886180012,2989655,1606986082561655236,imu_link,0.012417005375027657,0.004268503747880459,0.9306224584579468,0.3657451868057251,0.0,0.0,0.0,0.0,0.0,0.0,0.0,0.0,0.0,137.07945251464844,-1.1453454494476318,0.9758544564247131,0.0,0.0,0.0,0.0,0.0,0.0,0.0,0.0,0.0,0.0073341429233551025,-0.005606484599411488,0.05668724700808525,0.0,0.0,0.0,0.0,0.0,0.0,0.0,0.0,0.0
1606989683925146059,2989656,1606986082561721938,imu_link,0.012417005375027657,0.004268503747880459,0.9306224584579468,0.3657451868057251,0.0,0.0,0.0,0.0,0.0,0.0,0.0,0.0,0.0,137.07945251464844,-1.1453454494476318,0.9758544564247131,0.0,0.0,0.0,0.0,0.0,0.0,0.0,0.0,0.0,0.0073341429233551025,-0.005606484599411488,0.05668724700808525,0.0,0.0,0.0,0.0,0.0,0.0,0.0,0.0,0.0
1606989683925171870,2989657,1606986082561792850,imu_link,0.012417333200573921,0.004268794786185026,0.9306195974349976,0.3657524287700653,0.0,0.0,0.0,0.0,0.0,0.0,0.0,0.0,0.0,137.07855224609375,-1.1453605890274048,0.9759083390235901,0.0,0.0,0.0,0.0,0.0,0.0,0.0,0.0,0.0,0.013875650241971016,-0.0018589767860248685,0.06581798940896988,0.0,0.0,0.0,0.0,0.0,0.0,0.0,0.0,0.0
1606989683925184479,2989658,1606986082561856742,imu_link,0.012417333200573921,0.004268794786185026,0.9306195974349976,0.3657524287700653,0.0,0.0,0.0,0.0,0.0,0.0,0.0,0.0,0.0,137.07855224609375,-1.1453605890274048,0.9759083390235901,0.0,0.0,0.0,0.0,0.0,0.0,0.0,0.0,0.0,0.013875650241971016,-0.0018589767860248685,0.06581798940896988,0.0,0.0,0.0,0.0,0.0,0.0,0.0,0.0,0.0
1606989683925203981,2989659,1606986082561924058,imu_link,0.012416703626513481,0.004268120042979717,0.9306192994117737,0.3657531440258026,0.0,0.0,0.0,0.0,0.0,0.0,0.0,0.0,0.0,137.07847595214844,-1.145321011543274,0.9758108258247375,0.0,0.0,0.0,0.0,0.0,0.0,0.0,0.0,0.0,0.006936266086995602,0.01775342784821987,0.05981281027197838,0.0,0.0,0.0,0.0,0.0,0.0,0.0,0.0,0.0
1606989683943746800,2989660,1606986082561990287,imu_link,0.012416703626513481,0.004268120042979717,0.9306192994117737,0.3657531440258026,0.0,0.0,0.0,0.0,0.0,0.0,0.0,0.0,0.0,137.07847595214844,-1.145321011543274,0.9758108258247375,0.0,0.0,0.0,0.0,0.0,0.0,0.0,0.0,0.0,0.006936266086995602,0.01775342784821987,0.05981281027197838,0.0,0.0,0.0,0.0,0.0,0.0,0.0,0.0,0.0
1606989683943824050,2989661,1606986082574050963,imu_link,0.012415912933647633,0.004266781732439995,0.9306215643882751,0.36574745178222656,0.0,0.0,0.0,0.0,0.0,0.0,0.0,0.0,0.0,137.0791778564453,-1.145298719406128,0.9756276607513428,0.0,0.0,0.0,0.0,0.0,0.0,0.0,0.0,0.0,0.003470561932772398,0.007507048547267914,0.06747879832983017,0.0,0.0,0.0,0.0,0.0,0.0,0.0,0.0,0.0
1606989683943836050,2989662,1606986082574162846,imu_link,0.012415912933647633,0.004266781732439995,0.9306215643882751,0.36574745178222656,0.0,0.0,0.0,0.0,0.0,0.0,0.0,0.0,0.0,137.0791778564453,-1.145298719406128,0.9756276607513428,0.0,0.0,0.0,0.0,0.0,0.0,0.0,0.0,0.0,0.003470561932772398,0.007507048547267914,0.06747879832983017,0.0,0.0,0.0,0.0,0.0,0.0,0.0,0.0,0.0
1606989683943844035,2989663,1606986082574242639,imu_link,0.012416641227900982,0.004268557298928499,0.9306206703186035,0.3657497763633728,0.0,0.0,0.0,0.0,0.0,0.0,0.0,0.0,0.0,137.0789031982422,-1.1452995538711548,0.9758506417274475,0.0,0.0,0.0,0.0,0.0,0.0,0.0,0.0,0.0,-0.01248906645923853,0.002802994567900896,0.07213000953197479,0.0,0.0,0.0,0.0,0.0,0.0,0.0,0.0,0.0
1606989683943883120,2989664,1606986082574315932,imu_link,0.012416641227900982,0.004268557298928499,0.9306206703186035,0.3657497763633728,0.0,0.0,0.0,0.0,0.0,0.0,0.0,0.0,0.0,137.0789031982422,-1.1452995538711548,0.9758506417274475,0.0,0.0,0.0,0.0,0.0,0.0,0.0,0.0,0.0,-0.01248906645923853,0.002802994567900896,0.07213000953197479,0.0,0.0,0.0,0.0,0.0,0.0,0.0,0.0,0.0
1606989683949705628,2989665,1606986082574396358,imu_link,0.012417356483638287,0.004268042743206024,0.9306232333183289,0.36574316024780273,0.0,0.0,0.0,0.0,0.0,0.0,0.0,0.0,0.0,137.07969665527344,-1.14540433883667,0.9758176803588867,0.0,0.0,0.0,0.0,0.0,0.0,0.0,0.0,0.0,-0.003228426445275545,0.013084769248962402,0.04841858148574829,0.0,0.0,0.0,0.0,0.0,0.0,0.0,0.0,0.0
1606989683949720577,2989666,1606986082574482113,imu_link,0.012417356483638287,0.004268042743206024,0.9306232333183289,0.36574316024780273,0.0,0.0,0.0,0.0,0.0,0.0,0.0,0.0,0.0,137.07969665527344,-1.14540433883667,0.9758176803588867,0.0,0.0,0.0,0.0,0.0,0.0,0.0,0.0,0.0,-0.003228426445275545,0.013084769248962402,0.04841858148574829,0.0,0.0,0.0,0.0,0.0,0.0,0.0,0.0,0.0
1606989683949726279,2989667,1606986082574552427,imu_link,0.012417012825608253,0.004266297444701195,0.9306236505508423,0.36574217677116394,0.0,0.0,0.0,0.0,0.0,0.0,0.0,0.0,0.0,137.079833984375,-1.1454418897628784,0.9756157398223877,0.0,0.0,0.0,0.0,0.0,0.0,0.0,0.0,0.0,0.012409665621817112,0.0008878146763890982,0.04578264802694321,0.0,0.0,0.0,0.0,0.0,0.0,0.0,0.0,0.0
1606989683949732801,2989668,1606986082574615894,imu_link,0.012417012825608253,0.004266297444701195,0.9306236505508423,0.36574217677116394,0.0,0.0,0.0,0.0,0.0,0.0,0.0,0.0,0.0,137.079833984375,-1.1454418897628784,0.9756157398223877,0.0,0.0,0.0,0.0,0.0,0.0,0.0,0.0,0.0,0.012409665621817112,0.0008878146763890982,0.04578264802694321,0.0,0.0,0.0,0.0,0.0,0.0,0.0,0.0,0.0
1606989683956833898,2989669,1606986082574719518,imu_link,0.012416948564350605,0.004267051350325346,0.9306244254112244,0.3657400608062744,0.0,0.0,0.0,0.0,0.0,0.0,0.0,0.0,0.0,137.08009338378906,-1.1454055309295654,0.9756909608840942,0.0,0.0,0.0,0.0,0.0,0.0,0.0,0.0,0.0,0.010846743360161781,-0.010501961223781109,0.06930940598249435,0.0,0.0,0.0,0.0,0.0,0.0,0.0,0.0,0.0
1606989683956861843,2989670,1606986082574785110,imu_link,0.012416948564350605,0.004267051350325346,0.9306244254112244,0.3657400608062744,0.0,0.0,0.0,0.0,0.0,0.0,0.0,0.0,0.0,137.08009338378906,-1.1454055309295654,0.9756909608840942,0.0,0.0,0.0,0.0,0.0,0.0,0.0,0.0,0.0,0.010846743360161781,-0.010501961223781109,0.06930940598249435,0.0,0.0,0.0,0.0,0.0,0.0,0.0,0.0,0.0
1606989683956869958,2989671,1606986082587483543,imu_link,0.012415670789778233,0.004266796633601189,0.9306240677833557,0.36574089527130127,0.0,0.0,0.0,0.0,0.0,0.0,0.0,0.0,0.0,137.07997131347656,-1.1452791690826416,0.97561115026474,0.0,0.0,0.0,0.0,0.0,0.0,0.0,0.0,0.0,-0.0044042496010661125,-0.0006857461994513869,0.05796670541167259,0.0,0.0,0.0,0.0,0.0,0.0,0.0,0.0,0.0
1606989683956877840,2989672,1606986082587623973,imu_link,0.012415670789778233,0.004266796633601189,0.9306240677833557,0.36574089527130127,0.0,0.0,0.0,0.0,0.0,0.0,0.0,0.0,0.0,137.07997131347656,-1.1452791690826416,0.97561115026474,0.0,0.0,0.0,0.0,0.0,0.0,0.0,0.0,0.0,-0.0044042496010661125,-0.0006857461994513869,0.05796670541167259,0.0,0.0,0.0,0.0,0.0,0.0,0.0,0.0,0.0
1606989683956898874,2989673,1606986082587766107,imu_link,0.012415923178195953,0.00426755053922534,0.9306240081787109,0.3657412528991699,0.0,0.0,0.0,0.0,0.0,0.0,0.0,0.0,0.0,137.0799560546875,-1.1452741622924805,0.975702702999115,0.0,0.0,0.0,0.0,0.0,0.0,0.0,0.0,0.0,9.04108164831996e-05,-0.0031292643398046494,0.041250113397836685,0.0,0.0,0.0,0.0,0.0,0.0,0.0,0.0,0.0
1606989684012257777,2989674,1606986082587868499,imu_link,0.012415923178195953,0.00426755053922534,0.9306240081787109,0.3657412528991699,0.0,0.0,0.0,0.0,0.0,0.0,0.0,0.0,0.0,137.0799560546875,-1.1452741622924805,0.975702702999115,0.0,0.0,0.0,0.0,0.0,0.0,0.0,0.0,0.0,9.04108164831996e-05,-0.0031292643398046494,0.041250113397836685,0.0,0.0,0.0,0.0,0.0,0.0,0.0,0.0,0.0
1606989684012272121,2989675,1606986082587957685,imu_link,0.012414383701980114,0.004266112111508846,0.9306248426437378,0.3657391369342804,0.0,0.0,0.0,0.0,0.0,0.0,0.0,0.0,0.0,137.08021545410156,-1.145172357559204,0.9754821062088013,0.0,0.0,0.0,0.0,0.0,0.0,0.0,0.0,0.0,0.010809754021465778,-0.0013077657204121351,0.036245252937078476,0.0,0.0,0.0,0.0,0.0,0.0,0.0,0.0,0.0
1606989684012281294,2989676,1606986082588039028,imu_link,0.012414383701980114,0.004266112111508846,0.9306248426437378,0.3657391369342804,0.0,0.0,0.0,0.0,0.0,0.0,0.0,0.0,0.0,137.08021545410156,-1.145172357559204,0.9754821062088013,0.0,0.0,0.0,0.0,0.0,0.0,0.0,0.0,0.0,0.010809754021465778,-0.0013077657204121351,0.036245252937078476,0.0,0.0,0.0,0.0,0.0,0.0,0.0,0.0,0.0
1606989684012287541,2989677,1606986082588132735,imu_link,0.012412316165864468,0.0042661079205572605,0.9306262135505676,0.3657356798648834,0.0,0.0,0.0,0.0,0.0,0.0,0.0,0.0,0.0,137.08062744140625,-1.1449556350708008,0.9753906726837158,0.0,0.0,0.0,0.0,0.0,0.0,0.0,0.0,0.0,0.0017123025609180331,0.0036790191661566496,0.022996686398983,0.0,0.0,0.0,0.0,0.0,0.0,0.0,0.0,0.0
1606989684047709710,2989678,1606986082588212961,imu_link,0.012412316165864468,0.0042661079205572605,0.9306262135505676,0.3657356798648834,0.0,0.0,0.0,0.0,0.0,0.0,0.0,0.0,0.0,137.08062744140625,-1.1449556350708008,0.9753906726837158,0.0,0.0,0.0,0.0,0.0,0.0,0.0,0.0,0.0,0.0017123025609180331,0.0036790191661566496,0.022996686398983,0.0,0.0,0.0,0.0,0.0,0.0,0.0,0.0,0.0
1606989684047740432,2989679,1606986082588379782,imu_link,0.012412656098604202,0.00426715100184083,0.9306260943412781,0.3657359778881073,0.0,0.0,0.0,0.0,0.0,0.0,0.0,0.0,0.0,137.0806121826172,-1.14494788646698,0.9755163788795471,0.0,0.0,0.0,0.0,0.0,0.0,0.0,0.0,0.0,0.006610414013266563,-0.00562819791957736,0.023724103346467018,0.0,0.0,0.0,0.0,0.0,0.0,0.0,0.0,0.0
1606989684047752489,2989680,1606986082588464488,imu_link,0.012412656098604202,0.00426715100184083,0.9306260943412781,0.3657359778881073,0.0,0.0,0.0,0.0,0.0,0.0,0.0,0.0,0.0,137.0806121826172,-1.14494788646698,0.9755163788795471,0.0,0.0,0.0,0.0,0.0,0.0,0.0,0.0,0.0,0.006610414013266563,-0.00562819791957736,0.023724103346467018,0.0,0.0,0.0,0.0,0.0,0.0,0.0,0.0,0.0
1606989684047759203,2989681,1606986082588543305,imu_link,0.012409030459821224,0.0042671822011470795,0.9306271076202393,0.3657335340976715,0.0,0.0,0.0,0.0,0.0,0.0,0.0,0.0,0.0,137.08090209960938,-1.1445624828338623,0.9753647446632385,0.0,0.0,0.0,0.0,0.0,0.0,0.0,0.0,0.0,0.011195600964128971,0.00012990261893719435,0.04320601001381874,0.0,0.0,0.0,0.0,0.0,0.0,0.0,0.0,0.0
1606989684047787994,2989682,1606986082601376225,imu_link,0.012409030459821224,0.0042671822011470795,0.9306271076202393,0.3657335340976715,0.0,0.0,0.0,0.0,0.0,0.0,0.0,0.0,0.0,137.08090209960938,-1.1445624828338623,0.9753647446632385,0.0,0.0,0.0,0.0,0.0,0.0,0.0,0.0,0.0,0.011195600964128971,0.00012990261893719435,0.04320601001381874,0.0,0.0,0.0,0.0,0.0,0.0,0.0,0.0,0.0
1606989684054892207,2989683,1606986082601518499,imu_link,0.012408396229147911,0.0042669447138905525,0.9306266903877258,0.36573460698127747,0.0,0.0,0.0,0.0,0.0,0.0,0.0,0.0,0.0,137.0807647705078,-1.1445037126541138,0.9753140211105347,0.0,0.0,0.0,0.0,0.0,0.0,0.0,0.0,0.0,0.003288957290351391,0.005007380153983831,0.04692526161670685,0.0,0.0,0.0,0.0,0.0,0.0,0.0,0.0,0.0
1606989684054922074,2989684,1606986082601656228,imu_link,0.012408396229147911,0.0042669447138905525,0.9306266903877258,0.36573460698127747,0.0,0.0,0.0,0.0,0.0,0.0,0.0,0.0,0.0,137.0807647705078,-1.1445037126541138,0.9753140211105347,0.0,0.0,0.0,0.0,0.0,0.0,0.0,0.0,0.0,0.003288957290351391,0.005007380153983831,0.04692526161670685,0.0,0.0,0.0,0.0,0.0,0.0,0.0,0.0,0.0
1606989684054945773,2989685,1606986082601756926,imu_link,0.012407219968736172,0.004267672076821327,0.9306288361549377,0.3657291829586029,0.0,0.0,0.0,0.0,0.0,0.0,0.0,0.0,0.0,137.08145141601562,-1.1443535089492798,0.9753355979919434,0.0,0.0,0.0,0.0,0.0,0.0,0.0,0.0,0.0,-0.0012708741705864668,-0.004127473570406437,0.03932425379753113,0.0,0.0,0.0,0.0,0.0,0.0,0.0,0.0,0.0
1606989684054971994,2989686,1606986082601843847,imu_link,0.012407219968736172,0.004267672076821327,0.9306288361549377,0.3657291829586029,0.0,0.0,0.0,0.0,0.0,0.0,0.0,0.0,0.0,137.08145141601562,-1.1443535089492798,0.9753355979919434,0.0,0.0,0.0,0.0,0.0,0.0,0.0,0.0,0.0,-0.0012708741705864668,-0.004127473570406437,0.03932425379753113,0.0,0.0,0.0,0.0,0.0,0.0,0.0,0.0,0.0
1606989684066810177,2989687,1606986082601926268,imu_link,0.012407761998474598,0.004267621319741011,0.9306274652481079,0.36573269963264465,0.0,0.0,0.0,0.0,0.0,0.0,0.0,0.0,0.0,137.0810089111328,-1.1444097757339478,0.9753572344779968,0.0,0.0,0.0,0.0,0.0,0.0,0.0,0.0,0.0,0.019252806901931763,-0.00931128952652216,0.054876115173101425,0.0,0.0,0.0,0.0,0.0,0.0,0.0,0.0,0.0
1606989684066844304,2989688,1606986082602026810,imu_link,0.012407761998474598,0.004267621319741011,0.9306274652481079,0.36573269963264465,0.0,0.0,0.0,0.0,0.0,0.0,0.0,0.0,0.0,137.0810089111328,-1.1444097757339478,0.9753572344779968,0.0,0.0,0.0,0.0,0.0,0.0,0.0,0.0,0.0,0.019252806901931763,-0.00931128952652216,0.054876115173101425,0.0,0.0,0.0,0.0,0.0,0.0,0.0,0.0,0.0
1606989684066863921,2989689,1606986082602109752,imu_link,0.012407483533024788,0.004269162658601999,0.9306287169456482,0.3657296299934387,0.0,0.0,0.0,0.0,0.0,0.0,0.0,0.0,0.0,137.08139038085938,-1.144318699836731,0.9755062460899353,0.0,0.0,0.0,0.0,0.0,0.0,0.0,0.0,0.0,0.017717324197292328,-0.0016059966292232275,0.04480154812335968,0.0,0.0,0.0,0.0,0.0,0.0,0.0,0.0,0.0
1606989684066875536,2989690,1606986082602182541,imu_link,0.012407483533024788,0.004269162658601999,0.9306287169456482,0.3657296299934387,0.0,0.0,0.0,0.0,0.0,0.0,0.0,0.0,0.0,137.08139038085938,-1.144318699836731,0.9755062460899353,0.0,0.0,0.0,0.0,0.0,0.0,0.0,0.0,0.0,0.017717324197292328,-0.0016059966292232275,0.04480154812335968,0.0,0.0,0.0,0.0,0.0,0.0,0.0,0.0,0.0
1606989684066884179,2989691,1606986082602261789,imu_link,0.012406055815517902,0.00426891352981329,0.9306279420852661,0.3657315969467163,0.0,0.0,0.0,0.0,0.0,0.0,0.0,0.0,0.0,137.08114624023438,-1.1441748142242432,0.9754221439361572,0.0,0.0,0.0,0.0,0.0,0.0,0.0,0.0,0.0,-0.011478872038424015,-0.0024851958733052015,0.007243458181619644,0.0,0.0,0.0,0.0,0.0,0.0,0.0,0.0,0.0
1606989684113950989,2989692,1606986082602337539,imu_link,0.012406055815517902,0.00426891352981329,0.9306279420852661,0.3657315969467163,0.0,0.0,0.0,0.0,0.0,0.0,0.0,0.0,0.0,137.08114624023438,-1.1441748142242432,0.9754221439361572,0.0,0.0,0.0,0.0,0.0,0.0,0.0,0.0,0.0,-0.011478872038424015,-0.0024851958733052015,0.007243458181619644,0.0,0.0,0.0,0.0,0.0,0.0,0.0,0.0,0.0
1606989684113977170,2989693,1606986082614782827,imu_link,0.012408261187374592,0.0042686122469604015,0.9306285977363586,0.3657296895980835,0.0,0.0,0.0,0.0,0.0,0.0,0.0,0.0,0.0,137.08139038085938,-1.1444244384765625,0.9754801988601685,0.0,0.0,0.0,0.0,0.0,0.0,0.0,0.0,0.0,-0.012181778438389301,-0.004805781412869692,-0.00351464725099504,0.0,0.0,0.0,0.0,0.0,0.0,0.0,0.0,0.0
1606989684113990331,2989694,1606986082614922500,imu_link,0.012408261187374592,0.0042686122469604015,0.9306285977363586,0.3657296895980835,0.0,0.0,0.0,0.0,0.0,0.0,0.0,0.0,0.0,137.08139038085938,-1.1444244384765625,0.9754801988601685,0.0,0.0,0.0,0.0,0.0,0.0,0.0,0.0,0.0,-0.012181778438389301,-0.004805781412869692,-0.00351464725099504,0.0,0.0,0.0,0.0,0.0,0.0,0.0,0.0,0.0
1606989684114005441,2989695,1606986082615094573,imu_link,0.012406792491674423,0.004266984295099974,0.930628776550293,0.3657293915748596,0.0,0.0,0.0,0.0,0.0,0.0,0.0,0.0,0.0,137.0814208984375,-1.1443365812301636,0.9752445816993713,0.0,0.0,0.0,0.0,0.0,0.0,0.0,0.0,0.0,-0.008906845934689045,0.019785011187195778,0.03552752733230591,0.0,0.0,0.0,0.0,0.0,0.0,0.0,0.0,0.0
1606989684121345700,2989696,1606986082615190711,imu_link,0.012406792491674423,0.004266984295099974,0.930628776550293,0.3657293915748596,0.0,0.0,0.0,0.0,0.0,0.0,0.0,0.0,0.0,137.0814208984375,-1.1443365812301636,0.9752445816993713,0.0,0.0,0.0,0.0,0.0,0.0,0.0,0.0,0.0,-0.008906845934689045,0.019785011187195778,0.03552752733230591,0.0,0.0,0.0,0.0,0.0,0.0,0.0,0.0,0.0
1606989684121422665,2989697,1606986082615382334,imu_link,0.012408495880663395,0.00426452187821269,0.9306290745735168,0.3657286763191223,0.0,0.0,0.0,0.0,0.0,0.0,0.0,0.0,0.0,137.08151245117188,-1.1446220874786377,0.9750524759292603,0.0,0.0,0.0,0.0,0.0,0.0,0.0,0.0,0.0,-0.00669950433075428,0.027207139879465103,0.05464428663253784,0.0,0.0,0.0,0.0,0.0,0.0,0.0,0.0,0.0
1606989684121444028,2989698,1606986082615500107,imu_link,0.012408495880663395,0.00426452187821269,0.9306290745735168,0.3657286763191223,0.0,0.0,0.0,0.0,0.0,0.0,0.0,0.0,0.0,137.08151245117188,-1.1446220874786377,0.9750524759292603,0.0,0.0,0.0,0.0,0.0,0.0,0.0,0.0,0.0,-0.00669950433075428,0.027207139879465103,0.05464428663253784,0.0,0.0,0.0,0.0,0.0,0.0,0.0,0.0,0.0
1606989684121488671,2989699,1606986082615581715,imu_link,0.012407449074089527,0.004265220370143652,0.9306298494338989,0.36572667956352234,0.0,0.0,0.0,0.0,0.0,0.0,0.0,0.0,0.0,137.08175659179688,-1.1444833278656006,0.9750806093215942,0.0,0.0,0.0,0.0,0.0,0.0,0.0,0.0,0.0,0.0024214237928390503,0.00922735407948494,0.05007624253630638,0.0,0.0,0.0,0.0,0.0,0.0,0.0,0.0,0.0
1606989684121500154,2989700,1606986082615744392,imu_link,0.012407449074089527,0.004265220370143652,0.9306298494338989,0.36572667956352234,0.0,0.0,0.0,0.0,0.0,0.0,0.0,0.0,0.0,137.08175659179688,-1.1444833278656006,0.9750806093215942,0.0,0.0,0.0,0.0,0.0,0.0,0.0,0.0,0.0,0.0024214237928390503,0.00922735407948494,0.05007624253630638,0.0,0.0,0.0,0.0,0.0,0.0,0.0,0.0,0.0
1606989684127958817,2989701,1606986082615828963,imu_link,0.012405553832650185,0.004261883441358805,0.9306278228759766,0.3657319247722626,0.0,0.0,0.0,0.0,0.0,0.0,0.0,0.0,0.0,137.08111572265625,-1.1444154977798462,0.9746516942977905,0.0,0.0,0.0,0.0,0.0,0.0,0.0,0.0,0.0,0.006645511370152235,0.006484829820692539,0.06319139897823334,0.0,0.0,0.0,0.0,0.0,0.0,0.0,0.0,0.0
1606989684127984949,2989702,1606986082615917929,imu_link,0.012405553832650185,0.004261883441358805,0.9306278228759766,0.3657319247722626,0.0,0.0,0.0,0.0,0.0,0.0,0.0,0.0,0.0,137.08111572265625,-1.1444154977798462,0.9746516942977905,0.0,0.0,0.0,0.0,0.0,0.0,0.0,0.0,0.0,0.006645511370152235,0.006484829820692539,0.06319139897823334,0.0,0.0,0.0,0.0,0.0,0.0,0.0,0.0,0.0
1606989684128009706,2989703,1606986082616002038,imu_link,0.01240469142794609,0.004261516500264406,0.9306275844573975,0.3657326102256775,0.0,0.0,0.0,0.0,0.0,0.0,0.0,0.0,0.0,137.08103942871094,-1.1443383693695068,0.974577009677887,0.0,0.0,0.0,0.0,0.0,0.0,0.0,0.0,0.0,0.0027100867591798306,0.010355009697377682,0.06042328476905823,0.0,0.0,0.0,0.0,0.0,0.0,0.0,0.0,0.0
1606989684128019885,2989704,1606986082627628420,imu_link,0.01240469142794609,0.004261516500264406,0.9306275844573975,0.3657326102256775,0.0,0.0,0.0,0.0,0.0,0.0,0.0,0.0,0.0,137.08103942871094,-1.1443383693695068,0.974577009677887,0.0,0.0,0.0,0.0,0.0,0.0,0.0,0.0,0.0,0.0027100867591798306,0.010355009697377682,0.06042328476905823,0.0,0.0,0.0,0.0,0.0,0.0,0.0,0.0,0.0
1606989684132643634,2989705,1606986082627759664,imu_link,0.01240421924740076,0.004258479457348585,0.9306266903877258,0.36573490500450134,0.0,0.0,0.0,0.0,0.0,0.0,0.0,0.0,0.0,137.08074951171875,-1.144412875175476,0.9742361307144165,0.0,0.0,0.0,0.0,0.0,0.0,0.0,0.0,0.0,-0.004635566379874945,-0.002255135914310813,0.0504278838634491,0.0,0.0,0.0,0.0,0.0,0.0,0.0,0.0,0.0
1606989684132682510,2989706,1606986082627929342,imu_link,0.01240421924740076,0.004258479457348585,0.9306266903877258,0.36573490500450134,0.0,0.0,0.0,0.0,0.0,0.0,0.0,0.0,0.0,137.08074951171875,-1.144412875175476,0.9742361307144165,0.0,0.0,0.0,0.0,0.0,0.0,0.0,0.0,0.0,-0.004635566379874945,-0.002255135914310813,0.0504278838634491,0.0,0.0,0.0,0.0,0.0,0.0,0.0,0.0,0.0
1606989684132702947,2989707,1606986082628018157,imu_link,0.012402326799929142,0.004259026609361172,0.9306268095970154,0.3657345473766327,0.0,0.0,0.0,0.0,0.0,0.0,0.0,0.0,0.0,137.08079528808594,-1.144188404083252,0.9742147922515869,0.0,0.0,0.0,0.0,0.0,0.0,0.0,0.0,0.0,-0.008840739727020264,-0.0002729445113800466,0.04673369601368904,0.0,0.0,0.0,0.0,0.0,0.0,0.0,0.0,0.0
1606989684132713128,2989708,1606986082628165954,imu_link,0.012402326799929142,0.004259026609361172,0.9306268095970154,0.3657345473766327,0.0,0.0,0.0,0.0,0.0,0.0,0.0,0.0,0.0,137.08079528808594,-1.144188404083252,0.9742147922515869,0.0,0.0,0.0,0.0,0.0,0.0,0.0,0.0,0.0,-0.008840739727020264,-0.0002729445113800466,0.04673369601368904,0.0,0.0,0.0,0.0,0.0,0.0,0.0,0.0,0.0
1606989684185305277,2989709,1606986082628276425,imu_link,0.012404241599142551,0.0042598554864525795,0.9306277632713318,0.36573219299316406,0.0,0.0,0.0,0.0,0.0,0.0,0.0,0.0,0.0,137.0811004638672,-1.1443603038787842,0.9743807315826416,0.0,0.0,0.0,0.0,0.0,0.0,0.0,0.0,0.0,-0.005088984500616789,0.002797731664031744,0.05293254181742668,0.0,0.0,0.0,0.0,0.0,0.0,0.0,0.0,0.0
1606989684185330842,2989710,1606986082628355072,imu_link,0.012404241599142551,0.0042598554864525795,0.9306277632713318,0.36573219299316406,0.0,0.0,0.0,0.0,0.0,0.0,0.0,0.0,0.0,137.0811004638672,-1.1443603038787842,0.9743807315826416,0.0,0.0,0.0,0.0,0.0,0.0,0.0,0.0,0.0,-0.005088984500616789,0.002797731664031744,0.05293254181742668,0.0,0.0,0.0,0.0,0.0,0.0,0.0,0.0,0.0
1606989684185345694,2989711,1606986082628439963,imu_link,0.01240360364317894,0.0042601474560797215,0.9306279420852661,0.36573174595832825,0.0,0.0,0.0,0.0,0.0,0.0,0.0,0.0,0.0,137.0811309814453,-1.1442806720733643,0.9743844866752625,0.0,0.0,0.0,0.0,0.0,0.0,0.0,0.0,0.0,-0.015704801306128502,0.0014394490281119943,0.06975113600492477,0.0,0.0,0.0,0.0,0.0,0.0,0.0,0.0,0.0
1606989684185351948,2989712,1606986082628520685,imu_link,0.01240360364317894,0.0042601474560797215,0.9306279420852661,0.36573174595832825,0.0,0.0,0.0,0.0,0.0,0.0,0.0,0.0,0.0,137.0811309814453,-1.1442806720733643,0.9743844866752625,0.0,0.0,0.0,0.0,0.0,0.0,0.0,0.0,0.0,-0.015704801306128502,0.0014394490281119943,0.06975113600492477,0.0,0.0,0.0,0.0,0.0,0.0,0.0,0.0,0.0
1606989684185360404,2989713,1606986082628594556,imu_link,0.012406939640641212,0.004256805870682001,0.9306287169456482,0.36572974920272827,0.0,0.0,0.0,0.0,0.0,0.0,0.0,0.0,0.0,137.08139038085938,-1.1447786092758179,0.9741656184196472,0.0,0.0,0.0,0.0,0.0,0.0,0.0,0.0,0.0,-0.021651729941368103,0.0006727270083501935,0.06687043607234955,0.0,0.0,0.0,0.0,0.0,0.0,0.0,0.0,0.0
1606989684191578937,2989714,1606986082641473221,imu_link,0.012406939640641212,0.004256805870682001,0.9306287169456482,0.36572974920272827,0.0,0.0,0.0,0.0,0.0,0.0,0.0,0.0,0.0,137.08139038085938,-1.1447786092758179,0.9741656184196472,0.0,0.0,0.0,0.0,0.0,0.0,0.0,0.0,0.0,-0.021651729941368103,0.0006727270083501935,0.06687043607234955,0.0,0.0,0.0,0.0,0.0,0.0,0.0,0.0,0.0
1606989684191597997,2989715,1606986082641623504,imu_link,0.012405911460518837,0.0042572845704853535,0.9306283593177795,0.3657306432723999,0.0,0.0,0.0,0.0,0.0,0.0,0.0,0.0,0.0,137.08126831054688,-1.1446478366851807,0.974174439907074,0.0,0.0,0.0,0.0,0.0,0.0,0.0,0.0,0.0,0.005235360935330391,-0.0066653061658144,0.05700942128896713,0.0,0.0,0.0,0.0,0.0,0.0,0.0,0.0,0.0
1606989684191619703,2989716,1606986082641762581,imu_link,0.012405911460518837,0.0042572845704853535,0.9306283593177795,0.3657306432723999,0.0,0.0,0.0,0.0,0.0,0.0,0.0,0.0,0.0,137.08126831054688,-1.1446478366851807,0.974174439907074,0.0,0.0,0.0,0.0,0.0,0.0,0.0,0.0,0.0,0.005235360935330391,-0.0066653061658144,0.05700942128896713,0.0,0.0,0.0,0.0,0.0,0.0,0.0,0.0,0.0
1606989684191632751,2989717,1606986082641863399,imu_link,0.012405859306454659,0.004259732086211443,0.9306241273880005,0.3657412827014923,0.0,0.0,0.0,0.0,0.0,0.0,0.0,0.0,0.0,137.0799560546875,-1.1445285081863403,0.974446713924408,0.0,0.0,0.0,0.0,0.0,0.0,0.0,0.0,0.0,0.011511607095599174,0.010534973815083504,0.056533295661211014,0.0,0.0,0.0,0.0,0.0,0.0,0.0,0.0,0.0
1606989684227733975,2989718,1606986082641950195,imu_link,0.012405859306454659,0.004259732086211443,0.9306241273880005,0.3657412827014923,0.0,0.0,0.0,0.0,0.0,0.0,0.0,0.0,0.0,137.0799560546875,-1.1445285081863403,0.974446713924408,0.0,0.0,0.0,0.0,0.0,0.0,0.0,0.0,0.0,0.011511607095599174,0.010534973815083504,0.056533295661211014,0.0,0.0,0.0,0.0,0.0,0.0,0.0,0.0,0.0
1606989684227778689,2989719,1606986082642033568,imu_link,0.01240512728691101,0.004260326270014048,0.9306246042251587,0.36574018001556396,0.0,0.0,0.0,0.0,0.0,0.0,0.0,0.0,0.0,137.08010864257812,-1.144426703453064,0.9744777679443359,0.0,0.0,0.0,0.0,0.0,0.0,0.0,0.0,0.0,0.002037815283983946,0.005858235526829958,0.053002357482910156,0.0,0.0,0.0,0.0,0.0,0.0,0.0,0.0,0.0
1606989684227801670,2989720,1606986082642130277,imu_link,0.01240512728691101,0.004260326270014048,0.9306246042251587,0.36574018001556396,0.0,0.0,0.0,0.0,0.0,0.0,0.0,0.0,0.0,137.08010864257812,-1.144426703453064,0.9744777679443359,0.0,0.0,0.0,0.0,0.0,0.0,0.0,0.0,0.0,0.002037815283983946,0.005858235526829958,0.053002357482910156,0.0,0.0,0.0,0.0,0.0,0.0,0.0,0.0,0.0
1606989684227816338,2989721,1606986082642212066,imu_link,0.012404768727719784,0.004262125119566917,0.9306217432022095,0.36574748158454895,0.0,0.0,0.0,0.0,0.0,0.0,0.0,0.0,0.0,137.07919311523438,-1.1443054676055908,0.9746635556221008,0.0,0.0,0.0,0.0,0.0,0.0,0.0,0.0,0.0,0.0031061924528330564,-0.017384355887770653,0.027364583685994148,0.0,0.0,0.0,0.0,0.0,0.0,0.0,0.0,0.0
1606989684227840285,2989722,1606986082642380025,imu_link,0.012404768727719784,0.004262125119566917,0.9306217432022095,0.36574748158454895,0.0,0.0,0.0,0.0,0.0,0.0,0.0,0.0,0.0,137.07919311523438,-1.1443054676055908,0.9746635556221008,0.0,0.0,0.0,0.0,0.0,0.0,0.0,0.0,0.0,0.0031061924528330564,-0.017384355887770653,0.027364583685994148,0.0,0.0,0.0,0.0,0.0,0.0,0.0,0.0,0.0
1606989684234365482,2989723,1606986082642468760,imu_link,0.012405217625200748,0.004261743277311325,0.9306212067604065,0.3657488524913788,0.0,0.0,0.0,0.0,0.0,0.0,0.0,0.0,0.0,137.07904052734375,-1.1443679332733154,0.9746434092521667,0.0,0.0,0.0,0.0,0.0,0.0,0.0,0.0,0.0,0.0051499465480446815,-0.015082409605383873,0.026023387908935547,0.0,0.0,0.0,0.0,0.0,0.0,0.0,0.0,0.0
1606989684234396369,2989724,1606986082642545378,imu_link,0.012405217625200748,0.004261743277311325,0.9306212067604065,0.3657488524913788,0.0,0.0,0.0,0.0,0.0,0.0,0.0,0.0,0.0,137.07904052734375,-1.1443679332733154,0.9746434092521667,0.0,0.0,0.0,0.0,0.0,0.0,0.0,0.0,0.0,0.0051499465480446815,-0.015082409605383873,0.026023387908935547,0.0,0.0,0.0,0.0,0.0,0.0,0.0,0.0,0.0
1606989684234438461,2989725,1606986082654968448,imu_link,0.01240469142794609,0.004266117233783007,0.9306194186210632,0.3657533526420593,0.0,0.0,0.0,0.0,0.0,0.0,0.0,0.0,0.0,137.07847595214844,-1.1441236734390259,0.975093424320221,0.0,0.0,0.0,0.0,0.0,0.0,0.0,0.0,0.0,0.015364507213234901,0.006623912137001753,0.06631285697221756,0.0,0.0,0.0,0.0,0.0,0.0,0.0,0.0,0.0
1606989684234463803,2989726,1606986082655155386,imu_link,0.01240469142794609,0.004266117233783007,0.9306194186210632,0.3657533526420593,0.0,0.0,0.0,0.0,0.0,0.0,0.0,0.0,0.0,137.07847595214844,-1.1441236734390259,0.975093424320221,0.0,0.0,0.0,0.0,0.0,0.0,0.0,0.0,0.0,0.015364507213234901,0.006623912137001753,0.06631285697221756,0.0,0.0,0.0,0.0,0.0,0.0,0.0,0.0,0.0
1606989684297185701,2989727,1606986082655247028,imu_link,0.012404589913785458,0.004267035983502865,0.9306195974349976,0.36575284600257874,0.0,0.0,0.0,0.0,0.0,0.0,0.0,0.0,0.0,137.0785369873047,-1.1440749168395996,0.9751865863800049,0.0,0.0,0.0,0.0,0.0,0.0,0.0,0.0,0.0,0.019666288048028946,0.017561834305524826,0.07338465750217438,0.0,0.0,0.0,0.0,0.0,0.0,0.0,0.0,0.0
1606989684297228479,2989728,1606986082655337583,imu_link,0.012404589913785458,0.004267035983502865,0.9306195974349976,0.36575284600257874,0.0,0.0,0.0,0.0,0.0,0.0,0.0,0.0,0.0,137.0785369873047,-1.1440749168395996,0.9751865863800049,0.0,0.0,0.0,0.0,0.0,0.0,0.0,0.0,0.0,0.019666288048028946,0.017561834305524826,0.07338465750217438,0.0,0.0,0.0,0.0,0.0,0.0,0.0,0.0,0.0
1606989684297250809,2989729,1606986082655428829,imu_link,0.012400098145008087,0.004265575669705868,0.930618166923523,0.365756630897522,0.0,0.0,0.0,0.0,0.0,0.0,0.0,0.0,0.0,137.0780792236328,-1.143653154373169,0.9748468995094299,0.0,0.0,0.0,0.0,0.0,0.0,0.0,0.0,0.0,-0.0016466547967866063,0.02248401567339897,0.05010557174682617,0.0,0.0,0.0,0.0,0.0,0.0,0.0,0.0,0.0
1606989684297261615,2989730,1606986082655512202,imu_link,0.012400098145008087,0.004265575669705868,0.930618166923523,0.365756630897522,0.0,0.0,0.0,0.0,0.0,0.0,0.0,0.0,0.0,137.0780792236328,-1.143653154373169,0.9748468995094299,0.0,0.0,0.0,0.0,0.0,0.0,0.0,0.0,0.0,-0.0016466547967866063,0.02248401567339897,0.05010557174682617,0.0,0.0,0.0,0.0,0.0,0.0,0.0,0.0,0.0
1606989684297272774,2989731,1606986082655627373,imu_link,0.012402092106640339,0.004266373347491026,0.9306171536445618,0.3657591938972473,0.0,0.0,0.0,0.0,0.0,0.0,0.0,0.0,0.0,137.0777587890625,-1.143829584121704,0.9750188589096069,0.0,0.0,0.0,0.0,0.0,0.0,0.0,0.0,0.0,-0.0035304413177073,0.029840761795639992,0.05909335985779762,0.0,0.0,0.0,0.0,0.0,0.0,0.0,0.0,0.0
1606989684307539933,2989732,1606986082655715442,imu_link,0.012402092106640339,0.004266373347491026,0.9306171536445618,0.3657591938972473,0.0,0.0,0.0,0.0,0.0,0.0,0.0,0.0,0.0,137.0777587890625,-1.143829584121704,0.9750188589096069,0.0,0.0,0.0,0.0,0.0,0.0,0.0,0.0,0.0,-0.0035304413177073,0.029840761795639992,0.05909335985779762,0.0,0.0,0.0,0.0,0.0,0.0,0.0,0.0,0.0
1606989684307572007,2989733,1606986082655795262,imu_link,0.012398878112435341,0.0042604063637554646,0.9306197762489319,0.3657526969909668,0.0,0.0,0.0,0.0,0.0,0.0,0.0,0.0,0.0,137.0785675048828,-1.143743872642517,0.9742395877838135,0.0,0.0,0.0,0.0,0.0,0.0,0.0,0.0,0.0,0.017864443361759186,0.005649476777762175,0.05547846853733063,0.0,0.0,0.0,0.0,0.0,0.0,0.0,0.0,0.0
1606989684307588364,2989734,1606986082655876465,imu_link,0.012398878112435341,0.0042604063637554646,0.9306197762489319,0.3657526969909668,0.0,0.0,0.0,0.0,0.0,0.0,0.0,0.0,0.0,137.0785675048828,-1.143743872642517,0.9742395877838135,0.0,0.0,0.0,0.0,0.0,0.0,0.0,0.0,0.0,0.017864443361759186,0.005649476777762175,0.05547846853733063,0.0,0.0,0.0,0.0,0.0,0.0,0.0,0.0,0.0
1606989684307603580,2989735,1606986082655961672,imu_link,0.012397624552249908,0.0042592380195856094,0.9306207299232483,0.36575037240982056,0.0,0.0,0.0,0.0,0.0,0.0,0.0,0.0,0.0,137.07887268066406,-1.1436617374420166,0.974059522151947,0.0,0.0,0.0,0.0,0.0,0.0,0.0,0.0,0.0,0.026277044788002968,0.0006338577950373292,0.04480448365211487,0.0,0.0,0.0,0.0,0.0,0.0,0.0,0.0,0.0
1606989684314731119,2989736,1606986082668866903,imu_link,0.012397624552249908,0.0042592380195856094,0.9306207299232483,0.36575037240982056,0.0,0.0,0.0,0.0,0.0,0.0,0.0,0.0,0.0,137.07887268066406,-1.1436617374420166,0.974059522151947,0.0,0.0,0.0,0.0,0.0,0.0,0.0,0.0,0.0,0.026277044788002968,0.0006338577950373292,0.04480448365211487,0.0,0.0,0.0,0.0,0.0,0.0,0.0,0.0,0.0
1606989684314771255,2989737,1606986082669020704,imu_link,0.012393954209983349,0.004260702058672905,0.9306229948997498,0.3657446801662445,0.0,0.0,0.0,0.0,0.0,0.0,0.0,0.0,0.0,137.07955932617188,-1.1432148218154907,0.9740546941757202,0.0,0.0,0.0,0.0,0.0,0.0,0.0,0.0,0.0,0.015092373825609684,0.012636972591280937,0.03934022784233093,0.0,0.0,0.0,0.0,0.0,0.0,0.0,0.0,0.0
1606989684314789769,2989738,1606986082669171318,imu_link,0.012393954209983349,0.004260702058672905,0.9306229948997498,0.3657446801662445,0.0,0.0,0.0,0.0,0.0,0.0,0.0,0.0,0.0,137.07955932617188,-1.1432148218154907,0.9740546941757202,0.0,0.0,0.0,0.0,0.0,0.0,0.0,0.0,0.0,0.015092373825609684,0.012636972591280937,0.03934022784233093,0.0,0.0,0.0,0.0,0.0,0.0,0.0,0.0,0.0
1606989684314802143,2989739,1606986082669262153,imu_link,0.012393954209983349,0.004260702058672905,0.9306229948997498,0.3657446801662445,0.0,0.0,0.0,0.0,0.0,0.0,0.0,0.0,0.0,137.07955932617188,-1.1432148218154907,0.9740546941757202,0.0,0.0,0.0,0.0,0.0,0.0,0.0,0.0,0.0,0.0033289955463260412,0.015222892165184021,0.04168231412768364,0.0,0.0,0.0,0.0,0.0,0.0,0.0,0.0,0.0
1606989684314829939,2989740,1606986082669338946,imu_link,0.012393954209983349,0.004260702058672905,0.9306229948997498,0.3657446801662445,0.0,0.0,0.0,0.0,0.0,0.0,0.0,0.0,0.0,137.07955932617188,-1.1432148218154907,0.9740546941757202,0.0,0.0,0.0,0.0,0.0,0.0,0.0,0.0,0.0,0.0033289955463260412,0.015222892165184021,0.04168231412768364,0.0,0.0,0.0,0.0,0.0,0.0,0.0,0.0,0.0
1606989684320430203,2989741,1606986082669420034,imu_link,0.012391097843647003,0.004256770480424166,0.9306195974349976,0.3657534420490265,0.0,0.0,0.0,0.0,0.0,0.0,0.0,0.0,0.0,137.07850646972656,-1.1430658102035522,0.9735262393951416,0.0,0.0,0.0,0.0,0.0,0.0,0.0,0.0,0.0,-0.01445454079657793,0.01596037670969963,0.051581040024757385,0.0,0.0,0.0,0.0,0.0,0.0,0.0,0.0,0.0
1606989684320463388,2989742,1606986082669514437,imu_link,0.012391097843647003,0.004256770480424166,0.9306195974349976,0.3657534420490265,0.0,0.0,0.0,0.0,0.0,0.0,0.0,0.0,0.0,137.07850646972656,-1.1430658102035522,0.9735262393951416,0.0,0.0,0.0,0.0,0.0,0.0,0.0,0.0,0.0,-0.01445454079657793,0.01596037670969963,0.051581040024757385,0.0,0.0,0.0,0.0,0.0,0.0,0.0,0.0,0.0
1606989684320473094,2989743,1606986082669595064,imu_link,0.012392784468829632,0.004256086889654398,0.9306198358535767,0.36575254797935486,0.0,0.0,0.0,0.0,0.0,0.0,0.0,0.0,0.0,137.07859802246094,-1.1432751417160034,0.9735231399536133,0.0,0.0,0.0,0.0,0.0,0.0,0.0,0.0,0.0,-0.025981569662690163,0.00025898031890392303,0.054935209453105927,0.0,0.0,0.0,0.0,0.0,0.0,0.0,0.0,0.0
1606989684320483569,2989744,1606986082669760321,imu_link,0.012392784468829632,0.004256086889654398,0.9306198358535767,0.36575254797935486,0.0,0.0,0.0,0.0,0.0,0.0,0.0,0.0,0.0,137.07859802246094,-1.1432751417160034,0.9735231399536133,0.0,0.0,0.0,0.0,0.0,0.0,0.0,0.0,0.0,-0.025981569662690163,0.00025898031890392303,0.054935209453105927,0.0,0.0,0.0,0.0,0.0,0.0,0.0,0.0,0.0
1606989684364918755,2989745,1606986082669844426,imu_link,0.01239701732993126,0.004253315273672342,0.930617094039917,0.36575961112976074,0.0,0.0,0.0,0.0,0.0,0.0,0.0,0.0,0.0,137.07774353027344,-1.1438355445861816,0.9734137654304504,0.0,0.0,0.0,0.0,0.0,0.0,0.0,0.0,0.0,-0.017194749787449837,0.0009538622107356787,0.04033132642507553,0.0,0.0,0.0,0.0,0.0,0.0,0.0,0.0,0.0
1606989684364952635,2989746,1606986082669924220,imu_link,0.01239701732993126,0.004253315273672342,0.930617094039917,0.36575961112976074,0.0,0.0,0.0,0.0,0.0,0.0,0.0,0.0,0.0,137.07774353027344,-1.1438355445861816,0.9734137654304504,0.0,0.0,0.0,0.0,0.0,0.0,0.0,0.0,0.0,-0.017194749787449837,0.0009538622107356787,0.04033132642507553,0.0,0.0,0.0,0.0,0.0,0.0,0.0,0.0,0.0
1606989684364964685,2989747,1606986082682181177,imu_link,0.012395198456943035,0.004253151826560497,0.9306174516677856,0.3657587766647339,0.0,0.0,0.0,0.0,0.0,0.0,0.0,0.0,0.0,137.07785034179688,-1.1436493396759033,0.9733189940452576,0.0,0.0,0.0,0.0,0.0,0.0,0.0,0.0,0.0,-0.017484739422798157,0.018591176718473434,0.0426466129720211,0.0,0.0,0.0,0.0,0.0,0.0,0.0,0.0,0.0
1606989684364984110,2989748,1606986082682374439,imu_link,0.012395198456943035,0.004253151826560497,0.9306174516677856,0.3657587766647339,0.0,0.0,0.0,0.0,0.0,0.0,0.0,0.0,0.0,137.07785034179688,-1.1436493396759033,0.9733189940452576,0.0,0.0,0.0,0.0,0.0,0.0,0.0,0.0,0.0,-0.017484739422798157,0.018591176718473434,0.0426466129720211,0.0,0.0,0.0,0.0,0.0,0.0,0.0,0.0,0.0
1606989684364999265,2989749,1606986082682474050,imu_link,0.0123950419947505,0.004251445643603802,0.9306135177612305,0.3657688498497009,0.0,0.0,0.0,0.0,0.0,0.0,0.0,0.0,0.0,137.07659912109375,-1.1436936855316162,0.973142683506012,0.0,0.0,0.0,0.0,0.0,0.0,0.0,0.0,0.0,-0.022022385150194168,0.019928868860006332,0.02871076576411724,0.0,0.0,0.0,0.0,0.0,0.0,0.0,0.0,0.0
1606989684370983014,2989750,1606986082682597139,imu_link,0.0123950419947505,0.004251445643603802,0.9306135177612305,0.3657688498497009,0.0,0.0,0.0,0.0,0.0,0.0,0.0,0.0,0.0,137.07659912109375,-1.1436936855316162,0.973142683506012,0.0,0.0,0.0,0.0,0.0,0.0,0.0,0.0,0.0,-0.022022385150194168,0.019928868860006332,0.02871076576411724,0.0,0.0,0.0,0.0,0.0,0.0,0.0,0.0,0.0
1606989684371019219,2989751,1606986082682742997,imu_link,0.012395855039358139,0.004252689424902201,0.9306128621101379,0.3657703995704651,0.0,0.0,0.0,0.0,0.0,0.0,0.0,0.0,0.0,137.07640075683594,-1.1437265872955322,0.9733114838600159,0.0,0.0,0.0,0.0,0.0,0.0,0.0,0.0,0.0,-0.020851807668805122,0.016415441408753395,0.022519312798976898,0.0,0.0,0.0,0.0,0.0,0.0,0.0,0.0,0.0
1606989684371082762,2989752,1606986082682906385,imu_link,0.012395855039358139,0.004252689424902201,0.9306128621101379,0.3657703995704651,0.0,0.0,0.0,0.0,0.0,0.0,0.0,0.0,0.0,137.07640075683594,-1.1437265872955322,0.9733114838600159,0.0,0.0,0.0,0.0,0.0,0.0,0.0,0.0,0.0,-0.020851807668805122,0.016415441408753395,0.022519312798976898,0.0,0.0,0.0,0.0,0.0,0.0,0.0,0.0,0.0
1606989684371098685,2989753,1606986082683093874,imu_link,0.012398429214954376,0.004246507305651903,0.9306091070175171,0.36577996611595154,0.0,0.0,0.0,0.0,0.0,0.0,0.0,0.0,0.0,137.07522583007812,-1.1442502737045288,0.9727718234062195,0.0,0.0,0.0,0.0,0.0,0.0,0.0,0.0,0.0,-0.016142360866069794,0.005216134712100029,0.04313918575644493,0.0,0.0,0.0,0.0,0.0,0.0,0.0,0.0,0.0
1606989684411623582,2989754,1606986082683242879,imu_link,0.012398429214954376,0.004246507305651903,0.9306091070175171,0.36577996611595154,0.0,0.0,0.0,0.0,0.0,0.0,0.0,0.0,0.0,137.07522583007812,-1.1442502737045288,0.9727718234062195,0.0,0.0,0.0,0.0,0.0,0.0,0.0,0.0,0.0,-0.016142360866069794,0.005216134712100029,0.04313918575644493,0.0,0.0,0.0,0.0,0.0,0.0,0.0,0.0,0.0
1606989684411665894,2989755,1606986082683387108,imu_link,0.012399249710142612,0.004246958531439304,0.9306092262268066,0.36577969789505005,0.0,0.0,0.0,0.0,0.0,0.0,0.0,0.0,0.0,137.07525634765625,-1.1443190574645996,0.9728540182113647,0.0,0.0,0.0,0.0,0.0,0.0,0.0,0.0,0.0,-0.005981901194900274,0.004310680087655783,0.05462667718529701,0.0,0.0,0.0,0.0,0.0,0.0,0.0,0.0,0.0
1606989684411705314,2989756,1606986082683530104,imu_link,0.012399249710142612,0.004246958531439304,0.9306092262268066,0.36577969789505005,0.0,0.0,0.0,0.0,0.0,0.0,0.0,0.0,0.0,137.07525634765625,-1.1443190574645996,0.9728540182113647,0.0,0.0,0.0,0.0,0.0,0.0,0.0,0.0,0.0,-0.005981901194900274,0.004310680087655783,0.05462667718529701,0.0,0.0,0.0,0.0,0.0,0.0,0.0,0.0,0.0
1606989684411722370,2989757,1606986082683687623,imu_link,0.012400712817907333,0.00424644909799099,0.9306098222732544,0.36577823758125305,0.0,0.0,0.0,0.0,0.0,0.0,0.0,0.0,0.0,137.075439453125,-1.1444979906082153,0.9728591442108154,0.0,0.0,0.0,0.0,0.0,0.0,0.0,0.0,0.0,-0.000415884074755013,0.011496901512145996,0.059423912316560745,0.0,0.0,0.0,0.0,0.0,0.0,0.0,0.0,0.0
1606989684411734996,2989758,1606986082695040517,imu_link,0.012400712817907333,0.00424644909799099,0.9306098222732544,0.36577823758125305,0.0,0.0,0.0,0.0,0.0,0.0,0.0,0.0,0.0,137.075439453125,-1.1444979906082153,0.9728591442108154,0.0,0.0,0.0,0.0,0.0,0.0,0.0,0.0,0.0,-0.000415884074755013,0.011496901512145996,0.059423912316560745,0.0,0.0,0.0,0.0,0.0,0.0,0.0,0.0,0.0
1606989684417519223,2989759,1606986082695098661,imu_link,0.012401005253195763,0.004246644675731659,0.9306105971336365,0.3657762110233307,0.0,0.0,0.0,0.0,0.0,0.0,0.0,0.0,0.0,137.07568359375,-1.1445232629776,0.9728898406028748,0.0,0.0,0.0,0.0,0.0,0.0,0.0,0.0,0.0,0.00622430257499218,0.0026955006178468466,0.0601552315056324,0.0,0.0,0.0,0.0,0.0,0.0,0.0,0.0,0.0
1606989684417576312,2989760,1606986082695138386,imu_link,0.012401005253195763,0.004246644675731659,0.9306105971336365,0.3657762110233307,0.0,0.0,0.0,0.0,0.0,0.0,0.0,0.0,0.0,137.07568359375,-1.1445232629776,0.9728898406028748,0.0,0.0,0.0,0.0,0.0,0.0,0.0,0.0,0.0,0.00622430257499218,0.0026955006178468466,0.0601552315056324,0.0,0.0,0.0,0.0,0.0,0.0,0.0,0.0,0.0
1606989684417592097,2989761,1606986082695167972,imu_link,0.012400293722748756,0.004247972741723061,0.9306106567382812,0.36577579379081726,0.0,0.0,0.0,0.0,0.0,0.0,0.0,0.0,0.0,137.0757293701172,-1.1443918943405151,0.97300124168396,0.0,0.0,0.0,0.0,0.0,0.0,0.0,0.0,0.0,0.027460690587759018,-0.014461392536759377,0.06187596544623375,0.0,0.0,0.0,0.0,0.0,0.0,0.0,0.0,0.0
1606989684417643878,2989762,1606986082695199006,imu_link,0.012400293722748756,0.004247972741723061,0.9306106567382812,0.36577579379081726,0.0,0.0,0.0,0.0,0.0,0.0,0.0,0.0,0.0,137.0757293701172,-1.1443918943405151,0.97300124168396,0.0,0.0,0.0,0.0,0.0,0.0,0.0,0.0,0.0,0.027460690587759018,-0.014461392536759377,0.06187596544623375,0.0,0.0,0.0,0.0,0.0,0.0,0.0,0.0,0.0
1606989684495095373,2989763,1606986082695236350,imu_link,0.01240159198641777,0.00424747122451663,0.9306105971336365,0.365776002407074,0.0,0.0,0.0,0.0,0.0,0.0,0.0,0.0,0.0,137.07571411132812,-1.144551157951355,0.9730024337768555,0.0,0.0,0.0,0.0,0.0,0.0,0.0,0.0,0.0,-0.0028779504355043173,-0.01944148913025856,0.03689068183302879,0.0,0.0,0.0,0.0,0.0,0.0,0.0,0.0,0.0
1606989684495109981,2989764,1606986082695266703,imu_link,0.01240159198641777,0.00424747122451663,0.9306105971336365,0.365776002407074,0.0,0.0,0.0,0.0,0.0,0.0,0.0,0.0,0.0,137.07571411132812,-1.144551157951355,0.9730024337768555,0.0,0.0,0.0,0.0,0.0,0.0,0.0,0.0,0.0,-0.0028779504355043173,-0.01944148913025856,0.03689068183302879,0.0,0.0,0.0,0.0,0.0,0.0,0.0,0.0,0.0
1606989684495137407,2989765,1606986082695297370,imu_link,0.01240297220647335,0.004252245649695396,0.9306110739707947,0.3657747805118561,0.0,0.0,0.0,0.0,0.0,0.0,0.0,0.0,0.0,137.0758514404297,-1.1444995403289795,0.9735680818557739,0.0,0.0,0.0,0.0,0.0,0.0,0.0,0.0,0.0,-0.02633633278310299,-0.008897415362298489,0.029911871999502182,0.0,0.0,0.0,0.0,0.0,0.0,0.0,0.0,0.0
1606989684495144899,2989766,1606986082695325364,imu_link,0.01240297220647335,0.004252245649695396,0.9306110739707947,0.3657747805118561,0.0,0.0,0.0,0.0,0.0,0.0,0.0,0.0,0.0,137.0758514404297,-1.1444995403289795,0.9735680818557739,0.0,0.0,0.0,0.0,0.0,0.0,0.0,0.0,0.0,-0.02633633278310299,-0.008897415362298489,0.029911871999502182,0.0,0.0,0.0,0.0,0.0,0.0,0.0,0.0,0.0
1606989684495151959,2989767,1606986082695354555,imu_link,0.01240441296249628,0.004253809805959463,0.9306108355522156,0.36577534675598145,0.0,0.0,0.0,0.0,0.0,0.0,0.0,0.0,0.0,137.07579040527344,-1.1445869207382202,0.9737958908081055,0.0,0.0,0.0,0.0,0.0,0.0,0.0,0.0,0.0,-0.005861741956323385,-0.004172940272837877,0.052529409527778625,0.0,0.0,0.0,0.0,0.0,0.0,0.0,0.0,0.0
1606989684501304894,2989768,1606986082708922298,imu_link,0.01240441296249628,0.004253809805959463,0.9306108355522156,0.36577534675598145,0.0,0.0,0.0,0.0,0.0,0.0,0.0,0.0,0.0,137.07579040527344,-1.1445869207382202,0.9737958908081055,0.0,0.0,0.0,0.0,0.0,0.0,0.0,0.0,0.0,-0.005861741956323385,-0.004172940272837877,0.052529409527778625,0.0,0.0,0.0,0.0,0.0,0.0,0.0,0.0,0.0
1606989684501325141,2989769,1606986082709006387,imu_link,0.012403713539242744,0.00425361841917038,0.9306108951568604,0.36577510833740234,0.0,0.0,0.0,0.0,0.0,0.0,0.0,0.0,0.0,137.0758056640625,-1.14452064037323,0.9737460017204285,0.0,0.0,0.0,0.0,0.0,0.0,0.0,0.0,0.0,0.0013984058750793338,-0.005885488353669643,0.0558287613093853,0.0,0.0,0.0,0.0,0.0,0.0,0.0,0.0,0.0
1606989684501336346,2989770,1606986082709122410,imu_link,0.012403713539242744,0.00425361841917038,0.9306108951568604,0.36577510833740234,0.0,0.0,0.0,0.0,0.0,0.0,0.0,0.0,0.0,137.0758056640625,-1.14452064037323,0.9737460017204285,0.0,0.0,0.0,0.0,0.0,0.0,0.0,0.0,0.0,0.0013984058750793338,-0.005885488353669643,0.0558287613093853,0.0,0.0,0.0,0.0,0.0,0.0,0.0,0.0,0.0
1606989684501343222,2989771,1606986082709171578,imu_link,0.012401167303323746,0.004252794198691845,0.9306106567382812,0.36577582359313965,0.0,0.0,0.0,0.0,0.0,0.0,0.0,0.0,0.0,137.0757293701172,-1.1442829370498657,0.9735522866249084,0.0,0.0,0.0,0.0,0.0,0.0,0.0,0.0,0.0,0.010103628970682621,0.0013898711185902357,0.05443695932626724,0.0,0.0,0.0,0.0,0.0,0.0,0.0,0.0,0.0
1606989684508146617,2989772,1606986082709257680,imu_link,0.012401167303323746,0.004252794198691845,0.9306106567382812,0.36577582359313965,0.0,0.0,0.0,0.0,0.0,0.0,0.0,0.0,0.0,137.0757293701172,-1.1442829370498657,0.9735522866249084,0.0,0.0,0.0,0.0,0.0,0.0,0.0,0.0,0.0,0.010103628970682621,0.0013898711185902357,0.05443695932626724,0.0,0.0,0.0,0.0,0.0,0.0,0.0,0.0,0.0
1606989684508166330,2989773,1606986082709308417,imu_link,0.01239937823265791,0.004252851940691471,0.9306119680404663,0.365772545337677,0.0,0.0,0.0,0.0,0.0,0.0,0.0,0.0,0.0,137.07614135742188,-1.1440931558609009,0.973479151725769,0.0,0.0,0.0,0.0,0.0,0.0,0.0,0.0,0.0,0.009032176807522774,0.006460126489400864,0.06027369573712349,0.0,0.0,0.0,0.0,0.0,0.0,0.0,0.0,0.0
1606989684508174104,2989774,1606986082709365698,imu_link,0.01239937823265791,0.004252851940691471,0.9306119680404663,0.365772545337677,0.0,0.0,0.0,0.0,0.0,0.0,0.0,0.0,0.0,137.07614135742188,-1.1440931558609009,0.973479151725769,0.0,0.0,0.0,0.0,0.0,0.0,0.0,0.0,0.0,0.009032176807522774,0.006460126489400864,0.06027369573712349,0.0,0.0,0.0,0.0,0.0,0.0,0.0,0.0,0.0
1606989684508200401,2989775,1606986082709414205,imu_link,0.012398934923112392,0.0042532701045274734,0.9306117296218872,0.3657732307910919,0.0,0.0,0.0,0.0,0.0,0.0,0.0,0.0,0.0,137.0760498046875,-1.144027590751648,0.973505973815918,0.0,0.0,0.0,0.0,0.0,0.0,0.0,0.0,0.0,-0.012504289858043194,0.004284641705453396,0.03249853104352951,0.0,0.0,0.0,0.0,0.0,0.0,0.0,0.0,0.0
1606989684508209302,2989776,1606986082709460535,imu_link,0.012398934923112392,0.0042532701045274734,0.9306117296218872,0.3657732307910919,0.0,0.0,0.0,0.0,0.0,0.0,0.0,0.0,0.0,137.0760498046875,-1.144027590751648,0.973505973815918,0.0,0.0,0.0,0.0,0.0,0.0,0.0,0.0,0.0,-0.012504289858043194,0.004284641705453396,0.03249853104352951,0.0,0.0,0.0,0.0,0.0,0.0,0.0,0.0,0.0
1606989684515826339,2989777,1606986082709509276,imu_link,0.012399381026625633,0.004251215606927872,0.930611252784729,0.3657744228839874,0.0,0.0,0.0,0.0,0.0,0.0,0.0,0.0,0.0,137.07591247558594,-1.144160270690918,0.9733071327209473,0.0,0.0,0.0,0.0,0.0,0.0,0.0,0.0,0.0,-0.012328680604696274,0.008018558844923973,0.04045097157359123,0.0,0.0,0.0,0.0,0.0,0.0,0.0,0.0,0.0
1606989684515845848,2989778,1606986082709556039,imu_link,0.012399381026625633,0.004251215606927872,0.930611252784729,0.3657744228839874,0.0,0.0,0.0,0.0,0.0,0.0,0.0,0.0,0.0,137.07591247558594,-1.144160270690918,0.9733071327209473,0.0,0.0,0.0,0.0,0.0,0.0,0.0,0.0,0.0,-0.012328680604696274,0.008018558844923973,0.04045097157359123,0.0,0.0,0.0,0.0,0.0,0.0,0.0,0.0,0.0
1606989684515856503,2989779,1606986082722307560,imu_link,0.012400160543620586,0.004251210950314999,0.9306110143661499,0.3657749891281128,0.0,0.0,0.0,0.0,0.0,0.0,0.0,0.0,0.0,137.07583618164062,-1.1442428827285767,0.9733400940895081,0.0,0.0,0.0,0.0,0.0,0.0,0.0,0.0,0.0,0.0030730003491044044,0.0009955728892236948,0.06705578416585922,0.0,0.0,0.0,0.0,0.0,0.0,0.0,0.0,0.0
1606989684515868580,2989780,1606986082722390664,imu_link,0.012400160543620586,0.004251210950314999,0.9306110143661499,0.3657749891281128,0.0,0.0,0.0,0.0,0.0,0.0,0.0,0.0,0.0,137.07583618164062,-1.1442428827285767,0.9733400940895081,0.0,0.0,0.0,0.0,0.0,0.0,0.0,0.0,0.0,0.0030730003491044044,0.0009955728892236948,0.06705578416585922,0.0,0.0,0.0,0.0,0.0,0.0,0.0,0.0,0.0
1606989684526327037,2989781,1606986082722462536,imu_link,0.012399892322719097,0.00425135949626565,0.9306115508079529,0.3657737076282501,0.0,0.0,0.0,0.0,0.0,0.0,0.0,0.0,0.0,137.07598876953125,-1.1442095041275024,0.973343014717102,0.0,0.0,0.0,0.0,0.0,0.0,0.0,0.0,0.0,-0.007215469144284725,0.0006134160794317722,0.05369521677494049,0.0,0.0,0.0,0.0,0.0,0.0,0.0,0.0,0.0
1606989684526391873,2989782,1606986082722514041,imu_link,0.012399892322719097,0.00425135949626565,0.9306115508079529,0.3657737076282501,0.0,0.0,0.0,0.0,0.0,0.0,0.0,0.0,0.0,137.07598876953125,-1.1442095041275024,0.973343014717102,0.0,0.0,0.0,0.0,0.0,0.0,0.0,0.0,0.0,-0.007215469144284725,0.0006134160794317722,0.05369521677494049,0.0,0.0,0.0,0.0,0.0,0.0,0.0,0.0,0.0
1606989684526413984,2989783,1606986082722562080,imu_link,0.012400894425809383,0.004251279402524233,0.9306123852729797,0.3657715916633606,0.0,0.0,0.0,0.0,0.0,0.0,0.0,0.0,0.0,137.0762481689453,-1.1443217992782593,0.9733738303184509,0.0,0.0,0.0,0.0,0.0,0.0,0.0,0.0,0.0,0.0005548955523408949,0.0021509670186787844,0.04341958090662956,0.0,0.0,0.0,0.0,0.0,0.0,0.0,0.0,0.0
1606989684526424743,2989784,1606986082722606578,imu_link,0.012400894425809383,0.004251279402524233,0.9306123852729797,0.3657715916633606,0.0,0.0,0.0,0.0,0.0,0.0,0.0,0.0,0.0,137.0762481689453,-1.1443217992782593,0.9733738303184509,0.0,0.0,0.0,0.0,0.0,0.0,0.0,0.0,0.0,0.0005548955523408949,0.0021509670186787844,0.04341958090662956,0.0,0.0,0.0,0.0,0.0,0.0,0.0,0.0,0.0
1606989684534459598,2989785,1606986082722664386,imu_link,0.012399435043334961,0.004250392783433199,0.930612325668335,0.3657717704772949,0.0,0.0,0.0,0.0,0.0,0.0,0.0,0.0,0.0,137.07623291015625,-1.1442033052444458,0.9732183218002319,0.0,0.0,0.0,0.0,0.0,0.0,0.0,0.0,0.0,0.02382681705057621,0.005425018724054098,0.04896654188632965,0.0,0.0,0.0,0.0,0.0,0.0,0.0,0.0,0.0
1606989684534492462,2989786,1606986082722713571,imu_link,0.012399435043334961,0.004250392783433199,0.930612325668335,0.3657717704772949,0.0,0.0,0.0,0.0,0.0,0.0,0.0,0.0,0.0,137.07623291015625,-1.1442033052444458,0.9732183218002319,0.0,0.0,0.0,0.0,0.0,0.0,0.0,0.0,0.0,0.02382681705057621,0.005425018724054098,0.04896654188632965,0.0,0.0,0.0,0.0,0.0,0.0,0.0,0.0,0.0
1606989684534506755,2989787,1606986082722757813,imu_link,0.012398067861795425,0.004249847959727049,0.9306123852729797,0.3657715320587158,0.0,0.0,0.0,0.0,0.0,0.0,0.0,0.0,0.0,137.07626342773438,-1.144080400466919,0.9731025695800781,0.0,0.0,0.0,0.0,0.0,0.0,0.0,0.0,0.0,0.012925634160637856,-0.0009639640338718891,0.05760888755321503,0.0,0.0,0.0,0.0,0.0,0.0,0.0,0.0,0.0
1606989684534525547,2989788,1606986082722803868,imu_link,0.012398067861795425,0.004249847959727049,0.9306123852729797,0.3657715320587158,0.0,0.0,0.0,0.0,0.0,0.0,0.0,0.0,0.0,137.07626342773438,-1.144080400466919,0.9731025695800781,0.0,0.0,0.0,0.0,0.0,0.0,0.0,0.0,0.0,0.012925634160637856,-0.0009639640338718891,0.05760888755321503,0.0,0.0,0.0,0.0,0.0,0.0,0.0,0.0,0.0
1606989684534542724,2989789,1606986082722847933,imu_link,0.012396537698805332,0.0042504058219492435,0.9306110143661499,0.36577510833740234,0.0,0.0,0.0,0.0,0.0,0.0,0.0,0.0,0.0,137.07582092285156,-1.143890142440796,0.9731022119522095,0.0,0.0,0.0,0.0,0.0,0.0,0.0,0.0,0.0,0.002307071816176176,-0.014623175375163555,0.047663912177085876,0.0,0.0,0.0,0.0,0.0,0.0,0.0,0.0,0.0
1606989684539723263,2989790,1606986082736242691,imu_link,0.012396537698805332,0.0042504058219492435,0.9306110143661499,0.36577510833740234,0.0,0.0,0.0,0.0,0.0,0.0,0.0,0.0,0.0,137.07582092285156,-1.143890142440796,0.9731022119522095,0.0,0.0,0.0,0.0,0.0,0.0,0.0,0.0,0.0,0.002307071816176176,-0.014623175375163555,0.047663912177085876,0.0,0.0,0.0,0.0,0.0,0.0,0.0,0.0,0.0
1606989684539753485,2989791,1606986082736348785,imu_link,0.012396324425935745,0.004250932484865189,0.9306116700172424,0.36577340960502625,0.0,0.0,0.0,0.0,0.0,0.0,0.0,0.0,0.0,137.0760498046875,-1.1438469886779785,0.9731473922729492,0.0,0.0,0.0,0.0,0.0,0.0,0.0,0.0,0.0,0.006937508471310139,-0.01137621607631445,0.026261137798428535,0.0,0.0,0.0,0.0,0.0,0.0,0.0,0.0,0.0
1606989684539762777,2989792,1606986082736489984,imu_link,0.012396324425935745,0.004250932484865189,0.9306116700172424,0.36577340960502625,0.0,0.0,0.0,0.0,0.0,0.0,0.0,0.0,0.0,137.0760498046875,-1.1438469886779785,0.9731473922729492,0.0,0.0,0.0,0.0,0.0,0.0,0.0,0.0,0.0,0.006937508471310139,-0.01137621607631445,0.026261137798428535,0.0,0.0,0.0,0.0,0.0,0.0,0.0,0.0,0.0
1606989684539782348,2989793,1606986082736554537,imu_link,0.012397822923958302,0.004252247978001833,0.9306109547615051,0.3657752573490143,0.0,0.0,0.0,0.0,0.0,0.0,0.0,0.0,0.0,137.0758056640625,-1.1439497470855713,0.9733529090881348,0.0,0.0,0.0,0.0,0.0,0.0,0.0,0.0,0.0,0.0019923136569559574,-0.00890390481799841,0.050926417112350464,0.0,0.0,0.0,0.0,0.0,0.0,0.0,0.0,0.0
1606989684589746198,2989794,1606986082736649141,imu_link,0.012397822923958302,0.004252247978001833,0.9306109547615051,0.3657752573490143,0.0,0.0,0.0,0.0,0.0,0.0,0.0,0.0,0.0,137.0758056640625,-1.1439497470855713,0.9733529090881348,0.0,0.0,0.0,0.0,0.0,0.0,0.0,0.0,0.0,0.0019923136569559574,-0.00890390481799841,0.050926417112350464,0.0,0.0,0.0,0.0,0.0,0.0,0.0,0.0,0.0
1606989684589766462,2989795,1606986082736709106,imu_link,0.012396697886288166,0.004253299906849861,0.9306110739707947,0.36577484011650085,0.0,0.0,0.0,0.0,0.0,0.0,0.0,0.0,0.0,137.0758514404297,-1.143786072731018,0.9734174013137817,0.0,0.0,0.0,0.0,0.0,0.0,0.0,0.0,0.0,-0.0018544255290180445,-0.01533806324005127,0.07280370593070984,0.0,0.0,0.0,0.0,0.0,0.0,0.0,0.0,0.0
1606989684589773603,2989796,1606986082736815727,imu_link,0.012396697886288166,0.004253299906849861,0.9306110739707947,0.36577484011650085,0.0,0.0,0.0,0.0,0.0,0.0,0.0,0.0,0.0,137.0758514404297,-1.143786072731018,0.9734174013137817,0.0,0.0,0.0,0.0,0.0,0.0,0.0,0.0,0.0,-0.0018544255290180445,-0.01533806324005127,0.07280370593070984,0.0,0.0,0.0,0.0,0.0,0.0,0.0,0.0,0.0
1606989684589778671,2989797,1606986082736876598,imu_link,0.012398716993629932,0.004257663153111935,0.9306117296218872,0.36577320098876953,0.0,0.0,0.0,0.0,0.0,0.0,0.0,0.0,0.0,137.0760498046875,-1.1438202857971191,0.9739654064178467,0.0,0.0,0.0,0.0,0.0,0.0,0.0,0.0,0.0,-0.0002786406548693776,-0.00893781054764986,0.06261890381574631,0.0,0.0,0.0,0.0,0.0,0.0,0.0,0.0,0.0
1606989684589788925,2989798,1606986082736965200,imu_link,0.012398716993629932,0.004257663153111935,0.9306117296218872,0.36577320098876953,0.0,0.0,0.0,0.0,0.0,0.0,0.0,0.0,0.0,137.0760498046875,-1.1438202857971191,0.9739654064178467,0.0,0.0,0.0,0.0,0.0,0.0,0.0,0.0,0.0,-0.0002786406548693776,-0.00893781054764986,0.06261890381574631,0.0,0.0,0.0,0.0,0.0,0.0,0.0,0.0,0.0
1606989684597004961,2989799,1606986082737026454,imu_link,0.01239889208227396,0.0042562177404761314,0.9306124448776245,0.36577141284942627,0.0,0.0,0.0,0.0,0.0,0.0,0.0,0.0,0.0,137.07627868652344,-1.1439014673233032,0.9738163948059082,0.0,0.0,0.0,0.0,0.0,0.0,0.0,0.0,0.0,0.007975516840815544,0.012058379128575325,0.07278484106063843,0.0,0.0,0.0,0.0,0.0,0.0,0.0,0.0,0.0
1606989684597034317,2989800,1606986082737087439,imu_link,0.01239889208227396,0.0042562177404761314,0.9306124448776245,0.36577141284942627,0.0,0.0,0.0,0.0,0.0,0.0,0.0,0.0,0.0,137.07627868652344,-1.1439014673233032,0.9738163948059082,0.0,0.0,0.0,0.0,0.0,0.0,0.0,0.0,0.0,0.007975516840815544,0.012058379128575325,0.07278484106063843,0.0,0.0,0.0,0.0,0.0,0.0,0.0,0.0,0.0
1606989684597054350,2989801,1606986082749698754,imu_link,0.012399590574204922,0.0042539117857813835,0.9306132197380066,0.3657694458961487,0.0,0.0,0.0,0.0,0.0,0.0,0.0,0.0,0.0,137.07652282714844,-1.144074559211731,0.9735972881317139,0.0,0.0,0.0,0.0,0.0,0.0,0.0,0.0,0.0,0.0056308857165277,0.017992936074733734,0.06048716977238655,0.0,0.0,0.0,0.0,0.0,0.0,0.0,0.0,0.0
1606989684597071178,2989802,1606986082749804519,imu_link,0.012399590574204922,0.0042539117857813835,0.9306132197380066,0.3657694458961487,0.0,0.0,0.0,0.0,0.0,0.0,0.0,0.0,0.0,137.07652282714844,-1.144074559211731,0.9735972881317139,0.0,0.0,0.0,0.0,0.0,0.0,0.0,0.0,0.0,0.0056308857165277,0.017992936074733734,0.06048716977238655,0.0,0.0,0.0,0.0,0.0,0.0,0.0,0.0,0.0
1606989684666336081,2989803,1606986082749887500,imu_link,0.012398703955113888,0.0042540403082966805,0.9306124448776245,0.3657713234424591,0.0,0.0,0.0,0.0,0.0,0.0,0.0,0.0,0.0,137.0762939453125,-1.143972635269165,0.9735761880874634,0.0,0.0,0.0,0.0,0.0,0.0,0.0,0.0,0.0,-0.005340525880455971,0.004464093595743179,0.04468382149934769,0.0,0.0,0.0,0.0,0.0,0.0,0.0,0.0,0.0
1606989684666390841,2989804,1606986082749952727,imu_link,0.012398703955113888,0.0042540403082966805,0.9306124448776245,0.3657713234424591,0.0,0.0,0.0,0.0,0.0,0.0,0.0,0.0,0.0,137.0762939453125,-1.143972635269165,0.9735761880874634,0.0,0.0,0.0,0.0,0.0,0.0,0.0,0.0,0.0,-0.005340525880455971,0.004464093595743179,0.04468382149934769,0.0,0.0,0.0,0.0,0.0,0.0,0.0,0.0,0.0
1606989684666420127,2989805,1606986082750025233,imu_link,0.012399750761687756,0.004253257531672716,0.9306142926216125,0.36576664447784424,0.0,0.0,0.0,0.0,0.0,0.0,0.0,0.0,0.0,137.0768585205078,-1.1441220045089722,0.9735308289527893,0.0,0.0,0.0,0.0,0.0,0.0,0.0,0.0,0.0,0.011576619930565357,0.013329376466572285,0.06120610237121582,0.0,0.0,0.0,0.0,0.0,0.0,0.0,0.0,0.0
1606989684666437349,2989806,1606986082750106746,imu_link,0.012399750761687756,0.004253257531672716,0.9306142926216125,0.36576664447784424,0.0,0.0,0.0,0.0,0.0,0.0,0.0,0.0,0.0,137.0768585205078,-1.1441220045089722,0.9735308289527893,0.0,0.0,0.0,0.0,0.0,0.0,0.0,0.0,0.0,0.011576619930565357,0.013329376466572285,0.06120610237121582,0.0,0.0,0.0,0.0,0.0,0.0,0.0,0.0,0.0
1606989684666452088,2989807,1606986082750174670,imu_link,0.012398443184792995,0.0042533958330750465,0.9306143522262573,0.3657664358615875,0.0,0.0,0.0,0.0,0.0,0.0,0.0,0.0,0.0,137.07688903808594,-1.1439770460128784,0.9734904766082764,0.0,0.0,0.0,0.0,0.0,0.0,0.0,0.0,0.0,0.011026137508451939,0.002280829008668661,0.06789494305849075,0.0,0.0,0.0,0.0,0.0,0.0,0.0,0.0,0.0
1606989684672662676,2989808,1606986082750233045,imu_link,0.012398443184792995,0.0042533958330750465,0.9306143522262573,0.3657664358615875,0.0,0.0,0.0,0.0,0.0,0.0,0.0,0.0,0.0,137.07688903808594,-1.1439770460128784,0.9734904766082764,0.0,0.0,0.0,0.0,0.0,0.0,0.0,0.0,0.0,0.011026137508451939,0.002280829008668661,0.06789494305849075,0.0,0.0,0.0,0.0,0.0,0.0,0.0,0.0,0.0
1606989684672700855,2989809,1606986082750290761,imu_link,0.012396225705742836,0.004255566745996475,0.9306154847145081,0.36576372385025024,0.0,0.0,0.0,0.0,0.0,0.0,0.0,0.0,0.0,137.0772247314453,-1.143652319908142,0.9736257195472717,0.0,0.0,0.0,0.0,0.0,0.0,0.0,0.0,0.0,-0.004680437035858631,-0.02056035026907921,0.050806544721126556,0.0,0.0,0.0,0.0,0.0,0.0,0.0,0.0,0.0
1606989684672725730,2989810,1606986082750348892,imu_link,0.012396225705742836,0.004255566745996475,0.9306154847145081,0.36576372385025024,0.0,0.0,0.0,0.0,0.0,0.0,0.0,0.0,0.0,137.0772247314453,-1.143652319908142,0.9736257195472717,0.0,0.0,0.0,0.0,0.0,0.0,0.0,0.0,0.0,-0.004680437035858631,-0.02056035026907921,0.050806544721126556,0.0,0.0,0.0,0.0,0.0,0.0,0.0,0.0,0.0
1606989684672736918,2989811,1606986082750409413,imu_link,0.012393901124596596,0.004255480598658323,0.9306160807609558,0.3657621741294861,0.0,0.0,0.0,0.0,0.0,0.0,0.0,0.0,0.0,137.07742309570312,-1.1434096097946167,0.9735169410705566,0.0,0.0,0.0,0.0,0.0,0.0,0.0,0.0,0.0,0.007528040092438459,-0.022115901112556458,0.03060191124677658,0.0,0.0,0.0,0.0,0.0,0.0,0.0,0.0,0.0
1606989684678719853,2989812,1606986082762666205,imu_link,0.012393901124596596,0.004255480598658323,0.9306160807609558,0.3657621741294861,0.0,0.0,0.0,0.0,0.0,0.0,0.0,0.0,0.0,137.07742309570312,-1.1434096097946167,0.9735169410705566,0.0,0.0,0.0,0.0,0.0,0.0,0.0,0.0,0.0,0.007528040092438459,-0.022115901112556458,0.03060191124677658,0.0,0.0,0.0,0.0,0.0,0.0,0.0,0.0,0.0
1606989684678741070,2989813,1606986082762769280,imu_link,0.012394391931593418,0.004259523004293442,0.9306132793426514,0.3657693862915039,0.0,0.0,0.0,0.0,0.0,0.0,0.0,0.0,0.0,137.0765380859375,-1.1432850360870361,0.9739776849746704,0.0,0.0,0.0,0.0,0.0,0.0,0.0,0.0,0.0,0.020583780482411385,-0.009315187111496925,0.03506181761622429,0.0,0.0,0.0,0.0,0.0,0.0,0.0,0.0,0.0
1606989684678752628,2989814,1606986082762877996,imu_link,0.012394391931593418,0.004259523004293442,0.9306132793426514,0.3657693862915039,0.0,0.0,0.0,0.0,0.0,0.0,0.0,0.0,0.0,137.0765380859375,-1.1432850360870361,0.9739776849746704,0.0,0.0,0.0,0.0,0.0,0.0,0.0,0.0,0.0,0.020583780482411385,-0.009315187111496925,0.03506181761622429,0.0,0.0,0.0,0.0,0.0,0.0,0.0,0.0,0.0
1606989684678828500,2989815,1606986082762965114,imu_link,0.012394463643431664,0.004259615670889616,0.9306137561798096,0.36576807498931885,0.0,0.0,0.0,0.0,0.0,0.0,0.0,0.0,0.0,137.07669067382812,-1.1432900428771973,0.973988950252533,0.0,0.0,0.0,0.0,0.0,0.0,0.0,0.0,0.0,0.009370719082653522,0.007996906526386738,0.050683680921792984,0.0,0.0,0.0,0.0,0.0,0.0,0.0,0.0,0.0
