%time,field.header.seq,field.header.stamp,field.header.frame_id,field.orientation.x,field.orientation.y,field.orientation.z,field.orientation.w,field.orientation_covariance0,field.orientation_covariance1,field.orientation_covariance2,field.orientation_covariance3,field.orientation_covariance4,field.orientation_covariance5,field.orientation_covariance6,field.orientation_covariance7,field.orientation_covariance8,field.angular_velocity.x,field.angular_velocity.y,field.angular_velocity.z,field.angular_velocity_covariance0,field.angular_velocity_covariance1,field.angular_velocity_covariance2,field.angular_velocity_covariance3,field.angular_velocity_covariance4,field.angular_velocity_covariance5,field.angular_velocity_covariance6,field.angular_velocity_covariance7,field.angular_velocity_covariance8,field.linear_acceleration.x,field.linear_acceleration.y,field.linear_acceleration.z,field.linear_acceleration_covariance0,field.linear_acceleration_covariance1,field.linear_acceleration_covariance2,field.linear_acceleration_covariance3,field.linear_acceleration_covariance4,field.linear_acceleration_covariance5,field.linear_acceleration_covariance6,field.linear_acceleration_covariance7,field.linear_acceleration_covariance8
1606991001678096932,4044372,1606987400980396949,imu_link,0.007784591522067785,0.006120230536907911,0.3893097937107086,0.9210537075996399,0.0,0.0,0.0,0.0,0.0,0.0,0.0,0.0,0.0,45.828338623046875,0.2986777126789093,1.0947391986846924,0.0,0.0,0.0,0.0,0.0,0.0,0.0,0.0,0.0,-0.013194548897445202,-0.019407035782933235,0.05580153316259384,0.0,0.0,0.0,0.0,0.0,0.0,0.0,0.0,0.0
1606991001678116193,4044373,1606987400980464110,imu_link,0.007786026690155268,0.006119565572589636,0.3893090784549713,0.921053946018219,0.0,0.0,0.0,0.0,0.0,0.0,0.0,0.0,0.0,45.82825469970703,0.298544317483902,1.0948607921600342,0.0,0.0,0.0,0.0,0.0,0.0,0.0,0.0,0.0,-0.008530940860509872,-0.02537655644118786,0.06939039379358292,0.0,0.0,0.0,0.0,0.0,0.0,0.0,0.0,0.0
1606991001678124611,4044374,1606987400980511537,imu_link,0.007786026690155268,0.006119565572589636,0.3893090784549713,0.921053946018219,0.0,0.0,0.0,0.0,0.0,0.0,0.0,0.0,0.0,45.82825469970703,0.298544317483902,1.0948607921600342,0.0,0.0,0.0,0.0,0.0,0.0,0.0,0.0,0.0,-0.008530940860509872,-0.02537655644118786,0.06939039379358292,0.0,0.0,0.0,0.0,0.0,0.0,0.0,0.0,0.0
1606991001678137044,4044375,1606987400980559373,imu_link,0.007785409223288298,0.006118989083915949,0.389308363199234,0.9210543036460876,0.0,0.0,0.0,0.0,0.0,0.0,0.0,0.0,0.0,45.828163146972656,0.29851195216178894,1.0947697162628174,0.0,0.0,0.0,0.0,0.0,0.0,0.0,0.0,0.0,0.004999910015612841,0.006196958012878895,0.0636446624994278,0.0,0.0,0.0,0.0,0.0,0.0,0.0,0.0,0.0
1606991001694407103,4044376,1606987400980609581,imu_link,0.007785409223288298,0.006118989083915949,0.389308363199234,0.9210543036460876,0.0,0.0,0.0,0.0,0.0,0.0,0.0,0.0,0.0,45.828163146972656,0.29851195216178894,1.0947697162628174,0.0,0.0,0.0,0.0,0.0,0.0,0.0,0.0,0.0,0.004999910015612841,0.006196958012878895,0.0636446624994278,0.0,0.0,0.0,0.0,0.0,0.0,0.0,0.0,0.0
1606991001694454303,4044377,1606987400980658958,imu_link,0.007784487679600716,0.00611994368955493,0.38930797576904297,0.921054482460022,0.0,0.0,0.0,0.0,0.0,0.0,0.0,0.0,0.0,45.8281135559082,0.2986542582511902,1.0947149991989136,0.0,0.0,0.0,0.0,0.0,0.0,0.0,0.0,0.0,-0.001967627787962556,0.02891681157052517,0.0449955128133297,0.0,0.0,0.0,0.0,0.0,0.0,0.0,0.0,0.0
1606991001694469890,4044378,1606987400980715850,imu_link,0.007784487679600716,0.00611994368955493,0.38930797576904297,0.921054482460022,0.0,0.0,0.0,0.0,0.0,0.0,0.0,0.0,0.0,45.8281135559082,0.2986542582511902,1.0947149991989136,0.0,0.0,0.0,0.0,0.0,0.0,0.0,0.0,0.0,-0.001967627787962556,0.02891681157052517,0.0449955128133297,0.0,0.0,0.0,0.0,0.0,0.0,0.0,0.0,0.0
1606991001694503797,4044379,1606987400980763692,imu_link,0.007785233668982983,0.006120051257312298,0.3893056809902191,0.9210554361343384,0.0,0.0,0.0,0.0,0.0,0.0,0.0,0.0,0.0,45.82783508300781,0.2986350357532501,1.0947976112365723,0.0,0.0,0.0,0.0,0.0,0.0,0.0,0.0,0.0,-0.0034548828843981028,0.018747787922620773,0.04500462859869003,0.0,0.0,0.0,0.0,0.0,0.0,0.0,0.0,0.0
1606991001758677041,4044380,1606987400980808630,imu_link,0.007785233668982983,0.006120051257312298,0.3893056809902191,0.9210554361343384,0.0,0.0,0.0,0.0,0.0,0.0,0.0,0.0,0.0,45.82783508300781,0.2986350357532501,1.0947976112365723,0.0,0.0,0.0,0.0,0.0,0.0,0.0,0.0,0.0,-0.0034548828843981028,0.018747787922620773,0.04500462859869003,0.0,0.0,0.0,0.0,0.0,0.0,0.0,0.0,0.0
1606991001758715722,4044381,1606987400980856057,imu_link,0.007782090920954943,0.006118059158325195,0.38930296897888184,0.9210565686225891,0.0,0.0,0.0,0.0,0.0,0.0,0.0,0.0,0.0,45.827491760253906,0.2985681891441345,1.0943763256072998,0.0,0.0,0.0,0.0,0.0,0.0,0.0,0.0,0.0,-0.014309234917163849,0.014561176300048828,0.05305681377649307,0.0,0.0,0.0,0.0,0.0,0.0,0.0,0.0,0.0
1606991001758724805,4044382,1606987400980899641,imu_link,0.007782090920954943,0.006118059158325195,0.38930296897888184,0.9210565686225891,0.0,0.0,0.0,0.0,0.0,0.0,0.0,0.0,0.0,45.827491760253906,0.2985681891441345,1.0943763256072998,0.0,0.0,0.0,0.0,0.0,0.0,0.0,0.0,0.0,-0.014309234917163849,0.014561176300048828,0.05305681377649307,0.0,0.0,0.0,0.0,0.0,0.0,0.0,0.0,0.0
1606991001758730806,4044383,1606987400994016633,imu_link,0.00778235262259841,0.006117421668022871,0.38930216431617737,0.9210569262504578,0.0,0.0,0.0,0.0,0.0,0.0,0.0,0.0,0.0,45.827392578125,0.2984902560710907,1.0943751335144043,0.0,0.0,0.0,0.0,0.0,0.0,0.0,0.0,0.0,-0.027246130630373955,0.028185658156871796,0.037330977618694305,0.0,0.0,0.0,0.0,0.0,0.0,0.0,0.0,0.0
1606991001758737798,4044384,1606987400994064235,imu_link,0.00778235262259841,0.006117421668022871,0.38930216431617737,0.9210569262504578,0.0,0.0,0.0,0.0,0.0,0.0,0.0,0.0,0.0,45.827392578125,0.2984902560710907,1.0943751335144043,0.0,0.0,0.0,0.0,0.0,0.0,0.0,0.0,0.0,-0.027246130630373955,0.028185658156871796,0.037330977618694305,0.0,0.0,0.0,0.0,0.0,0.0,0.0,0.0,0.0
1606991001765494452,4044385,1606987400994088474,imu_link,0.007780260872095823,0.00611050333827734,0.3892989158630371,0.9210584163665771,0.0,0.0,0.0,0.0,0.0,0.0,0.0,0.0,0.0,45.826969146728516,0.29785725474357605,1.0938445329666138,0.0,0.0,0.0,0.0,0.0,0.0,0.0,0.0,0.0,-0.022037647664546967,0.02285151556134224,0.03700451925396919,0.0,0.0,0.0,0.0,0.0,0.0,0.0,0.0,0.0
1606991001765510182,4044386,1606987400994110592,imu_link,0.007780260872095823,0.00611050333827734,0.3892989158630371,0.9210584163665771,0.0,0.0,0.0,0.0,0.0,0.0,0.0,0.0,0.0,45.826969146728516,0.29785725474357605,1.0938445329666138,0.0,0.0,0.0,0.0,0.0,0.0,0.0,0.0,0.0,-0.022037647664546967,0.02285151556134224,0.03700451925396919,0.0,0.0,0.0,0.0,0.0,0.0,0.0,0.0,0.0
1606991001765515715,4044387,1606987400994132597,imu_link,0.0077798073180019855,0.006110756658017635,0.3892969787120819,0.9210591912269592,0.0,0.0,0.0,0.0,0.0,0.0,0.0,0.0,0.0,45.82673645019531,0.2979065179824829,1.0938074588775635,0.0,0.0,0.0,0.0,0.0,0.0,0.0,0.0,0.0,-0.021160833537578583,0.0048887236043810844,0.055049970746040344,0.0,0.0,0.0,0.0,0.0,0.0,0.0,0.0,0.0
1606991001765550805,4044388,1606987400994161553,imu_link,0.0077798073180019855,0.006110756658017635,0.3892969787120819,0.9210591912269592,0.0,0.0,0.0,0.0,0.0,0.0,0.0,0.0,0.0,45.82673645019531,0.2979065179824829,1.0938074588775635,0.0,0.0,0.0,0.0,0.0,0.0,0.0,0.0,0.0,-0.021160833537578583,0.0048887236043810844,0.055049970746040344,0.0,0.0,0.0,0.0,0.0,0.0,0.0,0.0,0.0
1606991001773041741,4044389,1606987400994186502,imu_link,0.007779679261147976,0.006107443477958441,0.3892960846424103,0.9210596084594727,0.0,0.0,0.0,0.0,0.0,0.0,0.0,0.0,0.0,45.82661819458008,0.2975636422634125,1.093645691871643,0.0,0.0,0.0,0.0,0.0,0.0,0.0,0.0,0.0,-0.017953088507056236,0.0071478416211903095,0.0782148614525795,0.0,0.0,0.0,0.0,0.0,0.0,0.0,0.0,0.0
1606991001773068429,4044390,1606987400994209776,imu_link,0.007779679261147976,0.006107443477958441,0.3892960846424103,0.9210596084594727,0.0,0.0,0.0,0.0,0.0,0.0,0.0,0.0,0.0,45.82661819458008,0.2975636422634125,1.093645691871643,0.0,0.0,0.0,0.0,0.0,0.0,0.0,0.0,0.0,-0.017953088507056236,0.0071478416211903095,0.0782148614525795,0.0,0.0,0.0,0.0,0.0,0.0,0.0,0.0,0.0
1606991001773077903,4044391,1606987400994232548,imu_link,0.007778906729072332,0.006108386442065239,0.38929712772369385,0.9210591912269592,0.0,0.0,0.0,0.0,0.0,0.0,0.0,0.0,0.0,45.82674789428711,0.2976963520050049,1.0936064720153809,0.0,0.0,0.0,0.0,0.0,0.0,0.0,0.0,0.0,-0.0057523492723703384,-0.0026127658784389496,0.07065625488758087,0.0,0.0,0.0,0.0,0.0,0.0,0.0,0.0,0.0
1606991001773091120,4044392,1606987400994257455,imu_link,0.007778906729072332,0.006108386442065239,0.38929712772369385,0.9210591912269592,0.0,0.0,0.0,0.0,0.0,0.0,0.0,0.0,0.0,45.82674789428711,0.2976963520050049,1.0936064720153809,0.0,0.0,0.0,0.0,0.0,0.0,0.0,0.0,0.0,-0.0057523492723703384,-0.0026127658784389496,0.07065625488758087,0.0,0.0,0.0,0.0,0.0,0.0,0.0,0.0,0.0
1606991001773098664,4044393,1606987400994280159,imu_link,0.007778833620250225,0.006106771994382143,0.38929495215415955,0.9210601449012756,0.0,0.0,0.0,0.0,0.0,0.0,0.0,0.0,0.0,45.82647705078125,0.2975318431854248,1.0935261249542236,0.0,0.0,0.0,0.0,0.0,0.0,0.0,0.0,0.0,-0.00575566291809082,-0.0055590127594769,0.05978219211101532,0.0,0.0,0.0,0.0,0.0,0.0,0.0,0.0,0.0
1606991001779711813,4044394,1606987401006782526,imu_link,0.007778833620250225,0.006106771994382143,0.38929495215415955,0.9210601449012756,0.0,0.0,0.0,0.0,0.0,0.0,0.0,0.0,0.0,45.82647705078125,0.2975318431854248,1.0935261249542236,0.0,0.0,0.0,0.0,0.0,0.0,0.0,0.0,0.0,-0.00575566291809082,-0.0055590127594769,0.05978219211101532,0.0,0.0,0.0,0.0,0.0,0.0,0.0,0.0,0.0
1606991001779735913,4044395,1606987401006848929,imu_link,0.007779147941619158,0.006105972919613123,0.38929522037506104,0.9210600256919861,0.0,0.0,0.0,0.0,0.0,0.0,0.0,0.0,0.0,45.82650375366211,0.29743313789367676,1.0935237407684326,0.0,0.0,0.0,0.0,0.0,0.0,0.0,0.0,0.0,-0.002726156497374177,0.005029205232858658,0.04070460796356201,0.0,0.0,0.0,0.0,0.0,0.0,0.0,0.0,0.0
1606991001779744815,4044396,1606987401006887097,imu_link,0.007779147941619158,0.006105972919613123,0.38929522037506104,0.9210600256919861,0.0,0.0,0.0,0.0,0.0,0.0,0.0,0.0,0.0,45.82650375366211,0.29743313789367676,1.0935237407684326,0.0,0.0,0.0,0.0,0.0,0.0,0.0,0.0,0.0,-0.002726156497374177,0.005029205232858658,0.04070460796356201,0.0,0.0,0.0,0.0,0.0,0.0,0.0,0.0,0.0
1606991001779759427,4044397,1606987401006927633,imu_link,0.007777358405292034,0.0061070267111063,0.3892950713634491,0.9210600852966309,0.0,0.0,0.0,0.0,0.0,0.0,0.0,0.0,0.0,45.82648849487305,0.297624409198761,1.0933817625045776,0.0,0.0,0.0,0.0,0.0,0.0,0.0,0.0,0.0,0.008771413937211037,0.0004753447137773037,0.0304493997246027,0.0,0.0,0.0,0.0,0.0,0.0,0.0,0.0,0.0
1606991001864416600,4044398,1606987401006984855,imu_link,0.007777358405292034,0.0061070267111063,0.3892950713634491,0.9210600852966309,0.0,0.0,0.0,0.0,0.0,0.0,0.0,0.0,0.0,45.82648849487305,0.297624409198761,1.0933817625045776,0.0,0.0,0.0,0.0,0.0,0.0,0.0,0.0,0.0,0.008771413937211037,0.0004753447137773037,0.0304493997246027,0.0,0.0,0.0,0.0,0.0,0.0,0.0,0.0,0.0
1606991001864438284,4044399,1606987401007035189,imu_link,0.007778311148285866,0.006106930319219828,0.38929465413093567,0.9210602641105652,0.0,0.0,0.0,0.0,0.0,0.0,0.0,0.0,0.0,45.82644271850586,0.29757219552993774,1.0934778451919556,0.0,0.0,0.0,0.0,0.0,0.0,0.0,0.0,0.0,0.0013767544878646731,-0.010603033937513828,0.06589335203170776,0.0,0.0,0.0,0.0,0.0,0.0,0.0,0.0,0.0
1606991001864449678,4044400,1606987401007074153,imu_link,0.007778311148285866,0.006106930319219828,0.38929465413093567,0.9210602641105652,0.0,0.0,0.0,0.0,0.0,0.0,0.0,0.0,0.0,45.82644271850586,0.29757219552993774,1.0934778451919556,0.0,0.0,0.0,0.0,0.0,0.0,0.0,0.0,0.0,0.0013767544878646731,-0.010603033937513828,0.06589335203170776,0.0,0.0,0.0,0.0,0.0,0.0,0.0,0.0,0.0
1606991001864457245,4044401,1606987401007118753,imu_link,0.007779800333082676,0.0061058299615979195,0.389295369386673,0.9210598468780518,0.0,0.0,0.0,0.0,0.0,0.0,0.0,0.0,0.0,45.82653045654297,0.2973887026309967,1.0935862064361572,0.0,0.0,0.0,0.0,0.0,0.0,0.0,0.0,0.0,-0.010614529252052307,-0.004342381842434406,0.05988827720284462,0.0,0.0,0.0,0.0,0.0,0.0,0.0,0.0,0.0
1606991001864469876,4044402,1606987401007159953,imu_link,0.007779800333082676,0.0061058299615979195,0.389295369386673,0.9210598468780518,0.0,0.0,0.0,0.0,0.0,0.0,0.0,0.0,0.0,45.82653045654297,0.2973887026309967,1.0935862064361572,0.0,0.0,0.0,0.0,0.0,0.0,0.0,0.0,0.0,-0.010614529252052307,-0.004342381842434406,0.05988827720284462,0.0,0.0,0.0,0.0,0.0,0.0,0.0,0.0,0.0
1606991001905465059,4044403,1606987401007199280,imu_link,0.007780326064676046,0.006106134504079819,0.38929250836372375,0.9210610389709473,0.0,0.0,0.0,0.0,0.0,0.0,0.0,0.0,0.0,45.826175689697266,0.2974007725715637,1.0936543941497803,0.0,0.0,0.0,0.0,0.0,0.0,0.0,0.0,0.0,0.003117763204500079,0.00023741042241454124,0.055232565850019455,0.0,0.0,0.0,0.0,0.0,0.0,0.0,0.0,0.0
1606991001905512501,4044404,1606987401020744174,imu_link,0.007780326064676046,0.006106134504079819,0.38929250836372375,0.9210610389709473,0.0,0.0,0.0,0.0,0.0,0.0,0.0,0.0,0.0,45.826175689697266,0.2974007725715637,1.0936543941497803,0.0,0.0,0.0,0.0,0.0,0.0,0.0,0.0,0.0,0.003117763204500079,0.00023741042241454124,0.055232565850019455,0.0,0.0,0.0,0.0,0.0,0.0,0.0,0.0,0.0
1606991001905549461,4044405,1606987401020826875,imu_link,0.007778014522045851,0.006109096575528383,0.3892916440963745,0.9210613965988159,0.0,0.0,0.0,0.0,0.0,0.0,0.0,0.0,0.0,45.826072692871094,0.297817587852478,1.093542456626892,0.0,0.0,0.0,0.0,0.0,0.0,0.0,0.0,0.0,0.0038748574443161488,-0.006608530879020691,0.07817496359348297,0.0,0.0,0.0,0.0,0.0,0.0,0.0,0.0,0.0
1606991001905558156,4044406,1606987401020936306,imu_link,0.007778014522045851,0.006109096575528383,0.3892916440963745,0.9210613965988159,0.0,0.0,0.0,0.0,0.0,0.0,0.0,0.0,0.0,45.826072692871094,0.297817587852478,1.093542456626892,0.0,0.0,0.0,0.0,0.0,0.0,0.0,0.0,0.0,0.0038748574443161488,-0.006608530879020691,0.07817496359348297,0.0,0.0,0.0,0.0,0.0,0.0,0.0,0.0,0.0
1606991001914361940,4044407,1606987401020982480,imu_link,0.007775530219078064,0.006108787376433611,0.38929256796836853,0.9210611581802368,0.0,0.0,0.0,0.0,0.0,0.0,0.0,0.0,0.0,45.82617950439453,0.29789474606513977,1.0932666063308716,0.0,0.0,0.0,0.0,0.0,0.0,0.0,0.0,0.0,-0.0069172801449894905,-0.012854082509875298,0.07008632272481918,0.0,0.0,0.0,0.0,0.0,0.0,0.0,0.0,0.0
1606991001914388280,4044408,1606987401021030972,imu_link,0.007775530219078064,0.006108787376433611,0.38929256796836853,0.9210611581802368,0.0,0.0,0.0,0.0,0.0,0.0,0.0,0.0,0.0,45.82617950439453,0.29789474606513977,1.0932666063308716,0.0,0.0,0.0,0.0,0.0,0.0,0.0,0.0,0.0,-0.0069172801449894905,-0.012854082509875298,0.07008632272481918,0.0,0.0,0.0,0.0,0.0,0.0,0.0,0.0,0.0
1606991001914406533,4044409,1606987401021078562,imu_link,0.00777789019048214,0.006111170165240765,0.3892934322357178,0.9210607409477234,0.0,0.0,0.0,0.0,0.0,0.0,0.0,0.0,0.0,45.826290130615234,0.2980399429798126,1.0936222076416016,0.0,0.0,0.0,0.0,0.0,0.0,0.0,0.0,0.0,-0.00814698077738285,-0.015155858360230923,0.06856150925159454,0.0,0.0,0.0,0.0,0.0,0.0,0.0,0.0,0.0
1606991001914465434,4044410,1606987401021135331,imu_link,0.00777789019048214,0.006111170165240765,0.3892934322357178,0.9210607409477234,0.0,0.0,0.0,0.0,0.0,0.0,0.0,0.0,0.0,45.826290130615234,0.2980399429798126,1.0936222076416016,0.0,0.0,0.0,0.0,0.0,0.0,0.0,0.0,0.0,-0.00814698077738285,-0.015155858360230923,0.06856150925159454,0.0,0.0,0.0,0.0,0.0,0.0,0.0,0.0,0.0
1606991001914488505,4044411,1606987401021180260,imu_link,0.007777138147503138,0.006111441645771265,0.3892921507358551,0.9210612773895264,0.0,0.0,0.0,0.0,0.0,0.0,0.0,0.0,0.0,45.82613754272461,0.2981036305427551,1.0935547351837158,0.0,0.0,0.0,0.0,0.0,0.0,0.0,0.0,0.0,-0.009433875791728497,-0.008523445576429367,0.06784536689519882,0.0,0.0,0.0,0.0,0.0,0.0,0.0,0.0,0.0
1606991001924995157,4044412,1606987401021223718,imu_link,0.007777138147503138,0.006111441645771265,0.3892921507358551,0.9210612773895264,0.0,0.0,0.0,0.0,0.0,0.0,0.0,0.0,0.0,45.82613754272461,0.2981036305427551,1.0935547351837158,0.0,0.0,0.0,0.0,0.0,0.0,0.0,0.0,0.0,-0.009433875791728497,-0.008523445576429367,0.06784536689519882,0.0,0.0,0.0,0.0,0.0,0.0,0.0,0.0,0.0
1606991001925030120,4044413,1606987401021273774,imu_link,0.007781310472637415,0.0061101848259568214,0.38929298520088196,0.9210608601570129,0.0,0.0,0.0,0.0,0.0,0.0,0.0,0.0,0.0,45.82624053955078,0.2977837920188904,1.0939393043518066,0.0,0.0,0.0,0.0,0.0,0.0,0.0,0.0,0.0,-0.007201013155281544,-0.00038109091110527515,0.05918363109230995,0.0,0.0,0.0,0.0,0.0,0.0,0.0,0.0,0.0
1606991001925049141,4044414,1606987401021320856,imu_link,0.007781310472637415,0.0061101848259568214,0.38929298520088196,0.9210608601570129,0.0,0.0,0.0,0.0,0.0,0.0,0.0,0.0,0.0,45.82624053955078,0.2977837920188904,1.0939393043518066,0.0,0.0,0.0,0.0,0.0,0.0,0.0,0.0,0.0,-0.007201013155281544,-0.00038109091110527515,0.05918363109230995,0.0,0.0,0.0,0.0,0.0,0.0,0.0,0.0,0.0
1606991001925064995,4044415,1606987401034224633,imu_link,0.007782654836773872,0.0061097885482013226,0.3892906904220581,0.9210618138313293,0.0,0.0,0.0,0.0,0.0,0.0,0.0,0.0,0.0,45.825958251953125,0.2976847290992737,1.0940628051757812,0.0,0.0,0.0,0.0,0.0,0.0,0.0,0.0,0.0,-0.0018250724533572793,0.0016586070414632559,0.0492534302175045,0.0,0.0,0.0,0.0,0.0,0.0,0.0,0.0,0.0
1606991001968395726,4044416,1606987401034325193,imu_link,0.007782654836773872,0.0061097885482013226,0.3892906904220581,0.9210618138313293,0.0,0.0,0.0,0.0,0.0,0.0,0.0,0.0,0.0,45.825958251953125,0.2976847290992737,1.0940628051757812,0.0,0.0,0.0,0.0,0.0,0.0,0.0,0.0,0.0,-0.0018250724533572793,0.0016586070414632559,0.0492534302175045,0.0,0.0,0.0,0.0,0.0,0.0,0.0,0.0,0.0
1606991001968416520,4044417,1606987401034428097,imu_link,0.007782639004290104,0.006109535228461027,0.3892917335033417,0.9210613965988159,0.0,0.0,0.0,0.0,0.0,0.0,0.0,0.0,0.0,45.82607650756836,0.29765743017196655,1.0940501689910889,0.0,0.0,0.0,0.0,0.0,0.0,0.0,0.0,0.0,0.014678004197776318,0.005569628439843655,0.059467945247888565,0.0,0.0,0.0,0.0,0.0,0.0,0.0,0.0,0.0
1606991001968441416,4044418,1606987401034488955,imu_link,0.007782639004290104,0.006109535228461027,0.3892917335033417,0.9210613965988159,0.0,0.0,0.0,0.0,0.0,0.0,0.0,0.0,0.0,45.82607650756836,0.29765743017196655,1.0940501689910889,0.0,0.0,0.0,0.0,0.0,0.0,0.0,0.0,0.0,0.014678004197776318,0.005569628439843655,0.059467945247888565,0.0,0.0,0.0,0.0,0.0,0.0,0.0,0.0,0.0
1606991001968447941,4044419,1606987401034541106,imu_link,0.0077834781259298325,0.006109543610364199,0.3892895579338074,0.9210622906684875,0.0,0.0,0.0,0.0,0.0,0.0,0.0,0.0,0.0,45.82581329345703,0.29762351512908936,1.0941383838653564,0.0,0.0,0.0,0.0,0.0,0.0,0.0,0.0,0.0,0.019357066601514816,0.007917051203548908,0.06415470689535141,0.0,0.0,0.0,0.0,0.0,0.0,0.0,0.0,0.0
1606991001968460468,4044420,1606987401034594947,imu_link,0.0077834781259298325,0.006109543610364199,0.3892895579338074,0.9210622906684875,0.0,0.0,0.0,0.0,0.0,0.0,0.0,0.0,0.0,45.82581329345703,0.29762351512908936,1.0941383838653564,0.0,0.0,0.0,0.0,0.0,0.0,0.0,0.0,0.0,0.019357066601514816,0.007917051203548908,0.06415470689535141,0.0,0.0,0.0,0.0,0.0,0.0,0.0,0.0,0.0
1606991001975071521,4044421,1606987401034672881,imu_link,0.007783914916217327,0.006111758761107922,0.3892902731895447,0.9210620522499084,0.0,0.0,0.0,0.0,0.0,0.0,0.0,0.0,0.0,45.82590103149414,0.2978369891643524,1.0942834615707397,0.0,0.0,0.0,0.0,0.0,0.0,0.0,0.0,0.0,-0.0042833187617361546,-0.009219182655215263,0.056161701679229736,0.0,0.0,0.0,0.0,0.0,0.0,0.0,0.0,0.0
1606991001975119099,4044422,1606987401034727186,imu_link,0.007783914916217327,0.006111758761107922,0.3892902731895447,0.9210620522499084,0.0,0.0,0.0,0.0,0.0,0.0,0.0,0.0,0.0,45.82590103149414,0.2978369891643524,1.0942834615707397,0.0,0.0,0.0,0.0,0.0,0.0,0.0,0.0,0.0,-0.0042833187617361546,-0.009219182655215263,0.056161701679229736,0.0,0.0,0.0,0.0,0.0,0.0,0.0,0.0,0.0
1606991001975138730,4044423,1606987401034840395,imu_link,0.007784619461745024,0.006109906360507011,0.3892885446548462,0.9210627675056458,0.0,0.0,0.0,0.0,0.0,0.0,0.0,0.0,0.0,45.825687408447266,0.29761213064193726,1.0942745208740234,0.0,0.0,0.0,0.0,0.0,0.0,0.0,0.0,0.0,-0.019749077036976814,-0.006997217889875174,0.050968196243047714,0.0,0.0,0.0,0.0,0.0,0.0,0.0,0.0,0.0
1606991001975214847,4044424,1606987401034896348,imu_link,0.007784619461745024,0.006109906360507011,0.3892885446548462,0.9210627675056458,0.0,0.0,0.0,0.0,0.0,0.0,0.0,0.0,0.0,45.825687408447266,0.29761213064193726,1.0942745208740234,0.0,0.0,0.0,0.0,0.0,0.0,0.0,0.0,0.0,-0.019749077036976814,-0.006997217889875174,0.050968196243047714,0.0,0.0,0.0,0.0,0.0,0.0,0.0,0.0,0.0
1606991001982857382,4044425,1606987401034968501,imu_link,0.007787167560309172,0.006108542438596487,0.3892875909805298,0.9210631847381592,0.0,0.0,0.0,0.0,0.0,0.0,0.0,0.0,0.0,45.8255615234375,0.297355592250824,1.094482421875,0.0,0.0,0.0,0.0,0.0,0.0,0.0,0.0,0.0,-0.018845971673727036,-0.001018847106024623,0.04487903043627739,0.0,0.0,0.0,0.0,0.0,0.0,0.0,0.0,0.0
1606991001982913218,4044426,1606987401047953257,imu_link,0.007787167560309172,0.006108542438596487,0.3892875909805298,0.9210631847381592,0.0,0.0,0.0,0.0,0.0,0.0,0.0,0.0,0.0,45.8255615234375,0.297355592250824,1.094482421875,0.0,0.0,0.0,0.0,0.0,0.0,0.0,0.0,0.0,-0.018845971673727036,-0.001018847106024623,0.04487903043627739,0.0,0.0,0.0,0.0,0.0,0.0,0.0,0.0,0.0
1606991001982939175,4044427,1606987401048042972,imu_link,0.00778495566919446,0.006111694499850273,0.38928738236427307,0.921063244342804,0.0,0.0,0.0,0.0,0.0,0.0,0.0,0.0,0.0,45.825538635253906,0.29778721928596497,1.09438955783844,0.0,0.0,0.0,0.0,0.0,0.0,0.0,0.0,0.0,-0.008235203102231026,-0.011645340360701084,0.048550911247730255,0.0,0.0,0.0,0.0,0.0,0.0,0.0,0.0,0.0
1606991001983040663,4044428,1606987401048139267,imu_link,0.00778495566919446,0.006111694499850273,0.38928738236427307,0.921063244342804,0.0,0.0,0.0,0.0,0.0,0.0,0.0,0.0,0.0,45.825538635253906,0.29778721928596497,1.09438955783844,0.0,0.0,0.0,0.0,0.0,0.0,0.0,0.0,0.0,-0.008235203102231026,-0.011645340360701084,0.048550911247730255,0.0,0.0,0.0,0.0,0.0,0.0,0.0,0.0,0.0
1606991001983072278,4044429,1606987401048210111,imu_link,0.007787818089127541,0.006110844202339649,0.3892887532711029,0.9210626482963562,0.0,0.0,0.0,0.0,0.0,0.0,0.0,0.0,0.0,45.82571029663086,0.297568142414093,1.0946542024612427,0.0,0.0,0.0,0.0,0.0,0.0,0.0,0.0,0.0,-0.005542075727134943,-0.00905089545994997,0.06235690042376518,0.0,0.0,0.0,0.0,0.0,0.0,0.0,0.0,0.0
1606991001992519161,4044430,1606987401048276958,imu_link,0.007787818089127541,0.006110844202339649,0.3892887532711029,0.9210626482963562,0.0,0.0,0.0,0.0,0.0,0.0,0.0,0.0,0.0,45.82571029663086,0.297568142414093,1.0946542024612427,0.0,0.0,0.0,0.0,0.0,0.0,0.0,0.0,0.0,-0.005542075727134943,-0.00905089545994997,0.06235690042376518,0.0,0.0,0.0,0.0,0.0,0.0,0.0,0.0,0.0
1606991001992552458,4044431,1606987401048342377,imu_link,0.0077878376469016075,0.006112295668572187,0.38928884267807007,0.9210625886917114,0.0,0.0,0.0,0.0,0.0,0.0,0.0,0.0,0.0,45.82572555541992,0.2977203130722046,1.0947209596633911,0.0,0.0,0.0,0.0,0.0,0.0,0.0,0.0,0.0,-0.015789587050676346,-0.005947945639491081,0.07647691667079926,0.0,0.0,0.0,0.0,0.0,0.0,0.0,0.0,0.0
1606991001992617663,4044432,1606987401048419953,imu_link,0.0077878376469016075,0.006112295668572187,0.38928884267807007,0.9210625886917114,0.0,0.0,0.0,0.0,0.0,0.0,0.0,0.0,0.0,45.82572555541992,0.2977203130722046,1.0947209596633911,0.0,0.0,0.0,0.0,0.0,0.0,0.0,0.0,0.0,-0.015789587050676346,-0.005947945639491081,0.07647691667079926,0.0,0.0,0.0,0.0,0.0,0.0,0.0,0.0,0.0
1606991001992672393,4044433,1606987401048484594,imu_link,0.007790013216435909,0.006108454428613186,0.38928982615470886,0.921062171459198,0.0,0.0,0.0,0.0,0.0,0.0,0.0,0.0,0.0,45.82584762573242,0.2972167134284973,1.09477961063385,0.0,0.0,0.0,0.0,0.0,0.0,0.0,0.0,0.0,-0.001490683644078672,-0.0037603816017508507,0.07873288542032242,0.0,0.0,0.0,0.0,0.0,0.0,0.0,0.0,0.0
1606991002103199226,4044434,1606987401048617462,imu_link,0.007790013216435909,0.006108454428613186,0.38928982615470886,0.921062171459198,0.0,0.0,0.0,0.0,0.0,0.0,0.0,0.0,0.0,45.82584762573242,0.2972167134284973,1.09477961063385,0.0,0.0,0.0,0.0,0.0,0.0,0.0,0.0,0.0,-0.001490683644078672,-0.0037603816017508507,0.07873288542032242,0.0,0.0,0.0,0.0,0.0,0.0,0.0,0.0,0.0
1606991002103237664,4044435,1606987401048683824,imu_link,0.007791885640472174,0.006108414381742477,0.3892906606197357,0.9210618138313293,0.0,0.0,0.0,0.0,0.0,0.0,0.0,0.0,0.0,45.82594680786133,0.29712793231010437,1.0949755907058716,0.0,0.0,0.0,0.0,0.0,0.0,0.0,0.0,0.0,0.02184421196579933,-0.013186028227210045,0.07155486941337585,0.0,0.0,0.0,0.0,0.0,0.0,0.0,0.0,0.0
1606991002103250891,4044436,1606987401048751071,imu_link,0.007791885640472174,0.006108414381742477,0.3892906606197357,0.9210618138313293,0.0,0.0,0.0,0.0,0.0,0.0,0.0,0.0,0.0,45.82594680786133,0.29712793231010437,1.0949755907058716,0.0,0.0,0.0,0.0,0.0,0.0,0.0,0.0,0.0,0.02184421196579933,-0.013186028227210045,0.07155486941337585,0.0,0.0,0.0,0.0,0.0,0.0,0.0,0.0,0.0
1606991002103269600,4044437,1606987401061536496,imu_link,0.0077925571240484715,0.0061135427094995975,0.3892909586429596,0.921061635017395,0.0,0.0,0.0,0.0,0.0,0.0,0.0,0.0,0.0,45.82598876953125,0.29763883352279663,1.0952755212783813,0.0,0.0,0.0,0.0,0.0,0.0,0.0,0.0,0.0,0.00820907112210989,-0.023117685690522194,0.06427888572216034,0.0,0.0,0.0,0.0,0.0,0.0,0.0,0.0,0.0
1606991002103280142,4044438,1606987401061650152,imu_link,0.0077925571240484715,0.0061135427094995975,0.3892909586429596,0.921061635017395,0.0,0.0,0.0,0.0,0.0,0.0,0.0,0.0,0.0,45.82598876953125,0.29763883352279663,1.0952755212783813,0.0,0.0,0.0,0.0,0.0,0.0,0.0,0.0,0.0,0.00820907112210989,-0.023117685690522194,0.06427888572216034,0.0,0.0,0.0,0.0,0.0,0.0,0.0,0.0,0.0
1606991002109061173,4044439,1606987401061766004,imu_link,0.007792587857693434,0.00611245958134532,0.3892901837825775,0.9210619926452637,0.0,0.0,0.0,0.0,0.0,0.0,0.0,0.0,0.0,45.82589340209961,0.2975241541862488,1.095230221748352,0.0,0.0,0.0,0.0,0.0,0.0,0.0,0.0,0.0,-0.010894901119172573,-0.008390426635742188,0.06806645542383194,0.0,0.0,0.0,0.0,0.0,0.0,0.0,0.0,0.0
1606991002109088723,4044440,1606987401061841719,imu_link,0.007792587857693434,0.00611245958134532,0.3892901837825775,0.9210619926452637,0.0,0.0,0.0,0.0,0.0,0.0,0.0,0.0,0.0,45.82589340209961,0.2975241541862488,1.095230221748352,0.0,0.0,0.0,0.0,0.0,0.0,0.0,0.0,0.0,-0.010894901119172573,-0.008390426635742188,0.06806645542383194,0.0,0.0,0.0,0.0,0.0,0.0,0.0,0.0,0.0
1606991002109098626,4044441,1606987401061909600,imu_link,0.007793837692588568,0.006113362032920122,0.3892902731895447,0.9210619330406189,0.0,0.0,0.0,0.0,0.0,0.0,0.0,0.0,0.0,45.82590866088867,0.29756349325180054,1.095402479171753,0.0,0.0,0.0,0.0,0.0,0.0,0.0,0.0,0.0,0.00706086540594697,0.005470701958984137,0.06291459500789642,0.0,0.0,0.0,0.0,0.0,0.0,0.0,0.0,0.0
1606991002109109895,4044442,1606987401061990106,imu_link,0.007793837692588568,0.006113362032920122,0.3892902731895447,0.9210619330406189,0.0,0.0,0.0,0.0,0.0,0.0,0.0,0.0,0.0,45.82590866088867,0.29756349325180054,1.095402479171753,0.0,0.0,0.0,0.0,0.0,0.0,0.0,0.0,0.0,0.00706086540594697,0.005470701958984137,0.06291459500789642,0.0,0.0,0.0,0.0,0.0,0.0,0.0,0.0,0.0
1606991002130796141,4044443,1606987401062057101,imu_link,0.0077934470027685165,0.0061165872029960155,0.3892899453639984,0.9210620522499084,0.0,0.0,0.0,0.0,0.0,0.0,0.0,0.0,0.0,45.82587432861328,0.29792171716690063,1.0955049991607666,0.0,0.0,0.0,0.0,0.0,0.0,0.0,0.0,0.0,0.01618586853146553,0.012948754243552685,0.04736844450235367,0.0,0.0,0.0,0.0,0.0,0.0,0.0,0.0,0.0
1606991002130833329,4044444,1606987401062118102,imu_link,0.0077934470027685165,0.0061165872029960155,0.3892899453639984,0.9210620522499084,0.0,0.0,0.0,0.0,0.0,0.0,0.0,0.0,0.0,45.82587432861328,0.29792171716690063,1.0955049991607666,0.0,0.0,0.0,0.0,0.0,0.0,0.0,0.0,0.0,0.01618586853146553,0.012948754243552685,0.04736844450235367,0.0,0.0,0.0,0.0,0.0,0.0,0.0,0.0,0.0
1606991002130897014,4044445,1606987401062193228,imu_link,0.007789439521729946,0.006118533201515675,0.3892901837825775,0.9210619330406189,0.0,0.0,0.0,0.0,0.0,0.0,0.0,0.0,0.0,45.825904846191406,0.29830560088157654,1.095168948173523,0.0,0.0,0.0,0.0,0.0,0.0,0.0,0.0,0.0,0.013769200071692467,0.012684187851846218,0.07258596271276474,0.0,0.0,0.0,0.0,0.0,0.0,0.0,0.0,0.0
1606991002130915392,4044446,1606987401062263555,imu_link,0.007789439521729946,0.006118533201515675,0.3892901837825775,0.9210619330406189,0.0,0.0,0.0,0.0,0.0,0.0,0.0,0.0,0.0,45.825904846191406,0.29830560088157654,1.095168948173523,0.0,0.0,0.0,0.0,0.0,0.0,0.0,0.0,0.0,0.013769200071692467,0.012684187851846218,0.07258596271276474,0.0,0.0,0.0,0.0,0.0,0.0,0.0,0.0,0.0
1606991002137068430,4044447,1606987401062328313,imu_link,0.007788458373397589,0.006117562763392925,0.3892902731895447,0.9210619330406189,0.0,0.0,0.0,0.0,0.0,0.0,0.0,0.0,0.0,45.82590866088867,0.298246830701828,1.0950220823287964,0.0,0.0,0.0,0.0,0.0,0.0,0.0,0.0,0.0,0.018510840833187103,0.011432391591370106,0.0642339363694191,0.0,0.0,0.0,0.0,0.0,0.0,0.0,0.0,0.0
1606991002137116834,4044448,1606987401074361951,imu_link,0.007788458373397589,0.006117562763392925,0.3892902731895447,0.9210619330406189,0.0,0.0,0.0,0.0,0.0,0.0,0.0,0.0,0.0,45.82590866088867,0.298246830701828,1.0950220823287964,0.0,0.0,0.0,0.0,0.0,0.0,0.0,0.0,0.0,0.018510840833187103,0.011432391591370106,0.0642339363694191,0.0,0.0,0.0,0.0,0.0,0.0,0.0,0.0,0.0
1606991002137135553,4044449,1606987401074463858,imu_link,0.007785585708916187,0.006119858473539352,0.38929083943367004,0.9210616946220398,0.0,0.0,0.0,0.0,0.0,0.0,0.0,0.0,0.0,45.82598876953125,0.29861658811569214,1.0948214530944824,0.0,0.0,0.0,0.0,0.0,0.0,0.0,0.0,0.0,0.007606725208461285,0.004357929341495037,0.024684274569153786,0.0,0.0,0.0,0.0,0.0,0.0,0.0,0.0,0.0
1606991002137168056,4044450,1606987401074626655,imu_link,0.007785585708916187,0.006119858473539352,0.38929083943367004,0.9210616946220398,0.0,0.0,0.0,0.0,0.0,0.0,0.0,0.0,0.0,45.82598876953125,0.29861658811569214,1.0948214530944824,0.0,0.0,0.0,0.0,0.0,0.0,0.0,0.0,0.0,0.007606725208461285,0.004357929341495037,0.024684274569153786,0.0,0.0,0.0,0.0,0.0,0.0,0.0,0.0,0.0
1606991002137226451,4044451,1606987401074712674,imu_link,0.007785781752318144,0.006118014454841614,0.3892926573753357,0.9210609197616577,0.0,0.0,0.0,0.0,0.0,0.0,0.0,0.0,0.0,45.826210021972656,0.298411101102829,1.094760537147522,0.0,0.0,0.0,0.0,0.0,0.0,0.0,0.0,0.0,-0.0007401169277727604,0.006769515573978424,0.05896040052175522,0.0,0.0,0.0,0.0,0.0,0.0,0.0,0.0,0.0
1606991002211970507,4044452,1606987401074811880,imu_link,0.007785781752318144,0.006118014454841614,0.3892926573753357,0.9210609197616577,0.0,0.0,0.0,0.0,0.0,0.0,0.0,0.0,0.0,45.826210021972656,0.298411101102829,1.094760537147522,0.0,0.0,0.0,0.0,0.0,0.0,0.0,0.0,0.0,-0.0007401169277727604,0.006769515573978424,0.05896040052175522,0.0,0.0,0.0,0.0,0.0,0.0,0.0,0.0,0.0
1606991002212013053,4044453,1606987401074903247,imu_link,0.007786185014992952,0.0061169699765741825,0.38929232954978943,0.921061098575592,0.0,0.0,0.0,0.0,0.0,0.0,0.0,0.0,0.0,45.82616424560547,0.29828327894210815,1.0947563648223877,0.0,0.0,0.0,0.0,0.0,0.0,0.0,0.0,0.0,-0.005860477220267057,0.013181491754949093,0.0777072161436081,0.0,0.0,0.0,0.0,0.0,0.0,0.0,0.0,0.0
1606991002212036304,4044454,1606987401074996110,imu_link,0.007786185014992952,0.0061169699765741825,0.38929232954978943,0.921061098575592,0.0,0.0,0.0,0.0,0.0,0.0,0.0,0.0,0.0,45.82616424560547,0.29828327894210815,1.0947563648223877,0.0,0.0,0.0,0.0,0.0,0.0,0.0,0.0,0.0,-0.005860477220267057,0.013181491754949093,0.0777072161436081,0.0,0.0,0.0,0.0,0.0,0.0,0.0,0.0,0.0
1606991002212048764,4044455,1606987401075065779,imu_link,0.007786731701344252,0.006116988603025675,0.3892904222011566,0.9210618734359741,0.0,0.0,0.0,0.0,0.0,0.0,0.0,0.0,0.0,45.825927734375,0.2982630729675293,1.0948141813278198,0.0,0.0,0.0,0.0,0.0,0.0,0.0,0.0,0.0,-0.009719960391521454,0.01719610020518303,0.07031334191560745,0.0,0.0,0.0,0.0,0.0,0.0,0.0,0.0,0.0
1606991002219920436,4044456,1606987401075131567,imu_link,0.007786731701344252,0.006116988603025675,0.3892904222011566,0.9210618734359741,0.0,0.0,0.0,0.0,0.0,0.0,0.0,0.0,0.0,45.825927734375,0.2982630729675293,1.0948141813278198,0.0,0.0,0.0,0.0,0.0,0.0,0.0,0.0,0.0,-0.009719960391521454,0.01719610020518303,0.07031334191560745,0.0,0.0,0.0,0.0,0.0,0.0,0.0,0.0,0.0
1606991002219963017,4044457,1606987401075196410,imu_link,0.007785967085510492,0.006113318260759115,0.389291375875473,0.9210615158081055,0.0,0.0,0.0,0.0,0.0,0.0,0.0,0.0,0.0,45.82604217529297,0.2979087233543396,1.0945700407028198,0.0,0.0,0.0,0.0,0.0,0.0,0.0,0.0,0.0,-0.001898240763694048,0.021334713324904442,0.056980159133672714,0.0,0.0,0.0,0.0,0.0,0.0,0.0,0.0,0.0
1606991002219983722,4044458,1606987401088292317,imu_link,0.007785967085510492,0.006113318260759115,0.389291375875473,0.9210615158081055,0.0,0.0,0.0,0.0,0.0,0.0,0.0,0.0,0.0,45.82604217529297,0.2979087233543396,1.0945700407028198,0.0,0.0,0.0,0.0,0.0,0.0,0.0,0.0,0.0,-0.001898240763694048,0.021334713324904442,0.056980159133672714,0.0,0.0,0.0,0.0,0.0,0.0,0.0,0.0,0.0
1606991002220003812,4044459,1606987401088403815,imu_link,0.00778480339795351,0.006114401388913393,0.38929077982902527,0.9210617542266846,0.0,0.0,0.0,0.0,0.0,0.0,0.0,0.0,0.0,45.82596969604492,0.2980756163597107,1.094495415687561,0.0,0.0,0.0,0.0,0.0,0.0,0.0,0.0,0.0,0.00849075522273779,0.022207142785191536,0.02580627053976059,0.0,0.0,0.0,0.0,0.0,0.0,0.0,0.0,0.0
1606991002220062465,4044460,1606987401088513128,imu_link,0.00778480339795351,0.006114401388913393,0.38929077982902527,0.9210617542266846,0.0,0.0,0.0,0.0,0.0,0.0,0.0,0.0,0.0,45.82596969604492,0.2980756163597107,1.094495415687561,0.0,0.0,0.0,0.0,0.0,0.0,0.0,0.0,0.0,0.00849075522273779,0.022207142785191536,0.02580627053976059,0.0,0.0,0.0,0.0,0.0,0.0,0.0,0.0,0.0
1606991002230449937,4044461,1606987401088592035,imu_link,0.00778185622766614,0.00611520279198885,0.38928887248039246,0.9210625886917114,0.0,0.0,0.0,0.0,0.0,0.0,0.0,0.0,0.0,45.82572937011719,0.29829397797584534,1.094219446182251,0.0,0.0,0.0,0.0,0.0,0.0,0.0,0.0,0.0,0.009094341658055782,0.01415843516588211,0.041612330824136734,0.0,0.0,0.0,0.0,0.0,0.0,0.0,0.0,0.0
1606991002230480405,4044462,1606987401088656725,imu_link,0.00778185622766614,0.00611520279198885,0.38928887248039246,0.9210625886917114,0.0,0.0,0.0,0.0,0.0,0.0,0.0,0.0,0.0,45.82572937011719,0.29829397797584534,1.094219446182251,0.0,0.0,0.0,0.0,0.0,0.0,0.0,0.0,0.0,0.009094341658055782,0.01415843516588211,0.041612330824136734,0.0,0.0,0.0,0.0,0.0,0.0,0.0,0.0,0.0
1606991002230498395,4044463,1606987401088721302,imu_link,0.007782382890582085,0.006115860305726528,0.3892894983291626,0.9210623502731323,0.0,0.0,0.0,0.0,0.0,0.0,0.0,0.0,0.0,45.825809478759766,0.29833918809890747,1.0943045616149902,0.0,0.0,0.0,0.0,0.0,0.0,0.0,0.0,0.0,0.003845762461423874,-0.008079457096755505,0.08494400978088379,0.0,0.0,0.0,0.0,0.0,0.0,0.0,0.0,0.0
1606991002230515328,4044464,1606987401088798477,imu_link,0.007782382890582085,0.006115860305726528,0.3892894983291626,0.9210623502731323,0.0,0.0,0.0,0.0,0.0,0.0,0.0,0.0,0.0,45.825809478759766,0.29833918809890747,1.0943045616149902,0.0,0.0,0.0,0.0,0.0,0.0,0.0,0.0,0.0,0.003845762461423874,-0.008079457096755505,0.08494400978088379,0.0,0.0,0.0,0.0,0.0,0.0,0.0,0.0,0.0
1606991002271258469,4044465,1606987401088867412,imu_link,0.007784034125506878,0.006115866359323263,0.38929033279418945,0.9210619926452637,0.0,0.0,0.0,0.0,0.0,0.0,0.0,0.0,0.0,45.8259162902832,0.29826512932777405,1.0944793224334717,0.0,0.0,0.0,0.0,0.0,0.0,0.0,0.0,0.0,-0.012862421572208405,-0.0005263682687655091,0.08656228333711624,0.0,0.0,0.0,0.0,0.0,0.0,0.0,0.0,0.0
1606991002271309587,4044466,1606987401089000597,imu_link,0.007784034125506878,0.006115866359323263,0.38929033279418945,0.9210619926452637,0.0,0.0,0.0,0.0,0.0,0.0,0.0,0.0,0.0,45.8259162902832,0.29826512932777405,1.0944793224334717,0.0,0.0,0.0,0.0,0.0,0.0,0.0,0.0,0.0,-0.012862421572208405,-0.0005263682687655091,0.08656228333711624,0.0,0.0,0.0,0.0,0.0,0.0,0.0,0.0,0.0
1606991002271351951,4044467,1606987401089068065,imu_link,0.0077834902331233025,0.00611473573371768,0.38929036259651184,0.9210619926452637,0.0,0.0,0.0,0.0,0.0,0.0,0.0,0.0,0.0,45.8259162902832,0.2981700599193573,1.0943714380264282,0.0,0.0,0.0,0.0,0.0,0.0,0.0,0.0,0.0,-0.011682347394526005,0.0006563772913068533,0.07027584314346313,0.0,0.0,0.0,0.0,0.0,0.0,0.0,0.0,0.0
1606991002271374474,4044468,1606987401089129415,imu_link,0.0077834902331233025,0.00611473573371768,0.38929036259651184,0.9210619926452637,0.0,0.0,0.0,0.0,0.0,0.0,0.0,0.0,0.0,45.8259162902832,0.2981700599193573,1.0943714380264282,0.0,0.0,0.0,0.0,0.0,0.0,0.0,0.0,0.0,-0.011682347394526005,0.0006563772913068533,0.07027584314346313,0.0,0.0,0.0,0.0,0.0,0.0,0.0,0.0,0.0
1606991002271396081,4044469,1606987401101735182,imu_link,0.007784397341310978,0.006112908944487572,0.38929009437561035,0.9210621118545532,0.0,0.0,0.0,0.0,0.0,0.0,0.0,0.0,0.0,45.82588195800781,0.2979370653629303,1.0943856239318848,0.0,0.0,0.0,0.0,0.0,0.0,0.0,0.0,0.0,-0.005346271209418774,-0.004298228770494461,0.06006172299385071,0.0,0.0,0.0,0.0,0.0,0.0,0.0,0.0,0.0
1606991002349455712,4044470,1606987401101860201,imu_link,0.007784397341310978,0.006112908944487572,0.38929009437561035,0.9210621118545532,0.0,0.0,0.0,0.0,0.0,0.0,0.0,0.0,0.0,45.82588195800781,0.2979370653629303,1.0943856239318848,0.0,0.0,0.0,0.0,0.0,0.0,0.0,0.0,0.0,-0.005346271209418774,-0.004298228770494461,0.06006172299385071,0.0,0.0,0.0,0.0,0.0,0.0,0.0,0.0,0.0
1606991002349487310,4044471,1606987401101982782,imu_link,0.00778583437204361,0.006113114766776562,0.3892897367477417,0.9210621118545532,0.0,0.0,0.0,0.0,0.0,0.0,0.0,0.0,0.0,45.82583999633789,0.29789501428604126,1.0945465564727783,0.0,0.0,0.0,0.0,0.0,0.0,0.0,0.0,0.0,-0.014162045903503895,-0.009757455438375473,0.05930463224649429,0.0,0.0,0.0,0.0,0.0,0.0,0.0,0.0,0.0
1606991002349498638,4044472,1606987401102070763,imu_link,0.00778583437204361,0.006113114766776562,0.3892897367477417,0.9210621118545532,0.0,0.0,0.0,0.0,0.0,0.0,0.0,0.0,0.0,45.82583999633789,0.29789501428604126,1.0945465564727783,0.0,0.0,0.0,0.0,0.0,0.0,0.0,0.0,0.0,-0.014162045903503895,-0.009757455438375473,0.05930463224649429,0.0,0.0,0.0,0.0,0.0,0.0,0.0,0.0,0.0
1606991002349507732,4044473,1606987401102145371,imu_link,0.007788500282913446,0.00611010892316699,0.3892876207828522,0.9210631251335144,0.0,0.0,0.0,0.0,0.0,0.0,0.0,0.0,0.0,45.8255729675293,0.29746145009994507,1.0946929454803467,0.0,0.0,0.0,0.0,0.0,0.0,0.0,0.0,0.0,0.0002665460342541337,-0.012370568700134754,0.06373345106840134,0.0,0.0,0.0,0.0,0.0,0.0,0.0,0.0,0.0
1606991002358421437,4044474,1606987401102222840,imu_link,0.007788500282913446,0.00611010892316699,0.3892876207828522,0.9210631251335144,0.0,0.0,0.0,0.0,0.0,0.0,0.0,0.0,0.0,45.8255729675293,0.29746145009994507,1.0946929454803467,0.0,0.0,0.0,0.0,0.0,0.0,0.0,0.0,0.0,0.0002665460342541337,-0.012370568700134754,0.06373345106840134,0.0,0.0,0.0,0.0,0.0,0.0,0.0,0.0,0.0
1606991002358453623,4044475,1606987401102312602,imu_link,0.007788936607539654,0.006108732894062996,0.38928714394569397,0.921063244342804,0.0,0.0,0.0,0.0,0.0,0.0,0.0,0.0,0.0,45.82551193237305,0.29729723930358887,1.0946775674819946,0.0,0.0,0.0,0.0,0.0,0.0,0.0,0.0,0.0,0.00037608269485644996,0.002106405794620514,0.06794148683547974,0.0,0.0,0.0,0.0,0.0,0.0,0.0,0.0,0.0
1606991002358467751,4044476,1606987401102387327,imu_link,0.007788936607539654,0.006108732894062996,0.38928714394569397,0.921063244342804,0.0,0.0,0.0,0.0,0.0,0.0,0.0,0.0,0.0,45.82551193237305,0.29729723930358887,1.0946775674819946,0.0,0.0,0.0,0.0,0.0,0.0,0.0,0.0,0.0,0.00037608269485644996,0.002106405794620514,0.06794148683547974,0.0,0.0,0.0,0.0,0.0,0.0,0.0,0.0,0.0
1606991002358506508,4044477,1606987401102461828,imu_link,0.007789347320795059,0.006111322436481714,0.3892877399921417,0.9210630059242249,0.0,0.0,0.0,0.0,0.0,0.0,0.0,0.0,0.0,45.82558822631836,0.29755157232284546,1.0948365926742554,0.0,0.0,0.0,0.0,0.0,0.0,0.0,0.0,0.0,0.0018879254348576069,0.016337992623448372,0.07187721878290176,0.0,0.0,0.0,0.0,0.0,0.0,0.0,0.0,0.0
1606991002358522214,4044478,1606987401102528004,imu_link,0.007789347320795059,0.006111322436481714,0.3892877399921417,0.9210630059242249,0.0,0.0,0.0,0.0,0.0,0.0,0.0,0.0,0.0,45.82558822631836,0.29755157232284546,1.0948365926742554,0.0,0.0,0.0,0.0,0.0,0.0,0.0,0.0,0.0,0.0018879254348576069,0.016337992623448372,0.07187721878290176,0.0,0.0,0.0,0.0,0.0,0.0,0.0,0.0,0.0
1606991002373785596,4044479,1606987401102599747,imu_link,0.007788727059960365,0.006110204849392176,0.3892861604690552,0.9210636615753174,0.0,0.0,0.0,0.0,0.0,0.0,0.0,0.0,0.0,45.82539749145508,0.29746314883232117,1.0947208404541016,0.0,0.0,0.0,0.0,0.0,0.0,0.0,0.0,0.0,0.005808444228023291,0.005040019750595093,0.04964433237910271,0.0,0.0,0.0,0.0,0.0,0.0,0.0,0.0,0.0
1606991002373816894,4044480,1606987401115642599,imu_link,0.007788727059960365,0.006110204849392176,0.3892861604690552,0.9210636615753174,0.0,0.0,0.0,0.0,0.0,0.0,0.0,0.0,0.0,45.82539749145508,0.29746314883232117,1.0947208404541016,0.0,0.0,0.0,0.0,0.0,0.0,0.0,0.0,0.0,0.005808444228023291,0.005040019750595093,0.04964433237910271,0.0,0.0,0.0,0.0,0.0,0.0,0.0,0.0,0.0
1606991002373833155,4044481,1606987401115766633,imu_link,0.0077881948091089725,0.006111295893788338,0.3892860412597656,0.9210637211799622,0.0,0.0,0.0,0.0,0.0,0.0,0.0,0.0,0.0,45.825374603271484,0.29760220646858215,1.0947133302688599,0.0,0.0,0.0,0.0,0.0,0.0,0.0,0.0,0.0,-0.0041709886863827705,-0.010705595836043358,0.047379959374666214,0.0,0.0,0.0,0.0,0.0,0.0,0.0,0.0,0.0
1606991002373862159,4044482,1606987401115905230,imu_link,0.0077881948091089725,0.006111295893788338,0.3892860412597656,0.9210637211799622,0.0,0.0,0.0,0.0,0.0,0.0,0.0,0.0,0.0,45.825374603271484,0.29760220646858215,1.0947133302688599,0.0,0.0,0.0,0.0,0.0,0.0,0.0,0.0,0.0,-0.0041709886863827705,-0.010705595836043358,0.047379959374666214,0.0,0.0,0.0,0.0,0.0,0.0,0.0,0.0,0.0
1606991002378822812,4044483,1606987401115988284,imu_link,0.0077883172780275345,0.006112247705459595,0.38928452134132385,0.9210643768310547,0.0,0.0,0.0,0.0,0.0,0.0,0.0,0.0,0.0,45.8251838684082,0.2976990044116974,1.0947680473327637,0.0,0.0,0.0,0.0,0.0,0.0,0.0,0.0,0.0,0.006721154786646366,0.005489910952746868,0.05396721884608269,0.0,0.0,0.0,0.0,0.0,0.0,0.0,0.0,0.0
1606991002378867346,4044484,1606987401116054331,imu_link,0.0077883172780275345,0.006112247705459595,0.38928452134132385,0.9210643768310547,0.0,0.0,0.0,0.0,0.0,0.0,0.0,0.0,0.0,45.8251838684082,0.2976990044116974,1.0947680473327637,0.0,0.0,0.0,0.0,0.0,0.0,0.0,0.0,0.0,0.006721154786646366,0.005489910952746868,0.05396721884608269,0.0,0.0,0.0,0.0,0.0,0.0,0.0,0.0,0.0
1606991002378893180,4044485,1606987401116148686,imu_link,0.007786368951201439,0.006113649345934391,0.38928472995758057,0.9210643172264099,0.0,0.0,0.0,0.0,0.0,0.0,0.0,0.0,0.0,45.82521438598633,0.29793357849121094,1.0946251153945923,0.0,0.0,0.0,0.0,0.0,0.0,0.0,0.0,0.0,0.0023959889076650143,0.017815476283431053,0.05428825318813324,0.0,0.0,0.0,0.0,0.0,0.0,0.0,0.0,0.0
1606991002378921772,4044486,1606987401116225629,imu_link,0.007786368951201439,0.006113649345934391,0.38928472995758057,0.9210643172264099,0.0,0.0,0.0,0.0,0.0,0.0,0.0,0.0,0.0,45.82521438598633,0.29793357849121094,1.0946251153945923,0.0,0.0,0.0,0.0,0.0,0.0,0.0,0.0,0.0,0.0023959889076650143,0.017815476283431053,0.05428825318813324,0.0,0.0,0.0,0.0,0.0,0.0,0.0,0.0,0.0
1606991002378965687,4044487,1606987401116306456,imu_link,0.0077871899120509624,0.006114677060395479,0.38928598165512085,0.9210637807846069,0.0,0.0,0.0,0.0,0.0,0.0,0.0,0.0,0.0,45.82537078857422,0.2980039715766907,1.0947580337524414,0.0,0.0,0.0,0.0,0.0,0.0,0.0,0.0,0.0,-0.006260484457015991,0.008793088607490063,0.08759471029043198,0.0,0.0,0.0,0.0,0.0,0.0,0.0,0.0,0.0
1606991002449031318,4044488,1606987401116384565,imu_link,0.0077871899120509624,0.006114677060395479,0.38928598165512085,0.9210637807846069,0.0,0.0,0.0,0.0,0.0,0.0,0.0,0.0,0.0,45.82537078857422,0.2980039715766907,1.0947580337524414,0.0,0.0,0.0,0.0,0.0,0.0,0.0,0.0,0.0,-0.006260484457015991,0.008793088607490063,0.08759471029043198,0.0,0.0,0.0,0.0,0.0,0.0,0.0,0.0,0.0
1606991002449056294,4044489,1606987401116457276,imu_link,0.007786416448652744,0.0061132460832595825,0.3892870545387268,0.9210633635520935,0.0,0.0,0.0,0.0,0.0,0.0,0.0,0.0,0.0,45.82550048828125,0.2978861629962921,1.0946128368377686,0.0,0.0,0.0,0.0,0.0,0.0,0.0,0.0,0.0,-0.004965034779161215,-0.002957431133836508,0.06363511830568314,0.0,0.0,0.0,0.0,0.0,0.0,0.0,0.0,0.0
1606991002449073554,4044490,1606987401116529109,imu_link,0.007786416448652744,0.0061132460832595825,0.3892870545387268,0.9210633635520935,0.0,0.0,0.0,0.0,0.0,0.0,0.0,0.0,0.0,45.82550048828125,0.2978861629962921,1.0946128368377686,0.0,0.0,0.0,0.0,0.0,0.0,0.0,0.0,0.0,-0.004965034779161215,-0.002957431133836508,0.06363511830568314,0.0,0.0,0.0,0.0,0.0,0.0,0.0,0.0,0.0
1606991002449086491,4044491,1606987401128323177,imu_link,0.0077836280688643456,0.006112424191087484,0.389285147190094,0.9210641980171204,0.0,0.0,0.0,0.0,0.0,0.0,0.0,0.0,0.0,45.825260162353516,0.297926127910614,1.0942811965942383,0.0,0.0,0.0,0.0,0.0,0.0,0.0,0.0,0.0,0.0010774376569315791,-0.0024247393012046814,0.03346949443221092,0.0,0.0,0.0,0.0,0.0,0.0,0.0,0.0,0.0
1606991002454147903,4044492,1606987401128423156,imu_link,0.0077836280688643456,0.006112424191087484,0.389285147190094,0.9210641980171204,0.0,0.0,0.0,0.0,0.0,0.0,0.0,0.0,0.0,45.825260162353516,0.297926127910614,1.0942811965942383,0.0,0.0,0.0,0.0,0.0,0.0,0.0,0.0,0.0,0.0010774376569315791,-0.0024247393012046814,0.03346949443221092,0.0,0.0,0.0,0.0,0.0,0.0,0.0,0.0,0.0
1606991002454185005,4044493,1606987401128532898,imu_link,0.007784135639667511,0.006111606024205685,0.38928380608558655,0.9210647344589233,0.0,0.0,0.0,0.0,0.0,0.0,0.0,0.0,0.0,45.825096130371094,0.297818660736084,1.0942978858947754,0.0,0.0,0.0,0.0,0.0,0.0,0.0,0.0,0.0,0.009358303621411324,0.00974603183567524,0.05148546025156975,0.0,0.0,0.0,0.0,0.0,0.0,0.0,0.0,0.0
1606991002454217415,4044494,1606987401128609841,imu_link,0.007784135639667511,0.006111606024205685,0.38928380608558655,0.9210647344589233,0.0,0.0,0.0,0.0,0.0,0.0,0.0,0.0,0.0,45.825096130371094,0.297818660736084,1.0942978858947754,0.0,0.0,0.0,0.0,0.0,0.0,0.0,0.0,0.0,0.009358303621411324,0.00974603183567524,0.05148546025156975,0.0,0.0,0.0,0.0,0.0,0.0,0.0,0.0,0.0
1606991002454240143,4044495,1606987401128682898,imu_link,0.00778578594326973,0.006109678652137518,0.38928258419036865,0.9210652709007263,0.0,0.0,0.0,0.0,0.0,0.0,0.0,0.0,0.0,45.8249397277832,0.29754310846328735,1.0943856239318848,0.0,0.0,0.0,0.0,0.0,0.0,0.0,0.0,0.0,-0.00846338365226984,0.01567850634455681,0.047220829874277115,0.0,0.0,0.0,0.0,0.0,0.0,0.0,0.0,0.0
1606991002454264330,4044496,1606987401128770755,imu_link,0.00778578594326973,0.006109678652137518,0.38928258419036865,0.9210652709007263,0.0,0.0,0.0,0.0,0.0,0.0,0.0,0.0,0.0,45.8249397277832,0.29754310846328735,1.0943856239318848,0.0,0.0,0.0,0.0,0.0,0.0,0.0,0.0,0.0,-0.00846338365226984,0.01567850634455681,0.047220829874277115,0.0,0.0,0.0,0.0,0.0,0.0,0.0,0.0,0.0
1606991002464576385,4044497,1606987401128847733,imu_link,0.0077843377366662025,0.006105400621891022,0.3892841637134552,0.9210646748542786,0.0,0.0,0.0,0.0,0.0,0.0,0.0,0.0,0.0,45.825130462646484,0.29715433716773987,1.094042420387268,0.0,0.0,0.0,0.0,0.0,0.0,0.0,0.0,0.0,-0.016420874744653702,-0.009675387293100357,0.03946257755160332,0.0,0.0,0.0,0.0,0.0,0.0,0.0,0.0,0.0
1606991002464614181,4044498,1606987401128919486,imu_link,0.0077843377366662025,0.006105400621891022,0.3892841637134552,0.9210646748542786,0.0,0.0,0.0,0.0,0.0,0.0,0.0,0.0,0.0,45.825130462646484,0.29715433716773987,1.094042420387268,0.0,0.0,0.0,0.0,0.0,0.0,0.0,0.0,0.0,-0.016420874744653702,-0.009675387293100357,0.03946257755160332,0.0,0.0,0.0,0.0,0.0,0.0,0.0,0.0,0.0
1606991002464625353,4044499,1606987401128994272,imu_link,0.007782827131450176,0.006101895589381456,0.38928499817848206,0.9210643172264099,0.0,0.0,0.0,0.0,0.0,0.0,0.0,0.0,0.0,45.82522964477539,0.2968508005142212,1.0937267541885376,0.0,0.0,0.0,0.0,0.0,0.0,0.0,0.0,0.0,-0.01046290434896946,-0.0007761946180835366,0.04689532890915871,0.0,0.0,0.0,0.0,0.0,0.0,0.0,0.0,0.0
1606991002464636584,4044500,1606987401129066715,imu_link,0.007782827131450176,0.006101895589381456,0.38928499817848206,0.9210643172264099,0.0,0.0,0.0,0.0,0.0,0.0,0.0,0.0,0.0,45.82522964477539,0.2968508005142212,1.0937267541885376,0.0,0.0,0.0,0.0,0.0,0.0,0.0,0.0,0.0,-0.01046290434896946,-0.0007761946180835366,0.04689532890915871,0.0,0.0,0.0,0.0,0.0,0.0,0.0,0.0,0.0
1606991002470358148,4044501,1606987401141697938,imu_link,0.007785071153193712,0.006097820587456226,0.38928478956222534,0.9210644364356995,0.0,0.0,0.0,0.0,0.0,0.0,0.0,0.0,0.0,45.825199127197266,0.2963208556175232,1.0937817096710205,0.0,0.0,0.0,0.0,0.0,0.0,0.0,0.0,0.0,-0.00678519532084465,0.013757506385445595,0.038754262030124664,0.0,0.0,0.0,0.0,0.0,0.0,0.0,0.0,0.0
1606991002470409039,4044502,1606987401141798366,imu_link,0.007785071153193712,0.006097820587456226,0.38928478956222534,0.9210644364356995,0.0,0.0,0.0,0.0,0.0,0.0,0.0,0.0,0.0,45.825199127197266,0.2963208556175232,1.0937817096710205,0.0,0.0,0.0,0.0,0.0,0.0,0.0,0.0,0.0,-0.00678519532084465,0.013757506385445595,0.038754262030124664,0.0,0.0,0.0,0.0,0.0,0.0,0.0,0.0,0.0
1606991002470428815,4044503,1606987401141902932,imu_link,0.007784017361700535,0.006100413855165243,0.3892841041088104,0.9210647344589233,0.0,0.0,0.0,0.0,0.0,0.0,0.0,0.0,0.0,45.82511520385742,0.29664239287376404,1.0937860012054443,0.0,0.0,0.0,0.0,0.0,0.0,0.0,0.0,0.0,0.00895900372415781,-0.018233155831694603,0.030772121623158455,0.0,0.0,0.0,0.0,0.0,0.0,0.0,0.0,0.0
1606991002470451220,4044504,1606987401141979439,imu_link,0.007784017361700535,0.006100413855165243,0.3892841041088104,0.9210647344589233,0.0,0.0,0.0,0.0,0.0,0.0,0.0,0.0,0.0,45.82511520385742,0.29664239287376404,1.0937860012054443,0.0,0.0,0.0,0.0,0.0,0.0,0.0,0.0,0.0,0.00895900372415781,-0.018233155831694603,0.030772121623158455,0.0,0.0,0.0,0.0,0.0,0.0,0.0,0.0,0.0
1606991002470530573,4044505,1606987401142052818,imu_link,0.007786758244037628,0.006102166138589382,0.389285683631897,0.921064019203186,0.0,0.0,0.0,0.0,0.0,0.0,0.0,0.0,0.0,45.825313568115234,0.29670315980911255,1.0941542387008667,0.0,0.0,0.0,0.0,0.0,0.0,0.0,0.0,0.0,-0.0014293682761490345,-0.031056934967637062,0.037373315542936325,0.0,0.0,0.0,0.0,0.0,0.0,0.0,0.0,0.0
1606991002574379464,4044506,1606987401142125126,imu_link,0.007786758244037628,0.006102166138589382,0.389285683631897,0.921064019203186,0.0,0.0,0.0,0.0,0.0,0.0,0.0,0.0,0.0,45.825313568115234,0.29670315980911255,1.0941542387008667,0.0,0.0,0.0,0.0,0.0,0.0,0.0,0.0,0.0,-0.0014293682761490345,-0.031056934967637062,0.037373315542936325,0.0,0.0,0.0,0.0,0.0,0.0,0.0,0.0,0.0
1606991002574414296,4044507,1606987401142218855,imu_link,0.007785692811012268,0.006102445535361767,0.3892865478992462,0.9210635423660278,0.0,0.0,0.0,0.0,0.0,0.0,0.0,0.0,0.0,45.82543182373047,0.296779066324234,1.0940544605255127,0.0,0.0,0.0,0.0,0.0,0.0,0.0,0.0,0.0,-0.013426119461655617,-0.01150173507630825,0.04924340546131134,0.0,0.0,0.0,0.0,0.0,0.0,0.0,0.0,0.0
1606991002574429322,4044508,1606987401142295561,imu_link,0.007785692811012268,0.006102445535361767,0.3892865478992462,0.9210635423660278,0.0,0.0,0.0,0.0,0.0,0.0,0.0,0.0,0.0,45.82543182373047,0.296779066324234,1.0940544605255127,0.0,0.0,0.0,0.0,0.0,0.0,0.0,0.0,0.0,-0.013426119461655617,-0.01150173507630825,0.04924340546131134,0.0,0.0,0.0,0.0,0.0,0.0,0.0,0.0,0.0
1606991002574448690,4044509,1606987401142470255,imu_link,0.007786789909005165,0.006101452279835939,0.38928768038749695,0.9210630655288696,0.0,0.0,0.0,0.0,0.0,0.0,0.0,0.0,0.0,45.825565338134766,0.29662400484085083,1.0941263437271118,0.0,0.0,0.0,0.0,0.0,0.0,0.0,0.0,0.0,0.0011024257401004434,0.002558751730248332,0.04358643665909767,0.0,0.0,0.0,0.0,0.0,0.0,0.0,0.0,0.0
1606991002583406031,4044510,1606987401142552450,imu_link,0.007786789909005165,0.006101452279835939,0.38928768038749695,0.9210630655288696,0.0,0.0,0.0,0.0,0.0,0.0,0.0,0.0,0.0,45.825565338134766,0.29662400484085083,1.0941263437271118,0.0,0.0,0.0,0.0,0.0,0.0,0.0,0.0,0.0,0.0011024257401004434,0.002558751730248332,0.04358643665909767,0.0,0.0,0.0,0.0,0.0,0.0,0.0,0.0,0.0
1606991002583447621,4044511,1606987401142699964,imu_link,0.0077862972393631935,0.006102301646023989,0.38928624987602234,0.9210637807846069,0.0,0.0,0.0,0.0,0.0,0.0,0.0,0.0,0.0,45.82538986206055,0.2967373728752136,1.0941115617752075,0.0,0.0,0.0,0.0,0.0,0.0,0.0,0.0,0.0,0.004378186073154211,0.018501099199056625,0.03660856932401657,0.0,0.0,0.0,0.0,0.0,0.0,0.0,0.0,0.0
1606991002583472289,4044512,1606987401155920623,imu_link,0.0077862972393631935,0.006102301646023989,0.38928624987602234,0.9210637807846069,0.0,0.0,0.0,0.0,0.0,0.0,0.0,0.0,0.0,45.82538986206055,0.2967373728752136,1.0941115617752075,0.0,0.0,0.0,0.0,0.0,0.0,0.0,0.0,0.0,0.004378186073154211,0.018501099199056625,0.03660856932401657,0.0,0.0,0.0,0.0,0.0,0.0,0.0,0.0,0.0
1606991002583484996,4044513,1606987401156044310,imu_link,0.0077833873219788074,0.006102707702666521,0.38928574323654175,0.921064019203186,0.0,0.0,0.0,0.0,0.0,0.0,0.0,0.0,0.0,45.825321197509766,0.2969106435775757,1.0938223600387573,0.0,0.0,0.0,0.0,0.0,0.0,0.0,0.0,0.0,-0.0029968880116939545,0.024971982464194298,0.047985754907131195,0.0,0.0,0.0,0.0,0.0,0.0,0.0,0.0,0.0
1606991002583510217,4044514,1606987401156167128,imu_link,0.0077833873219788074,0.006102707702666521,0.38928574323654175,0.921064019203186,0.0,0.0,0.0,0.0,0.0,0.0,0.0,0.0,0.0,45.825321197509766,0.2969106435775757,1.0938223600387573,0.0,0.0,0.0,0.0,0.0,0.0,0.0,0.0,0.0,-0.0029968880116939545,0.024971982464194298,0.047985754907131195,0.0,0.0,0.0,0.0,0.0,0.0,0.0,0.0,0.0
1606991002587970025,4044515,1606987401156254503,imu_link,0.007784611079841852,0.0061019971035420895,0.3892870843410492,0.9210633039474487,0.0,0.0,0.0,0.0,0.0,0.0,0.0,0.0,0.0,45.82550048828125,0.2967793643474579,1.093920350074768,0.0,0.0,0.0,0.0,0.0,0.0,0.0,0.0,0.0,-0.01596101187169552,0.006804796401411295,0.04722287133336067,0.0,0.0,0.0,0.0,0.0,0.0,0.0,0.0,0.0
1606991002588004728,4044516,1606987401156331739,imu_link,0.007784611079841852,0.0061019971035420895,0.3892870843410492,0.9210633039474487,0.0,0.0,0.0,0.0,0.0,0.0,0.0,0.0,0.0,45.82550048828125,0.2967793643474579,1.093920350074768,0.0,0.0,0.0,0.0,0.0,0.0,0.0,0.0,0.0,-0.01596101187169552,0.006804796401411295,0.04722287133336067,0.0,0.0,0.0,0.0,0.0,0.0,0.0,0.0,0.0
1606991002588020378,4044517,1606987401156400308,imu_link,0.00778473075479269,0.006098832935094833,0.3892877697944641,0.9210631847381592,0.0,0.0,0.0,0.0,0.0,0.0,0.0,0.0,0.0,45.825565338134766,0.29643937945365906,1.0937919616699219,0.0,0.0,0.0,0.0,0.0,0.0,0.0,0.0,0.0,-0.015358105301856995,-0.004139622673392296,0.05250484123826027,0.0,0.0,0.0,0.0,0.0,0.0,0.0,0.0,0.0
1606991002588039056,4044518,1606987401156488217,imu_link,0.00778473075479269,0.006098832935094833,0.3892877697944641,0.9210631847381592,0.0,0.0,0.0,0.0,0.0,0.0,0.0,0.0,0.0,45.825565338134766,0.29643937945365906,1.0937919616699219,0.0,0.0,0.0,0.0,0.0,0.0,0.0,0.0,0.0,-0.015358105301856995,-0.004139622673392296,0.05250484123826027,0.0,0.0,0.0,0.0,0.0,0.0,0.0,0.0,0.0
1606991002594088729,4044519,1606987401156560844,imu_link,0.00778473075479269,0.006098832935094833,0.3892877697944641,0.9210631847381592,0.0,0.0,0.0,0.0,0.0,0.0,0.0,0.0,0.0,45.825565338134766,0.29643937945365906,1.0937919616699219,0.0,0.0,0.0,0.0,0.0,0.0,0.0,0.0,0.0,-0.02109827846288681,-0.0181486364454031,0.05210351571440697,0.0,0.0,0.0,0.0,0.0,0.0,0.0,0.0,0.0
1606991002594124998,4044520,1606987401156625424,imu_link,0.00778473075479269,0.006098832935094833,0.3892877697944641,0.9210631847381592,0.0,0.0,0.0,0.0,0.0,0.0,0.0,0.0,0.0,45.825565338134766,0.29643937945365906,1.0937919616699219,0.0,0.0,0.0,0.0,0.0,0.0,0.0,0.0,0.0,-0.02109827846288681,-0.0181486364454031,0.05210351571440697,0.0,0.0,0.0,0.0,0.0,0.0,0.0,0.0,0.0
1606991002594138249,4044521,1606987401156697221,imu_link,0.0077873049303889275,0.006096509750932455,0.3892887532711029,0.9210627675056458,0.0,0.0,0.0,0.0,0.0,0.0,0.0,0.0,0.0,45.82569122314453,0.2960781753063202,1.0939602851867676,0.0,0.0,0.0,0.0,0.0,0.0,0.0,0.0,0.0,-0.0014708451926708221,-0.012710991315543652,0.03336748480796814,0.0,0.0,0.0,0.0,0.0,0.0,0.0,0.0,0.0
1606991002594147496,4044522,1606987401156775821,imu_link,0.0077873049303889275,0.006096509750932455,0.3892887532711029,0.9210627675056458,0.0,0.0,0.0,0.0,0.0,0.0,0.0,0.0,0.0,45.82569122314453,0.2960781753063202,1.0939602851867676,0.0,0.0,0.0,0.0,0.0,0.0,0.0,0.0,0.0,-0.0014708451926708221,-0.012710991315543652,0.03336748480796814,0.0,0.0,0.0,0.0,0.0,0.0,0.0,0.0,0.0
1606991002685700851,4044523,1606987401169168748,imu_link,0.007786948699504137,0.006095972843468189,0.3892884850502014,0.9210628867149353,0.0,0.0,0.0,0.0,0.0,0.0,0.0,0.0,0.0,45.82565689086914,0.2960376739501953,1.0938986539840698,0.0,0.0,0.0,0.0,0.0,0.0,0.0,0.0,0.0,0.021926183253526688,0.0013412672560662031,0.0274396650493145,0.0,0.0,0.0,0.0,0.0,0.0,0.0,0.0,0.0
1606991002685738904,4044524,1606987401169292332,imu_link,0.007786948699504137,0.006095972843468189,0.3892884850502014,0.9210628867149353,0.0,0.0,0.0,0.0,0.0,0.0,0.0,0.0,0.0,45.82565689086914,0.2960376739501953,1.0938986539840698,0.0,0.0,0.0,0.0,0.0,0.0,0.0,0.0,0.0,0.021926183253526688,0.0013412672560662031,0.0274396650493145,0.0,0.0,0.0,0.0,0.0,0.0,0.0,0.0,0.0
1606991002685757322,4044525,1606987401169427610,imu_link,0.007786521688103676,0.006099242251366377,0.38928669691085815,0.9210635423660278,0.0,0.0,0.0,0.0,0.0,0.0,0.0,0.0,0.0,45.825443267822266,0.2964038550853729,1.0939990282058716,0.0,0.0,0.0,0.0,0.0,0.0,0.0,0.0,0.0,0.00904178898781538,0.0022554448805749416,0.06513143330812454,0.0,0.0,0.0,0.0,0.0,0.0,0.0,0.0,0.0
1606991002685766751,4044526,1606987401169513060,imu_link,0.007786521688103676,0.006099242251366377,0.38928669691085815,0.9210635423660278,0.0,0.0,0.0,0.0,0.0,0.0,0.0,0.0,0.0,45.825443267822266,0.2964038550853729,1.0939990282058716,0.0,0.0,0.0,0.0,0.0,0.0,0.0,0.0,0.0,0.00904178898781538,0.0022554448805749416,0.06513143330812454,0.0,0.0,0.0,0.0,0.0,0.0,0.0,0.0,0.0
1606991002685786860,4044527,1606987401169578804,imu_link,0.007785233668982983,0.006100620608776808,0.3892858028411865,0.9210639595985413,0.0,0.0,0.0,0.0,0.0,0.0,0.0,0.0,0.0,45.82533645629883,0.2966078817844391,1.0939241647720337,0.0,0.0,0.0,0.0,0.0,0.0,0.0,0.0,0.0,-0.011288453824818134,0.008956501260399818,0.07290400564670563,0.0,0.0,0.0,0.0,0.0,0.0,0.0,0.0,0.0
1606991002691922106,4044528,1606987401169651826,imu_link,0.007785233668982983,0.006100620608776808,0.3892858028411865,0.9210639595985413,0.0,0.0,0.0,0.0,0.0,0.0,0.0,0.0,0.0,45.82533645629883,0.2966078817844391,1.0939241647720337,0.0,0.0,0.0,0.0,0.0,0.0,0.0,0.0,0.0,-0.011288453824818134,0.008956501260399818,0.07290400564670563,0.0,0.0,0.0,0.0,0.0,0.0,0.0,0.0,0.0
1606991002691951701,4044529,1606987401169738360,imu_link,0.00778536731377244,0.0061002690345048904,0.38928285241127014,0.9210652112960815,0.0,0.0,0.0,0.0,0.0,0.0,0.0,0.0,0.0,45.82495880126953,0.2965683341026306,1.0939216613769531,0.0,0.0,0.0,0.0,0.0,0.0,0.0,0.0,0.0,-0.01864614151418209,0.0034235743805766106,0.03417709097266197,0.0,0.0,0.0,0.0,0.0,0.0,0.0,0.0,0.0
1606991002691965889,4044530,1606987401169809627,imu_link,0.00778536731377244,0.0061002690345048904,0.38928285241127014,0.9210652112960815,0.0,0.0,0.0,0.0,0.0,0.0,0.0,0.0,0.0,45.82495880126953,0.2965683341026306,1.0939216613769531,0.0,0.0,0.0,0.0,0.0,0.0,0.0,0.0,0.0,-0.01864614151418209,0.0034235743805766106,0.03417709097266197,0.0,0.0,0.0,0.0,0.0,0.0,0.0,0.0,0.0
1606991002691983808,4044531,1606987401169954161,imu_link,0.00778568210080266,0.006100907921791077,0.3892837464809418,0.9210647940635681,0.0,0.0,0.0,0.0,0.0,0.0,0.0,0.0,0.0,45.825077056884766,0.2966206669807434,1.093983769416809,0.0,0.0,0.0,0.0,0.0,0.0,0.0,0.0,0.0,-0.0077954428270459175,0.004215290304273367,0.03233235329389572,0.0,0.0,0.0,0.0,0.0,0.0,0.0,0.0,0.0
1606991002701816873,4044532,1606987401170028467,imu_link,0.00778568210080266,0.006100907921791077,0.3892837464809418,0.9210647940635681,0.0,0.0,0.0,0.0,0.0,0.0,0.0,0.0,0.0,45.825077056884766,0.2966206669807434,1.093983769416809,0.0,0.0,0.0,0.0,0.0,0.0,0.0,0.0,0.0,-0.0077954428270459175,0.004215290304273367,0.03233235329389572,0.0,0.0,0.0,0.0,0.0,0.0,0.0,0.0,0.0
1606991002701880169,4044533,1606987401170104914,imu_link,0.007785717491060495,0.006100559141486883,0.3892846703529358,0.9210644364356995,0.0,0.0,0.0,0.0,0.0,0.0,0.0,0.0,0.0,45.82518768310547,0.2965811789035797,1.093972086906433,0.0,0.0,0.0,0.0,0.0,0.0,0.0,0.0,0.0,-0.004269198048859835,0.010775163769721985,0.050580497831106186,0.0,0.0,0.0,0.0,0.0,0.0,0.0,0.0,0.0
1606991002701934695,4044534,1606987401182976353,imu_link,0.007785717491060495,0.006100559141486883,0.3892846703529358,0.9210644364356995,0.0,0.0,0.0,0.0,0.0,0.0,0.0,0.0,0.0,45.82518768310547,0.2965811789035797,1.093972086906433,0.0,0.0,0.0,0.0,0.0,0.0,0.0,0.0,0.0,-0.004269198048859835,0.010775163769721985,0.050580497831106186,0.0,0.0,0.0,0.0,0.0,0.0,0.0,0.0,0.0
1606991002701998169,4044535,1606987401183126896,imu_link,0.007787633687257767,0.0060998559929430485,0.3892841041088104,0.9210646748542786,0.0,0.0,0.0,0.0,0.0,0.0,0.0,0.0,0.0,45.82511520385742,0.29642215371131897,1.0941429138183594,0.0,0.0,0.0,0.0,0.0,0.0,0.0,0.0,0.0,-0.0001624522265046835,0.00031261693220585585,0.06463731080293655,0.0,0.0,0.0,0.0,0.0,0.0,0.0,0.0,0.0
1606991002702022933,4044536,1606987401183256762,imu_link,0.007787633687257767,0.0060998559929430485,0.3892841041088104,0.9210646748542786,0.0,0.0,0.0,0.0,0.0,0.0,0.0,0.0,0.0,45.82511520385742,0.29642215371131897,1.0941429138183594,0.0,0.0,0.0,0.0,0.0,0.0,0.0,0.0,0.0,-0.0001624522265046835,0.00031261693220585585,0.06463731080293655,0.0,0.0,0.0,0.0,0.0,0.0,0.0,0.0,0.0
1606991002722047569,4044537,1606987401183344364,imu_link,0.007785614114254713,0.006100906524807215,0.38928428292274475,0.9210646152496338,0.0,0.0,0.0,0.0,0.0,0.0,0.0,0.0,0.0,45.82514190673828,0.2966229021549225,1.0939767360687256,0.0,0.0,0.0,0.0,0.0,0.0,0.0,0.0,0.0,0.0009626496466808021,-0.014506006613373756,0.056006547063589096,0.0,0.0,0.0,0.0,0.0,0.0,0.0,0.0,0.0
1606991002722088079,4044538,1606987401183424991,imu_link,0.007785614114254713,0.006100906524807215,0.38928428292274475,0.9210646152496338,0.0,0.0,0.0,0.0,0.0,0.0,0.0,0.0,0.0,45.82514190673828,0.2966229021549225,1.0939767360687256,0.0,0.0,0.0,0.0,0.0,0.0,0.0,0.0,0.0,0.0009626496466808021,-0.014506006613373756,0.056006547063589096,0.0,0.0,0.0,0.0,0.0,0.0,0.0,0.0,0.0
1606991002722103107,4044539,1606987401183517530,imu_link,0.007786206901073456,0.006099903490394354,0.3892829716205597,0.9210651516914368,0.0,0.0,0.0,0.0,0.0,0.0,0.0,0.0,0.0,45.82497787475586,0.29649215936660767,1.093994140625,0.0,0.0,0.0,0.0,0.0,0.0,0.0,0.0,0.0,-0.0033419590909034014,-0.00836995244026184,0.052775632590055466,0.0,0.0,0.0,0.0,0.0,0.0,0.0,0.0,0.0
1606991002722156865,4044540,1606987401183598352,imu_link,0.007786206901073456,0.006099903490394354,0.3892829716205597,0.9210651516914368,0.0,0.0,0.0,0.0,0.0,0.0,0.0,0.0,0.0,45.82497787475586,0.29649215936660767,1.093994140625,0.0,0.0,0.0,0.0,0.0,0.0,0.0,0.0,0.0,-0.0033419590909034014,-0.00836995244026184,0.052775632590055466,0.0,0.0,0.0,0.0,0.0,0.0,0.0,0.0,0.0
1606991002790086987,4044541,1606987401183769739,imu_link,0.007789344992488623,0.006099837366491556,0.38928306102752686,0.921065092086792,0.0,0.0,0.0,0.0,0.0,0.0,0.0,0.0,0.0,45.82498550415039,0.2963450849056244,1.0943224430084229,0.0,0.0,0.0,0.0,0.0,0.0,0.0,0.0,0.0,-0.014382722787559032,0.0064264144748449326,0.055705778300762177,0.0,0.0,0.0,0.0,0.0,0.0,0.0,0.0,0.0
1606991002790116174,4044542,1606987401183855562,imu_link,0.007789344992488623,0.006099837366491556,0.38928306102752686,0.921065092086792,0.0,0.0,0.0,0.0,0.0,0.0,0.0,0.0,0.0,45.82498550415039,0.2963450849056244,1.0943224430084229,0.0,0.0,0.0,0.0,0.0,0.0,0.0,0.0,0.0,-0.014382722787559032,0.0064264144748449326,0.055705778300762177,0.0,0.0,0.0,0.0,0.0,0.0,0.0,0.0,0.0
1606991002790137037,4044543,1606987401183941622,imu_link,0.007789671421051025,0.006102031096816063,0.38928189873695374,0.9210655689239502,0.0,0.0,0.0,0.0,0.0,0.0,0.0,0.0,0.0,45.82484817504883,0.29656341671943665,1.0944544076919556,0.0,0.0,0.0,0.0,0.0,0.0,0.0,0.0,0.0,-0.020687328651547432,0.0036769560538232327,0.061188362538814545,0.0,0.0,0.0,0.0,0.0,0.0,0.0,0.0,0.0
1606991002790146878,4044544,1606987401184021356,imu_link,0.007789671421051025,0.006102031096816063,0.38928189873695374,0.9210655689239502,0.0,0.0,0.0,0.0,0.0,0.0,0.0,0.0,0.0,45.82484817504883,0.29656341671943665,1.0944544076919556,0.0,0.0,0.0,0.0,0.0,0.0,0.0,0.0,0.0,-0.020687328651547432,0.0036769560538232327,0.061188362538814545,0.0,0.0,0.0,0.0,0.0,0.0,0.0,0.0,0.0
1606991002790153904,4044545,1606987401195935003,imu_link,0.007792280986905098,0.0060965935699641705,0.3892829418182373,0.921065092086792,0.0,0.0,0.0,0.0,0.0,0.0,0.0,0.0,0.0,45.824974060058594,0.2958718240261078,1.0944875478744507,0.0,0.0,0.0,0.0,0.0,0.0,0.0,0.0,0.0,0.0025204222183674574,0.004509506747126579,0.06259362399578094,0.0,0.0,0.0,0.0,0.0,0.0,0.0,0.0,0.0
1606991002796416129,4044546,1606987401196072521,imu_link,0.007792280986905098,0.0060965935699641705,0.3892829418182373,0.921065092086792,0.0,0.0,0.0,0.0,0.0,0.0,0.0,0.0,0.0,45.824974060058594,0.2958718240261078,1.0944875478744507,0.0,0.0,0.0,0.0,0.0,0.0,0.0,0.0,0.0,0.0025204222183674574,0.004509506747126579,0.06259362399578094,0.0,0.0,0.0,0.0,0.0,0.0,0.0,0.0,0.0
1606991002796451984,4044547,1606987401196198658,imu_link,0.007794056553393602,0.006095583550632,0.38928234577178955,0.9210653901100159,0.0,0.0,0.0,0.0,0.0,0.0,0.0,0.0,0.0,45.824893951416016,0.2956867814064026,1.0946296453475952,0.0,0.0,0.0,0.0,0.0,0.0,0.0,0.0,0.0,0.014635239727795124,0.006448545027524233,0.06041472777724266,0.0,0.0,0.0,0.0,0.0,0.0,0.0,0.0,0.0
1606991002796469033,4044548,1606987401196284772,imu_link,0.007794056553393602,0.006095583550632,0.38928234577178955,0.9210653901100159,0.0,0.0,0.0,0.0,0.0,0.0,0.0,0.0,0.0,45.824893951416016,0.2956867814064026,1.0946296453475952,0.0,0.0,0.0,0.0,0.0,0.0,0.0,0.0,0.0,0.014635239727795124,0.006448545027524233,0.06041472777724266,0.0,0.0,0.0,0.0,0.0,0.0,0.0,0.0,0.0
1606991002796481260,4044549,1606987401196370511,imu_link,0.007791084703058004,0.006098905112594366,0.38928383588790894,0.9210647940635681,0.0,0.0,0.0,0.0,0.0,0.0,0.0,0.0,0.0,45.82508087158203,0.29616817831993103,1.0944645404815674,0.0,0.0,0.0,0.0,0.0,0.0,0.0,0.0,0.0,0.0017726158257573843,0.01158125139772892,0.047877781093120575,0.0,0.0,0.0,0.0,0.0,0.0,0.0,0.0,0.0
1606991002802778344,4044550,1606987401196468813,imu_link,0.007791084703058004,0.006098905112594366,0.38928383588790894,0.9210647940635681,0.0,0.0,0.0,0.0,0.0,0.0,0.0,0.0,0.0,45.82508087158203,0.29616817831993103,1.0944645404815674,0.0,0.0,0.0,0.0,0.0,0.0,0.0,0.0,0.0,0.0017726158257573843,0.01158125139772892,0.047877781093120575,0.0,0.0,0.0,0.0,0.0,0.0,0.0,0.0,0.0
1606991002802796796,4044551,1606987401196549480,imu_link,0.00779384933412075,0.006096000783145428,0.38928258419036865,0.9210652709007263,0.0,0.0,0.0,0.0,0.0,0.0,0.0,0.0,0.0,45.82492446899414,0.2957397699356079,1.0946264266967773,0.0,0.0,0.0,0.0,0.0,0.0,0.0,0.0,0.0,-0.005375393666327,0.007150980643928051,0.04007233679294586,0.0,0.0,0.0,0.0,0.0,0.0,0.0,0.0,0.0
1606991002802804400,4044552,1606987401196711585,imu_link,0.00779384933412075,0.006096000783145428,0.38928258419036865,0.9210652709007263,0.0,0.0,0.0,0.0,0.0,0.0,0.0,0.0,0.0,45.82492446899414,0.2957397699356079,1.0946264266967773,0.0,0.0,0.0,0.0,0.0,0.0,0.0,0.0,0.0,-0.005375393666327,0.007150980643928051,0.04007233679294586,0.0,0.0,0.0,0.0,0.0,0.0,0.0,0.0,0.0
1606991002802812372,4044553,1606987401196798065,imu_link,0.007793016731739044,0.006094465032219887,0.38928332924842834,0.9210649728775024,0.0,0.0,0.0,0.0,0.0,0.0,0.0,0.0,0.0,45.825016021728516,0.2956139147281647,1.0944702625274658,0.0,0.0,0.0,0.0,0.0,0.0,0.0,0.0,0.0,-0.013070727698504925,-0.0025349073112010956,0.04653893783688545,0.0,0.0,0.0,0.0,0.0,0.0,0.0,0.0,0.0
1606991002802837278,4044554,1606987401196885994,imu_link,0.007793016731739044,0.006094465032219887,0.38928332924842834,0.9210649728775024,0.0,0.0,0.0,0.0,0.0,0.0,0.0,0.0,0.0,45.825016021728516,0.2956139147281647,1.0944702625274658,0.0,0.0,0.0,0.0,0.0,0.0,0.0,0.0,0.0,-0.013070727698504925,-0.0025349073112010956,0.04653893783688545,0.0,0.0,0.0,0.0,0.0,0.0,0.0,0.0,0.0
1606991002813367255,4044555,1606987401209318130,imu_link,0.007793016731739044,0.006094465032219887,0.38928332924842834,0.9210649728775024,0.0,0.0,0.0,0.0,0.0,0.0,0.0,0.0,0.0,45.825016021728516,0.2956139147281647,1.0944702625274658,0.0,0.0,0.0,0.0,0.0,0.0,0.0,0.0,0.0,-0.003909779246896505,-0.006749318912625313,0.03804763779044151,0.0,0.0,0.0,0.0,0.0,0.0,0.0,0.0,0.0
1606991002813395554,4044556,1606987401209460680,imu_link,0.007793016731739044,0.006094465032219887,0.38928332924842834,0.9210649728775024,0.0,0.0,0.0,0.0,0.0,0.0,0.0,0.0,0.0,45.825016021728516,0.2956139147281647,1.0944702625274658,0.0,0.0,0.0,0.0,0.0,0.0,0.0,0.0,0.0,-0.003909779246896505,-0.006749318912625313,0.03804763779044151,0.0,0.0,0.0,0.0,0.0,0.0,0.0,0.0,0.0
1606991002813402144,4044557,1606987401209606774,imu_link,0.0077962386421859264,0.006093703676015139,0.3892827332019806,0.9210652112960815,0.0,0.0,0.0,0.0,0.0,0.0,0.0,0.0,0.0,45.8249397277832,0.2953905165195465,1.0947760343551636,0.0,0.0,0.0,0.0,0.0,0.0,0.0,0.0,0.0,0.012942454777657986,-0.007822874002158642,0.04041289538145065,0.0,0.0,0.0,0.0,0.0,0.0,0.0,0.0,0.0
1606991002813409867,4044558,1606987401209703753,imu_link,0.0077962386421859264,0.006093703676015139,0.3892827332019806,0.9210652112960815,0.0,0.0,0.0,0.0,0.0,0.0,0.0,0.0,0.0,45.8249397277832,0.2953905165195465,1.0947760343551636,0.0,0.0,0.0,0.0,0.0,0.0,0.0,0.0,0.0,0.012942454777657986,-0.007822874002158642,0.04041289538145065,0.0,0.0,0.0,0.0,0.0,0.0,0.0,0.0,0.0
1606991002925428979,4044559,1606987401209786670,imu_link,0.0077969469130039215,0.006094004493206739,0.38928303122520447,0.921065092086792,0.0,0.0,0.0,0.0,0.0,0.0,0.0,0.0,0.0,45.82497787475586,0.2953903377056122,1.0948644876480103,0.0,0.0,0.0,0.0,0.0,0.0,0.0,0.0,0.0,0.017562631517648697,-0.0013308408670127392,0.0422079861164093,0.0,0.0,0.0,0.0,0.0,0.0,0.0,0.0,0.0
1606991002925458112,4044560,1606987401209867808,imu_link,0.0077969469130039215,0.006094004493206739,0.38928303122520447,0.921065092086792,0.0,0.0,0.0,0.0,0.0,0.0,0.0,0.0,0.0,45.82497787475586,0.2953903377056122,1.0948644876480103,0.0,0.0,0.0,0.0,0.0,0.0,0.0,0.0,0.0,0.017562631517648697,-0.0013308408670127392,0.0422079861164093,0.0,0.0,0.0,0.0,0.0,0.0,0.0,0.0,0.0
1606991002925474672,4044561,1606987401209965990,imu_link,0.0077967350371181965,0.006097452715039253,0.3892814517021179,0.9210657477378845,0.0,0.0,0.0,0.0,0.0,0.0,0.0,0.0,0.0,45.82478332519531,0.29576560854911804,1.0949956178665161,0.0,0.0,0.0,0.0,0.0,0.0,0.0,0.0,0.0,0.015507247298955917,-0.011813338845968246,0.06048306077718735,0.0,0.0,0.0,0.0,0.0,0.0,0.0,0.0,0.0
1606991002925484879,4044562,1606987401210050345,imu_link,0.0077967350371181965,0.006097452715039253,0.3892814517021179,0.9210657477378845,0.0,0.0,0.0,0.0,0.0,0.0,0.0,0.0,0.0,45.82478332519531,0.29576560854911804,1.0949956178665161,0.0,0.0,0.0,0.0,0.0,0.0,0.0,0.0,0.0,0.015507247298955917,-0.011813338845968246,0.06048306077718735,0.0,0.0,0.0,0.0,0.0,0.0,0.0,0.0,0.0
1606991002925492707,4044563,1606987401210131307,imu_link,0.007798188831657171,0.0060979267582297325,0.3892798125743866,0.921066403388977,0.0,0.0,0.0,0.0,0.0,0.0,0.0,0.0,0.0,45.8245849609375,0.29575270414352417,1.0951695442199707,0.0,0.0,0.0,0.0,0.0,0.0,0.0,0.0,0.0,-0.005339760333299637,-0.01694176346063614,0.06493757665157318,0.0,0.0,0.0,0.0,0.0,0.0,0.0,0.0,0.0
1606991002932145756,4044564,1606987401210213563,imu_link,0.007798188831657171,0.0060979267582297325,0.3892798125743866,0.921066403388977,0.0,0.0,0.0,0.0,0.0,0.0,0.0,0.0,0.0,45.8245849609375,0.29575270414352417,1.0951695442199707,0.0,0.0,0.0,0.0,0.0,0.0,0.0,0.0,0.0,-0.005339760333299637,-0.01694176346063614,0.06493757665157318,0.0,0.0,0.0,0.0,0.0,0.0,0.0,0.0,0.0
1606991002932186041,4044565,1606987401210293969,imu_link,0.007802005857229233,0.006096983794122934,0.38928094506263733,0.9210658669471741,0.0,0.0,0.0,0.0,0.0,0.0,0.0,0.0,0.0,45.82472610473633,0.29548153281211853,1.0955308675765991,0.0,0.0,0.0,0.0,0.0,0.0,0.0,0.0,0.0,-0.010789220221340656,-0.006592960096895695,0.06063966453075409,0.0,0.0,0.0,0.0,0.0,0.0,0.0,0.0,0.0
1606991002932204629,4044566,1606987401223011080,imu_link,0.007802005857229233,0.006096983794122934,0.38928094506263733,0.9210658669471741,0.0,0.0,0.0,0.0,0.0,0.0,0.0,0.0,0.0,45.82472610473633,0.29548153281211853,1.0955308675765991,0.0,0.0,0.0,0.0,0.0,0.0,0.0,0.0,0.0,-0.010789220221340656,-0.006592960096895695,0.06063966453075409,0.0,0.0,0.0,0.0,0.0,0.0,0.0,0.0,0.0
1606991002932225104,4044567,1606987401223124292,imu_link,0.007800896652042866,0.0060957386158406734,0.3892791271209717,0.9210666418075562,0.0,0.0,0.0,0.0,0.0,0.0,0.0,0.0,0.0,45.82449722290039,0.29540175199508667,1.0953575372695923,0.0,0.0,0.0,0.0,0.0,0.0,0.0,0.0,0.0,0.008537810295820236,0.014386385679244995,0.04960344731807709,0.0,0.0,0.0,0.0,0.0,0.0,0.0,0.0,0.0
1606991002945212995,4044568,1606987401223213794,imu_link,0.007800896652042866,0.0060957386158406734,0.3892791271209717,0.9210666418075562,0.0,0.0,0.0,0.0,0.0,0.0,0.0,0.0,0.0,45.82449722290039,0.29540175199508667,1.0953575372695923,0.0,0.0,0.0,0.0,0.0,0.0,0.0,0.0,0.0,0.008537810295820236,0.014386385679244995,0.04960344731807709,0.0,0.0,0.0,0.0,0.0,0.0,0.0,0.0,0.0
1606991002945263350,4044569,1606987401223293454,imu_link,0.007798305246978998,0.00609598821029067,0.3892817199230194,0.9210655689239502,0.0,0.0,0.0,0.0,0.0,0.0,0.0,0.0,0.0,45.82482147216797,0.29554063081741333,1.0950959920883179,0.0,0.0,0.0,0.0,0.0,0.0,0.0,0.0,0.0,0.013782523572444916,0.02194385603070259,0.03557119518518448,0.0,0.0,0.0,0.0,0.0,0.0,0.0,0.0,0.0
1606991002945279818,4044570,1606987401223389701,imu_link,0.007798305246978998,0.00609598821029067,0.3892817199230194,0.9210655689239502,0.0,0.0,0.0,0.0,0.0,0.0,0.0,0.0,0.0,45.82482147216797,0.29554063081741333,1.0950959920883179,0.0,0.0,0.0,0.0,0.0,0.0,0.0,0.0,0.0,0.013782523572444916,0.02194385603070259,0.03557119518518448,0.0,0.0,0.0,0.0,0.0,0.0,0.0,0.0,0.0
1606991002945293154,4044571,1606987401223469591,imu_link,0.007798142731189728,0.0060952831991016865,0.3892798125743866,0.921066403388977,0.0,0.0,0.0,0.0,0.0,0.0,0.0,0.0,0.0,45.824581146240234,0.2954757511615753,1.0950467586517334,0.0,0.0,0.0,0.0,0.0,0.0,0.0,0.0,0.0,-0.00226854276843369,0.011875750496983528,0.019176192581653595,0.0,0.0,0.0,0.0,0.0,0.0,0.0,0.0,0.0
1606991002945326132,4044572,1606987401223568240,imu_link,0.007798142731189728,0.0060952831991016865,0.3892798125743866,0.921066403388977,0.0,0.0,0.0,0.0,0.0,0.0,0.0,0.0,0.0,45.824581146240234,0.2954757511615753,1.0950467586517334,0.0,0.0,0.0,0.0,0.0,0.0,0.0,0.0,0.0,-0.00226854276843369,0.011875750496983528,0.019176192581653595,0.0,0.0,0.0,0.0,0.0,0.0,0.0,0.0,0.0
1606991002956730420,4044573,1606987401223651367,imu_link,0.007795725949108601,0.006093176547437906,0.3892800211906433,0.9210663437843323,0.0,0.0,0.0,0.0,0.0,0.0,0.0,0.0,0.0,45.82460403442383,0.2953609526157379,1.0946977138519287,0.0,0.0,0.0,0.0,0.0,0.0,0.0,0.0,0.0,-0.017777610570192337,0.010261471383273602,0.01118243858218193,0.0,0.0,0.0,0.0,0.0,0.0,0.0,0.0,0.0
1606991002956765531,4044574,1606987401223772562,imu_link,0.007795725949108601,0.006093176547437906,0.3892800211906433,0.9210663437843323,0.0,0.0,0.0,0.0,0.0,0.0,0.0,0.0,0.0,45.82460403442383,0.2953609526157379,1.0946977138519287,0.0,0.0,0.0,0.0,0.0,0.0,0.0,0.0,0.0,-0.017777610570192337,0.010261471383273602,0.01118243858218193,0.0,0.0,0.0,0.0,0.0,0.0,0.0,0.0,0.0
1606991002956776636,4044575,1606987401223853735,imu_link,0.007795953657478094,0.006093841046094894,0.3892807066440582,0.9210660457611084,0.0,0.0,0.0,0.0,0.0,0.0,0.0,0.0,0.0,45.824684143066406,0.2954201400279999,1.0947514772415161,0.0,0.0,0.0,0.0,0.0,0.0,0.0,0.0,0.0,-0.012463635765016079,0.01344087440520525,0.05072380229830742,0.0,0.0,0.0,0.0,0.0,0.0,0.0,0.0,0.0
1606991002956809462,4044576,1606987401223934798,imu_link,0.007795953657478094,0.006093841046094894,0.3892807066440582,0.9210660457611084,0.0,0.0,0.0,0.0,0.0,0.0,0.0,0.0,0.0,45.824684143066406,0.2954201400279999,1.0947514772415161,0.0,0.0,0.0,0.0,0.0,0.0,0.0,0.0,0.0,-0.012463635765016079,0.01344087440520525,0.05072380229830742,0.0,0.0,0.0,0.0,0.0,0.0,0.0,0.0,0.0
1606991003060088006,4044577,1606987401236656599,imu_link,0.007796087302267551,0.006088841240853071,0.3892801105976105,0.9210663437843323,0.0,0.0,0.0,0.0,0.0,0.0,0.0,0.0,0.0,45.824607849121094,0.2948871850967407,1.0945425033569336,0.0,0.0,0.0,0.0,0.0,0.0,0.0,0.0,0.0,-0.0001429407566320151,0.001954850275069475,0.0539332814514637,0.0,0.0,0.0,0.0,0.0,0.0,0.0,0.0,0.0
1606991003060121289,4044578,1606987401236781096,imu_link,0.007796087302267551,0.006088841240853071,0.3892801105976105,0.9210663437843323,0.0,0.0,0.0,0.0,0.0,0.0,0.0,0.0,0.0,45.824607849121094,0.2948871850967407,1.0945425033569336,0.0,0.0,0.0,0.0,0.0,0.0,0.0,0.0,0.0,-0.0001429407566320151,0.001954850275069475,0.0539332814514637,0.0,0.0,0.0,0.0,0.0,0.0,0.0,0.0,0.0
1606991003060239004,4044579,1606987401236872151,imu_link,0.007796472869813442,0.006089983507990837,0.38927793502807617,0.9210672378540039,0.0,0.0,0.0,0.0,0.0,0.0,0.0,0.0,0.0,45.824337005615234,0.2949931025505066,1.0946334600448608,0.0,0.0,0.0,0.0,0.0,0.0,0.0,0.0,0.0,-0.011527838185429573,-0.0012658537598326802,0.045019496232271194,0.0,0.0,0.0,0.0,0.0,0.0,0.0,0.0,0.0
1606991003060277162,4044580,1606987401236954902,imu_link,0.007796472869813442,0.006089983507990837,0.38927793502807617,0.9210672378540039,0.0,0.0,0.0,0.0,0.0,0.0,0.0,0.0,0.0,45.824337005615234,0.2949931025505066,1.0946334600448608,0.0,0.0,0.0,0.0,0.0,0.0,0.0,0.0,0.0,-0.011527838185429573,-0.0012658537598326802,0.045019496232271194,0.0,0.0,0.0,0.0,0.0,0.0,0.0,0.0,0.0
1606991003060307184,4044581,1606987401237037622,imu_link,0.007796805817633867,0.0060897511430084705,0.38927870988845825,0.92106693983078,0.0,0.0,0.0,0.0,0.0,0.0,0.0,0.0,0.0,45.824432373046875,0.2949528694152832,1.0946584939956665,0.0,0.0,0.0,0.0,0.0,0.0,0.0,0.0,0.0,-0.0234269630163908,-0.0010151643073186278,0.060779914259910583,0.0,0.0,0.0,0.0,0.0,0.0,0.0,0.0,0.0
1606991003065639720,4044582,1606987401237125957,imu_link,0.007796805817633867,0.0060897511430084705,0.38927870988845825,0.92106693983078,0.0,0.0,0.0,0.0,0.0,0.0,0.0,0.0,0.0,45.824432373046875,0.2949528694152832,1.0946584939956665,0.0,0.0,0.0,0.0,0.0,0.0,0.0,0.0,0.0,-0.0234269630163908,-0.0010151643073186278,0.060779914259910583,0.0,0.0,0.0,0.0,0.0,0.0,0.0,0.0,0.0
1606991003065671055,4044583,1606987401237199705,imu_link,0.007796475663781166,0.006089697126299143,0.389276921749115,0.9210676550865173,0.0,0.0,0.0,0.0,0.0,0.0,0.0,0.0,0.0,45.824214935302734,0.2949639856815338,1.094620704650879,0.0,0.0,0.0,0.0,0.0,0.0,0.0,0.0,0.0,-0.009278155863285065,-0.014411603100597858,0.07651261985301971,0.0,0.0,0.0,0.0,0.0,0.0,0.0,0.0,0.0
1606991003065691044,4044584,1606987401237274976,imu_link,0.007796475663781166,0.006089697126299143,0.389276921749115,0.9210676550865173,0.0,0.0,0.0,0.0,0.0,0.0,0.0,0.0,0.0,45.824214935302734,0.2949639856815338,1.094620704650879,0.0,0.0,0.0,0.0,0.0,0.0,0.0,0.0,0.0,-0.009278155863285065,-0.014411603100597858,0.07651261985301971,0.0,0.0,0.0,0.0,0.0,0.0,0.0,0.0,0.0
1606991003065730819,4044585,1606987401237347358,imu_link,0.007799507584422827,0.006090535316616297,0.389278382062912,0.9210669994354248,0.0,0.0,0.0,0.0,0.0,0.0,0.0,0.0,0.0,45.824398040771484,0.29491546750068665,1.0949785709381104,0.0,0.0,0.0,0.0,0.0,0.0,0.0,0.0,0.0,-0.0030965544283390045,0.0012601619819179177,0.07826052606105804,0.0,0.0,0.0,0.0,0.0,0.0,0.0,0.0,0.0
1606991003101783707,4044586,1606987401237419320,imu_link,0.007799507584422827,0.006090535316616297,0.389278382062912,0.9210669994354248,0.0,0.0,0.0,0.0,0.0,0.0,0.0,0.0,0.0,45.824398040771484,0.29491546750068665,1.0949785709381104,0.0,0.0,0.0,0.0,0.0,0.0,0.0,0.0,0.0,-0.0030965544283390045,0.0012601619819179177,0.07826052606105804,0.0,0.0,0.0,0.0,0.0,0.0,0.0,0.0,0.0
1606991003101829145,4044587,1606987401237490561,imu_link,0.00779848312959075,0.006093245930969715,0.38927727937698364,0.921067476272583,0.0,0.0,0.0,0.0,0.0,0.0,0.0,0.0,0.0,45.82426071166992,0.29524850845336914,1.0949909687042236,0.0,0.0,0.0,0.0,0.0,0.0,0.0,0.0,0.0,-0.005589360371232033,0.023417260497808456,0.04616646468639374,0.0,0.0,0.0,0.0,0.0,0.0,0.0,0.0,0.0
1606991003101844741,4044588,1606987401249418392,imu_link,0.00779848312959075,0.006093245930969715,0.38927727937698364,0.921067476272583,0.0,0.0,0.0,0.0,0.0,0.0,0.0,0.0,0.0,45.82426071166992,0.29524850845336914,1.0949909687042236,0.0,0.0,0.0,0.0,0.0,0.0,0.0,0.0,0.0,-0.005589360371232033,0.023417260497808456,0.04616646468639374,0.0,0.0,0.0,0.0,0.0,0.0,0.0,0.0,0.0
1606991003101862028,4044589,1606987401249520994,imu_link,0.007792662363499403,0.006087574642151594,0.38927727937698364,0.9210675358772278,0.0,0.0,0.0,0.0,0.0,0.0,0.0,0.0,0.0,45.824256896972656,0.29490968585014343,1.0941236019134521,0.0,0.0,0.0,0.0,0.0,0.0,0.0,0.0,0.0,0.005293847061693668,0.026394056156277657,0.013552555814385414,0.0,0.0,0.0,0.0,0.0,0.0,0.0,0.0,0.0
1606991003108080288,4044590,1606987401249602686,imu_link,0.007792662363499403,0.006087574642151594,0.38927727937698364,0.9210675358772278,0.0,0.0,0.0,0.0,0.0,0.0,0.0,0.0,0.0,45.824256896972656,0.29490968585014343,1.0941236019134521,0.0,0.0,0.0,0.0,0.0,0.0,0.0,0.0,0.0,0.005293847061693668,0.026394056156277657,0.013552555814385414,0.0,0.0,0.0,0.0,0.0,0.0,0.0,0.0,0.0
1606991003108117724,4044591,1606987401249676487,imu_link,0.007790763396769762,0.0060856398195028305,0.38927677273750305,0.9210678339004517,0.0,0.0,0.0,0.0,0.0,0.0,0.0,0.0,0.0,45.824188232421875,0.29479077458381653,1.0938365459442139,0.0,0.0,0.0,0.0,0.0,0.0,0.0,0.0,0.0,0.009835219010710716,0.021798305213451385,0.020473405718803406,0.0,0.0,0.0,0.0,0.0,0.0,0.0,0.0,0.0
1606991003108137520,4044592,1606987401249753381,imu_link,0.007790763396769762,0.0060856398195028305,0.38927677273750305,0.9210678339004517,0.0,0.0,0.0,0.0,0.0,0.0,0.0,0.0,0.0,45.824188232421875,0.29479077458381653,1.0938365459442139,0.0,0.0,0.0,0.0,0.0,0.0,0.0,0.0,0.0,0.009835219010710716,0.021798305213451385,0.020473405718803406,0.0,0.0,0.0,0.0,0.0,0.0,0.0,0.0,0.0
1606991003108159685,4044593,1606987401249839327,imu_link,0.007786248344928026,0.006085982546210289,0.3892759680747986,0.9210681915283203,0.0,0.0,0.0,0.0,0.0,0.0,0.0,0.0,0.0,45.8240852355957,0.2950293719768524,1.0933749675750732,0.0,0.0,0.0,0.0,0.0,0.0,0.0,0.0,0.0,0.010147945955395699,0.022684363648295403,0.014159024693071842,0.0,0.0,0.0,0.0,0.0,0.0,0.0,0.0,0.0
1606991003108168883,4044594,1606987401249914483,imu_link,0.007786248344928026,0.006085982546210289,0.3892759680747986,0.9210681915283203,0.0,0.0,0.0,0.0,0.0,0.0,0.0,0.0,0.0,45.8240852355957,0.2950293719768524,1.0933749675750732,0.0,0.0,0.0,0.0,0.0,0.0,0.0,0.0,0.0,0.010147945955395699,0.022684363648295403,0.014159024693071842,0.0,0.0,0.0,0.0,0.0,0.0,0.0,0.0,0.0
1606991003163159520,4044595,1606987401249990044,imu_link,0.007787857670336962,0.00608673645183444,0.38927382230758667,0.9210690855979919,0.0,0.0,0.0,0.0,0.0,0.0,0.0,0.0,0.0,45.82381820678711,0.29503968358039856,1.0935777425765991,0.0,0.0,0.0,0.0,0.0,0.0,0.0,0.0,0.0,0.01267943624407053,0.00767010310664773,0.009157986380159855,0.0,0.0,0.0,0.0,0.0,0.0,0.0,0.0,0.0
1606991003163189218,4044596,1606987401250072261,imu_link,0.007787857670336962,0.00608673645183444,0.38927382230758667,0.9210690855979919,0.0,0.0,0.0,0.0,0.0,0.0,0.0,0.0,0.0,45.82381820678711,0.29503968358039856,1.0935777425765991,0.0,0.0,0.0,0.0,0.0,0.0,0.0,0.0,0.0,0.01267943624407053,0.00767010310664773,0.009157986380159855,0.0,0.0,0.0,0.0,0.0,0.0,0.0,0.0,0.0
1606991003163218441,4044597,1606987401250143952,imu_link,0.00778579618781805,0.006089130416512489,0.3892708122730255,0.921070396900177,0.0,0.0,0.0,0.0,0.0,0.0,0.0,0.0,0.0,45.823448181152344,0.2953878939151764,1.09346604347229,0.0,0.0,0.0,0.0,0.0,0.0,0.0,0.0,0.0,0.0004577679792419076,-0.0015281655360013247,0.04668867588043213,0.0,0.0,0.0,0.0,0.0,0.0,0.0,0.0,0.0
1606991003163233466,4044598,1606987401263286748,imu_link,0.00778579618781805,0.006089130416512489,0.3892708122730255,0.921070396900177,0.0,0.0,0.0,0.0,0.0,0.0,0.0,0.0,0.0,45.823448181152344,0.2953878939151764,1.09346604347229,0.0,0.0,0.0,0.0,0.0,0.0,0.0,0.0,0.0,0.0004577679792419076,-0.0015281655360013247,0.04668867588043213,0.0,0.0,0.0,0.0,0.0,0.0,0.0,0.0,0.0
1606991003179455006,4044599,1606987401263420930,imu_link,0.00778746884316206,0.006090122275054455,0.3892698884010315,0.9210707545280457,0.0,0.0,0.0,0.0,0.0,0.0,0.0,0.0,0.0,45.823333740234375,0.2954190969467163,1.0936866998672485,0.0,0.0,0.0,0.0,0.0,0.0,0.0,0.0,0.0,-0.0020175562240183353,0.01881381869316101,0.07601083070039749,0.0,0.0,0.0,0.0,0.0,0.0,0.0,0.0,0.0
1606991003179488122,4044600,1606987401263509360,imu_link,0.00778746884316206,0.006090122275054455,0.3892698884010315,0.9210707545280457,0.0,0.0,0.0,0.0,0.0,0.0,0.0,0.0,0.0,45.823333740234375,0.2954190969467163,1.0936866998672485,0.0,0.0,0.0,0.0,0.0,0.0,0.0,0.0,0.0,-0.0020175562240183353,0.01881381869316101,0.07601083070039749,0.0,0.0,0.0,0.0,0.0,0.0,0.0,0.0,0.0
1606991003179509496,4044601,1606987401263589912,imu_link,0.007783390115946531,0.0060888128355145454,0.3892708420753479,0.921070396900177,0.0,0.0,0.0,0.0,0.0,0.0,0.0,0.0,0.0,45.823448181152344,0.2954616844654083,1.0931979417800903,0.0,0.0,0.0,0.0,0.0,0.0,0.0,0.0,0.0,0.01164721418172121,0.031446367502212524,0.07942023873329163,0.0,0.0,0.0,0.0,0.0,0.0,0.0,0.0,0.0
1606991003179540178,4044602,1606987401263672694,imu_link,0.007783390115946531,0.0060888128355145454,0.3892708420753479,0.921070396900177,0.0,0.0,0.0,0.0,0.0,0.0,0.0,0.0,0.0,45.823448181152344,0.2954616844654083,1.0931979417800903,0.0,0.0,0.0,0.0,0.0,0.0,0.0,0.0,0.0,0.01164721418172121,0.031446367502212524,0.07942023873329163,0.0,0.0,0.0,0.0,0.0,0.0,0.0,0.0,0.0
1606991003179578030,4044603,1606987401263756106,imu_link,0.007781272754073143,0.006089519243687391,0.38927072286605835,0.9210704565048218,0.0,0.0,0.0,0.0,0.0,0.0,0.0,0.0,0.0,45.82343673706055,0.2956308424472809,1.093005895614624,0.0,0.0,0.0,0.0,0.0,0.0,0.0,0.0,0.0,0.008937782607972622,0.027705738320946693,0.05695997551083565,0.0,0.0,0.0,0.0,0.0,0.0,0.0,0.0,0.0
1606991003185193201,4044604,1606987401263854711,imu_link,0.007781272754073143,0.006089519243687391,0.38927072286605835,0.9210704565048218,0.0,0.0,0.0,0.0,0.0,0.0,0.0,0.0,0.0,45.82343673706055,0.2956308424472809,1.093005895614624,0.0,0.0,0.0,0.0,0.0,0.0,0.0,0.0,0.0,0.008937782607972622,0.027705738320946693,0.05695997551083565,0.0,0.0,0.0,0.0,0.0,0.0,0.0,0.0,0.0
1606991003185228811,4044605,1606987401263931431,imu_link,0.007776154670864344,0.006090923678129911,0.38926732540130615,0.9210718870162964,0.0,0.0,0.0,0.0,0.0,0.0,0.0,0.0,0.0,45.823020935058594,0.29601141810417175,1.0925273895263672,0.0,0.0,0.0,0.0,0.0,0.0,0.0,0.0,0.0,-0.010218502022325993,0.0050971852615475655,0.05531029775738716,0.0,0.0,0.0,0.0,0.0,0.0,0.0,0.0,0.0
1606991003185253834,4044606,1606987401264010476,imu_link,0.007776154670864344,0.006090923678129911,0.38926732540130615,0.9210718870162964,0.0,0.0,0.0,0.0,0.0,0.0,0.0,0.0,0.0,45.823020935058594,0.29601141810417175,1.0925273895263672,0.0,0.0,0.0,0.0,0.0,0.0,0.0,0.0,0.0,-0.010218502022325993,0.0050971852615475655,0.05531029775738716,0.0,0.0,0.0,0.0,0.0,0.0,0.0,0.0,0.0
1606991003185265401,4044607,1606987401264082683,imu_link,0.007777178194373846,0.006091500166803598,0.3892672061920166,0.9210719466209412,0.0,0.0,0.0,0.0,0.0,0.0,0.0,0.0,0.0,45.82300567626953,0.2960267663002014,1.0926610231399536,0.0,0.0,0.0,0.0,0.0,0.0,0.0,0.0,0.0,-0.013792004436254501,0.0023704026825726032,0.06922918558120728,0.0,0.0,0.0,0.0,0.0,0.0,0.0,0.0,0.0
1606991003194797365,4044608,1606987401264154770,imu_link,0.007777178194373846,0.006091500166803598,0.3892672061920166,0.9210719466209412,0.0,0.0,0.0,0.0,0.0,0.0,0.0,0.0,0.0,45.82300567626953,0.2960267663002014,1.0926610231399536,0.0,0.0,0.0,0.0,0.0,0.0,0.0,0.0,0.0,-0.013792004436254501,0.0023704026825726032,0.06922918558120728,0.0,0.0,0.0,0.0,0.0,0.0,0.0,0.0,0.0
1606991003194924599,4044609,1606987401276709134,imu_link,0.007778041996061802,0.006088906433433294,0.3892665505409241,0.9210721850395203,0.0,0.0,0.0,0.0,0.0,0.0,0.0,0.0,0.0,45.82291793823242,0.29571524262428284,1.0926363468170166,0.0,0.0,0.0,0.0,0.0,0.0,0.0,0.0,0.0,-0.011153418570756912,-0.004286967217922211,0.0687813088297844,0.0,0.0,0.0,0.0,0.0,0.0,0.0,0.0,0.0
1606991003194993004,4044610,1606987401276844226,imu_link,0.007778041996061802,0.006088906433433294,0.3892665505409241,0.9210721850395203,0.0,0.0,0.0,0.0,0.0,0.0,0.0,0.0,0.0,45.82291793823242,0.29571524262428284,1.0926363468170166,0.0,0.0,0.0,0.0,0.0,0.0,0.0,0.0,0.0,-0.011153418570756912,-0.004286967217922211,0.0687813088297844,0.0,0.0,0.0,0.0,0.0,0.0,0.0,0.0,0.0
1606991003195025583,4044611,1606987401276942008,imu_link,0.007778041996061802,0.006088906433433294,0.3892665505409241,0.9210721850395203,0.0,0.0,0.0,0.0,0.0,0.0,0.0,0.0,0.0,45.82291793823242,0.29571524262428284,1.0926363468170166,0.0,0.0,0.0,0.0,0.0,0.0,0.0,0.0,0.0,-0.005978791508823633,0.007585698738694191,0.05111353471875191,0.0,0.0,0.0,0.0,0.0,0.0,0.0,0.0,0.0
1606991003195130495,4044612,1606987401277031284,imu_link,0.007778041996061802,0.006088906433433294,0.3892665505409241,0.9210721850395203,0.0,0.0,0.0,0.0,0.0,0.0,0.0,0.0,0.0,45.82291793823242,0.29571524262428284,1.0926363468170166,0.0,0.0,0.0,0.0,0.0,0.0,0.0,0.0,0.0,-0.005978791508823633,0.007585698738694191,0.05111353471875191,0.0,0.0,0.0,0.0,0.0,0.0,0.0,0.0,0.0
1606991003308881280,4044613,1606987401277129882,imu_link,0.007775665260851383,0.00608711177483201,0.38926663994789124,0.9210721850395203,0.0,0.0,0.0,0.0,0.0,0.0,0.0,0.0,0.0,45.82292938232422,0.2956317663192749,1.092305302619934,0.0,0.0,0.0,0.0,0.0,0.0,0.0,0.0,0.0,-0.0027232556603848934,0.013834206387400627,0.03871503099799156,0.0,0.0,0.0,0.0,0.0,0.0,0.0,0.0,0.0
1606991003308919686,4044614,1606987401277216839,imu_link,0.007775665260851383,0.00608711177483201,0.38926663994789124,0.9210721850395203,0.0,0.0,0.0,0.0,0.0,0.0,0.0,0.0,0.0,45.82292938232422,0.2956317663192749,1.092305302619934,0.0,0.0,0.0,0.0,0.0,0.0,0.0,0.0,0.0,-0.0027232556603848934,0.013834206387400627,0.03871503099799156,0.0,0.0,0.0,0.0,0.0,0.0,0.0,0.0,0.0
1606991003308941622,4044615,1606987401277334030,imu_link,0.007775568403303623,0.006087619811296463,0.3892644941806793,0.9210731387138367,0.0,0.0,0.0,0.0,0.0,0.0,0.0,0.0,0.0,45.82265853881836,0.29569223523139954,1.09231698513031,0.0,0.0,0.0,0.0,0.0,0.0,0.0,0.0,0.0,-0.005416323430836201,0.001980661414563656,0.04562419280409813,0.0,0.0,0.0,0.0,0.0,0.0,0.0,0.0,0.0
1606991003308964598,4044616,1606987401277422620,imu_link,0.007775568403303623,0.006087619811296463,0.3892644941806793,0.9210731387138367,0.0,0.0,0.0,0.0,0.0,0.0,0.0,0.0,0.0,45.82265853881836,0.29569223523139954,1.09231698513031,0.0,0.0,0.0,0.0,0.0,0.0,0.0,0.0,0.0,-0.005416323430836201,0.001980661414563656,0.04562419280409813,0.0,0.0,0.0,0.0,0.0,0.0,0.0,0.0,0.0
1606991003316766135,4044617,1606987401277514698,imu_link,0.007776293903589249,0.006085789296776056,0.3892669379711151,0.9210720658302307,0.0,0.0,0.0,0.0,0.0,0.0,0.0,0.0,0.0,45.82295608520508,0.2954637408256531,1.0923128128051758,0.0,0.0,0.0,0.0,0.0,0.0,0.0,0.0,0.0,0.008179375901818275,0.012651471421122551,0.06085088849067688,0.0,0.0,0.0,0.0,0.0,0.0,0.0,0.0,0.0
1606991003316791478,4044618,1606987401277593119,imu_link,0.007776293903589249,0.006085789296776056,0.3892669379711151,0.9210720658302307,0.0,0.0,0.0,0.0,0.0,0.0,0.0,0.0,0.0,45.82295608520508,0.2954637408256531,1.0923128128051758,0.0,0.0,0.0,0.0,0.0,0.0,0.0,0.0,0.0,0.008179375901818275,0.012651471421122551,0.06085088849067688,0.0,0.0,0.0,0.0,0.0,0.0,0.0,0.0,0.0
1606991003316815898,4044619,1606987401277683143,imu_link,0.007775386329740286,0.006087322253733873,0.3892672061920166,0.9210719466209412,0.0,0.0,0.0,0.0,0.0,0.0,0.0,0.0,0.0,45.822994232177734,0.2956657111644745,1.0922855138778687,0.0,0.0,0.0,0.0,0.0,0.0,0.0,0.0,0.0,0.024925101548433304,0.008690795861184597,0.048145294189453125,0.0,0.0,0.0,0.0,0.0,0.0,0.0,0.0,0.0
1606991003316822955,4044620,1606987401290640054,imu_link,0.007775386329740286,0.006087322253733873,0.3892672061920166,0.9210719466209412,0.0,0.0,0.0,0.0,0.0,0.0,0.0,0.0,0.0,45.822994232177734,0.2956657111644745,1.0922855138778687,0.0,0.0,0.0,0.0,0.0,0.0,0.0,0.0,0.0,0.024925101548433304,0.008690795861184597,0.048145294189453125,0.0,0.0,0.0,0.0,0.0,0.0,0.0,0.0,0.0
1606991003316829764,4044621,1606987401290785486,imu_link,0.007772346958518028,0.006091464776545763,0.38926926255226135,0.9210711121559143,0.0,0.0,0.0,0.0,0.0,0.0,0.0,0.0,0.0,45.82325744628906,0.296236127614975,1.092150092124939,0.0,0.0,0.0,0.0,0.0,0.0,0.0,0.0,0.0,0.010906802490353584,-0.0043918415904045105,0.03935428336262703,0.0,0.0,0.0,0.0,0.0,0.0,0.0,0.0,0.0
1606991003334185165,4044622,1606987401290885702,imu_link,0.007772346958518028,0.006091464776545763,0.38926926255226135,0.9210711121559143,0.0,0.0,0.0,0.0,0.0,0.0,0.0,0.0,0.0,45.82325744628906,0.296236127614975,1.092150092124939,0.0,0.0,0.0,0.0,0.0,0.0,0.0,0.0,0.0,0.010906802490353584,-0.0043918415904045105,0.03935428336262703,0.0,0.0,0.0,0.0,0.0,0.0,0.0,0.0,0.0
1606991003334263811,4044623,1606987401291011178,imu_link,0.007771859876811504,0.0060915108770132065,0.3892678916454315,0.9210716485977173,0.0,0.0,0.0,0.0,0.0,0.0,0.0,0.0,0.0,45.823089599609375,0.29626429080963135,1.0921003818511963,0.0,0.0,0.0,0.0,0.0,0.0,0.0,0.0,0.0,-0.009863416664302349,-0.005354821216315031,0.036498069763183594,0.0,0.0,0.0,0.0,0.0,0.0,0.0,0.0,0.0
1606991003334292019,4044624,1606987401291104203,imu_link,0.007771859876811504,0.0060915108770132065,0.3892678916454315,0.9210716485977173,0.0,0.0,0.0,0.0,0.0,0.0,0.0,0.0,0.0,45.823089599609375,0.29626429080963135,1.0921003818511963,0.0,0.0,0.0,0.0,0.0,0.0,0.0,0.0,0.0,-0.009863416664302349,-0.005354821216315031,0.036498069763183594,0.0,0.0,0.0,0.0,0.0,0.0,0.0,0.0,0.0
1606991003334360561,4044625,1606987401291183817,imu_link,0.00777440657839179,0.006088845897465944,0.38926732540130615,0.9210719466209412,0.0,0.0,0.0,0.0,0.0,0.0,0.0,0.0,0.0,45.82301330566406,0.2958701550960541,1.0922499895095825,0.0,0.0,0.0,0.0,0.0,0.0,0.0,0.0,0.0,-0.007785454858094454,-0.00806046836078167,0.03416914865374565,0.0,0.0,0.0,0.0,0.0,0.0,0.0,0.0,0.0
1606991003341783139,4044626,1606987401291293261,imu_link,0.00777440657839179,0.006088845897465944,0.38926732540130615,0.9210719466209412,0.0,0.0,0.0,0.0,0.0,0.0,0.0,0.0,0.0,45.82301330566406,0.2958701550960541,1.0922499895095825,0.0,0.0,0.0,0.0,0.0,0.0,0.0,0.0,0.0,-0.007785454858094454,-0.00806046836078167,0.03416914865374565,0.0,0.0,0.0,0.0,0.0,0.0,0.0,0.0,0.0
1606991003341826990,4044627,1606987401291373707,imu_link,0.0077737197279930115,0.006088928785175085,0.38926681876182556,0.9210721254348755,0.0,0.0,0.0,0.0,0.0,0.0,0.0,0.0,0.0,45.82295227050781,0.2959100902080536,1.0921810865402222,0.0,0.0,0.0,0.0,0.0,0.0,0.0,0.0,0.0,0.009544042870402336,-0.027889860793948174,0.053428687155246735,0.0,0.0,0.0,0.0,0.0,0.0,0.0,0.0,0.0
1606991003341867961,4044628,1606987401291462748,imu_link,0.0077737197279930115,0.006088928785175085,0.38926681876182556,0.9210721254348755,0.0,0.0,0.0,0.0,0.0,0.0,0.0,0.0,0.0,45.82295227050781,0.2959100902080536,1.0921810865402222,0.0,0.0,0.0,0.0,0.0,0.0,0.0,0.0,0.0,0.009544042870402336,-0.027889860793948174,0.053428687155246735,0.0,0.0,0.0,0.0,0.0,0.0,0.0,0.0,0.0
1606991003341878937,4044629,1606987401291544597,imu_link,0.007777051068842411,0.006092844996601343,0.3892678916454315,0.9210716485977173,0.0,0.0,0.0,0.0,0.0,0.0,0.0,0.0,0.0,45.823089599609375,0.2961735427379608,1.092707633972168,0.0,0.0,0.0,0.0,0.0,0.0,0.0,0.0,0.0,0.008038762025535107,-0.01636275090277195,0.07516017556190491,0.0,0.0,0.0,0.0,0.0,0.0,0.0,0.0,0.0
1606991003341890139,4044630,1606987401291642419,imu_link,0.007777051068842411,0.006092844996601343,0.3892678916454315,0.9210716485977173,0.0,0.0,0.0,0.0,0.0,0.0,0.0,0.0,0.0,45.823089599609375,0.2961735427379608,1.092707633972168,0.0,0.0,0.0,0.0,0.0,0.0,0.0,0.0,0.0,0.008038762025535107,-0.01636275090277195,0.07516017556190491,0.0,0.0,0.0,0.0,0.0,0.0,0.0,0.0,0.0
1606991003434887682,4044631,1606987401304153318,imu_link,0.007778281345963478,0.006091386079788208,0.3892676532268524,0.9210717082023621,0.0,0.0,0.0,0.0,0.0,0.0,0.0,0.0,0.0,45.82305908203125,0.29596492648124695,1.092772364616394,0.0,0.0,0.0,0.0,0.0,0.0,0.0,0.0,0.0,0.004270859062671661,0.008079164661467075,0.07522866874933243,0.0,0.0,0.0,0.0,0.0,0.0,0.0,0.0,0.0
1606991003434915829,4044632,1606987401304292806,imu_link,0.007778281345963478,0.006091386079788208,0.3892676532268524,0.9210717082023621,0.0,0.0,0.0,0.0,0.0,0.0,0.0,0.0,0.0,45.82305908203125,0.29596492648124695,1.092772364616394,0.0,0.0,0.0,0.0,0.0,0.0,0.0,0.0,0.0,0.004270859062671661,0.008079164661467075,0.07522866874933243,0.0,0.0,0.0,0.0,0.0,0.0,0.0,0.0,0.0
1606991003434928531,4044633,1606987401304399412,imu_link,0.007777830120176077,0.006090279668569565,0.3892669677734375,0.9210720658302307,0.0,0.0,0.0,0.0,0.0,0.0,0.0,0.0,0.0,45.82296371459961,0.2958691418170929,1.0926752090454102,0.0,0.0,0.0,0.0,0.0,0.0,0.0,0.0,0.0,0.023937193676829338,0.004798589739948511,0.06358784437179565,0.0,0.0,0.0,0.0,0.0,0.0,0.0,0.0,0.0
1606991003434945761,4044634,1606987401304487486,imu_link,0.007777830120176077,0.006090279668569565,0.3892669677734375,0.9210720658302307,0.0,0.0,0.0,0.0,0.0,0.0,0.0,0.0,0.0,45.82296371459961,0.2958691418170929,1.0926752090454102,0.0,0.0,0.0,0.0,0.0,0.0,0.0,0.0,0.0,0.023937193676829338,0.004798589739948511,0.06358784437179565,0.0,0.0,0.0,0.0,0.0,0.0,0.0,0.0,0.0
1606991003465492446,4044635,1606987401304585588,imu_link,0.007779404520988464,0.006090550217777491,0.38926634192466736,0.9210723042488098,0.0,0.0,0.0,0.0,0.0,0.0,0.0,0.0,0.0,45.82289505004883,0.2958281636238098,1.092853307723999,0.0,0.0,0.0,0.0,0.0,0.0,0.0,0.0,0.0,0.03861985728144646,-0.01609056629240513,0.06002919748425484,0.0,0.0,0.0,0.0,0.0,0.0,0.0,0.0,0.0
1606991003465545928,4044636,1606987401304686963,imu_link,0.007779404520988464,0.006090550217777491,0.38926634192466736,0.9210723042488098,0.0,0.0,0.0,0.0,0.0,0.0,0.0,0.0,0.0,45.82289505004883,0.2958281636238098,1.092853307723999,0.0,0.0,0.0,0.0,0.0,0.0,0.0,0.0,0.0,0.03861985728144646,-0.01609056629240513,0.06002919748425484,0.0,0.0,0.0,0.0,0.0,0.0,0.0,0.0,0.0
1606991003465571504,4044637,1606987401304773503,imu_link,0.007779219187796116,0.006097530480474234,0.3892681300640106,0.9210715293884277,0.0,0.0,0.0,0.0,0.0,0.0,0.0,0.0,0.0,45.8231201171875,0.29657110571861267,1.093145728111267,0.0,0.0,0.0,0.0,0.0,0.0,0.0,0.0,0.0,0.015365220606327057,-0.01367146335542202,0.06113378331065178,0.0,0.0,0.0,0.0,0.0,0.0,0.0,0.0,0.0
1606991003465592316,4044638,1606987401304852847,imu_link,0.007779219187796116,0.006097530480474234,0.3892681300640106,0.9210715293884277,0.0,0.0,0.0,0.0,0.0,0.0,0.0,0.0,0.0,45.8231201171875,0.29657110571861267,1.093145728111267,0.0,0.0,0.0,0.0,0.0,0.0,0.0,0.0,0.0,0.015365220606327057,-0.01367146335542202,0.06113378331065178,0.0,0.0,0.0,0.0,0.0,0.0,0.0,0.0,0.0
1606991003465621138,4044639,1606987401304950653,imu_link,0.0077788797207176685,0.006097899749875069,0.389267235994339,0.9210718870162964,0.0,0.0,0.0,0.0,0.0,0.0,0.0,0.0,0.0,45.82301330566406,0.2966262400150299,1.0931261777877808,0.0,0.0,0.0,0.0,0.0,0.0,0.0,0.0,0.0,-0.0026971367187798023,-0.0004508313722908497,0.06984586268663406,0.0,0.0,0.0,0.0,0.0,0.0,0.0,0.0,0.0
1606991003473056739,4044640,1606987401305031771,imu_link,0.0077788797207176685,0.006097899749875069,0.389267235994339,0.9210718870162964,0.0,0.0,0.0,0.0,0.0,0.0,0.0,0.0,0.0,45.82301330566406,0.2966262400150299,1.0931261777877808,0.0,0.0,0.0,0.0,0.0,0.0,0.0,0.0,0.0,-0.0026971367187798023,-0.0004508313722908497,0.06984586268663406,0.0,0.0,0.0,0.0,0.0,0.0,0.0,0.0,0.0
1606991003473168362,4044641,1606987401305112427,imu_link,0.007779428735375404,0.0060975938104093075,0.38926824927330017,0.921071469783783,0.0,0.0,0.0,0.0,0.0,0.0,0.0,0.0,0.0,45.823143005371094,0.2965683043003082,1.0931707620620728,0.0,0.0,0.0,0.0,0.0,0.0,0.0,0.0,0.0,0.009264454245567322,0.004234940279275179,0.06951410323381424,0.0,0.0,0.0,0.0,0.0,0.0,0.0,0.0,0.0
1606991003473198133,4044642,1606987401316993093,imu_link,0.007779428735375404,0.0060975938104093075,0.38926824927330017,0.921071469783783,0.0,0.0,0.0,0.0,0.0,0.0,0.0,0.0,0.0,45.823143005371094,0.2965683043003082,1.0931707620620728,0.0,0.0,0.0,0.0,0.0,0.0,0.0,0.0,0.0,0.009264454245567322,0.004234940279275179,0.06951410323381424,0.0,0.0,0.0,0.0,0.0,0.0,0.0,0.0,0.0
1606991003473236835,4044643,1606987401317135091,imu_link,0.007780031301081181,0.006098076701164246,0.3892661929130554,0.9210723042488098,0.0,0.0,0.0,0.0,0.0,0.0,0.0,0.0,0.0,45.82289123535156,0.2965947985649109,1.0932552814483643,0.0,0.0,0.0,0.0,0.0,0.0,0.0,0.0,0.0,0.012713423930108547,0.0042482647113502026,0.06215358525514603,0.0,0.0,0.0,0.0,0.0,0.0,0.0,0.0,0.0
1606991003485171454,4044644,1606987401317298024,imu_link,0.007780031301081181,0.006098076701164246,0.3892661929130554,0.9210723042488098,0.0,0.0,0.0,0.0,0.0,0.0,0.0,0.0,0.0,45.82289123535156,0.2965947985649109,1.0932552814483643,0.0,0.0,0.0,0.0,0.0,0.0,0.0,0.0,0.0,0.012713423930108547,0.0042482647113502026,0.06215358525514603,0.0,0.0,0.0,0.0,0.0,0.0,0.0,0.0,0.0
1606991003485296186,4044645,1606987401317391289,imu_link,0.007778310216963291,0.00610043341293931,0.3892674744129181,0.9210717678070068,0.0,0.0,0.0,0.0,0.0,0.0,0.0,0.0,0.0,45.82304763793945,0.2969187796115875,1.0931793451309204,0.0,0.0,0.0,0.0,0.0,0.0,0.0,0.0,0.0,0.0003130498807877302,-0.000125634775031358,0.03604564815759659,0.0,0.0,0.0,0.0,0.0,0.0,0.0,0.0,0.0
1606991003485319239,4044646,1606987401317483137,imu_link,0.007778310216963291,0.00610043341293931,0.3892674744129181,0.9210717678070068,0.0,0.0,0.0,0.0,0.0,0.0,0.0,0.0,0.0,45.82304763793945,0.2969187796115875,1.0931793451309204,0.0,0.0,0.0,0.0,0.0,0.0,0.0,0.0,0.0,0.0003130498807877302,-0.000125634775031358,0.03604564815759659,0.0,0.0,0.0,0.0,0.0,0.0,0.0,0.0,0.0
1606991003485331974,4044647,1606987401317588426,imu_link,0.007777082268148661,0.006101416889578104,0.38926470279693604,0.9210729598999023,0.0,0.0,0.0,0.0,0.0,0.0,0.0,0.0,0.0,45.82270431518555,0.2970806658267975,1.0930925607681274,0.0,0.0,0.0,0.0,0.0,0.0,0.0,0.0,0.0,-0.003083127085119486,-0.003661755472421646,0.03147882595658302,0.0,0.0,0.0,0.0,0.0,0.0,0.0,0.0,0.0
1606991003485347855,4044648,1606987401317673768,imu_link,0.007777082268148661,0.006101416889578104,0.38926470279693604,0.9210729598999023,0.0,0.0,0.0,0.0,0.0,0.0,0.0,0.0,0.0,45.82270431518555,0.2970806658267975,1.0930925607681274,0.0,0.0,0.0,0.0,0.0,0.0,0.0,0.0,0.0,-0.003083127085119486,-0.003661755472421646,0.03147882595658302,0.0,0.0,0.0,0.0,0.0,0.0,0.0,0.0,0.0
1606991003551187169,4044649,1606987401317753297,imu_link,0.007777297403663397,0.006101235281676054,0.3892669677734375,0.9210719466209412,0.0,0.0,0.0,0.0,0.0,0.0,0.0,0.0,0.0,45.82299041748047,0.2970491945743561,1.0931079387664795,0.0,0.0,0.0,0.0,0.0,0.0,0.0,0.0,0.0,0.011087493039667606,-0.010865285061299801,0.0404147207736969,0.0,0.0,0.0,0.0,0.0,0.0,0.0,0.0,0.0
1606991003551213575,4044650,1606987401317831568,imu_link,0.007777297403663397,0.006101235281676054,0.3892669677734375,0.9210719466209412,0.0,0.0,0.0,0.0,0.0,0.0,0.0,0.0,0.0,45.82299041748047,0.2970491945743561,1.0931079387664795,0.0,0.0,0.0,0.0,0.0,0.0,0.0,0.0,0.0,0.011087493039667606,-0.010865285061299801,0.0404147207736969,0.0,0.0,0.0,0.0,0.0,0.0,0.0,0.0,0.0
1606991003551224082,4044651,1606987401317910441,imu_link,0.0077772075310349464,0.006101603154093027,0.3892660140991211,0.9210723638534546,0.0,0.0,0.0,0.0,0.0,0.0,0.0,0.0,0.0,45.82286834716797,0.2970931828022003,1.0931144952774048,0.0,0.0,0.0,0.0,0.0,0.0,0.0,0.0,0.0,0.020079828798770905,-0.02419769950211048,0.04513690248131752,0.0,0.0,0.0,0.0,0.0,0.0,0.0,0.0,0.0
1606991003551242615,4044652,1606987401330711196,imu_link,0.0077772075310349464,0.006101603154093027,0.3892660140991211,0.9210723638534546,0.0,0.0,0.0,0.0,0.0,0.0,0.0,0.0,0.0,45.82286834716797,0.2970931828022003,1.0931144952774048,0.0,0.0,0.0,0.0,0.0,0.0,0.0,0.0,0.0,0.020079828798770905,-0.02419769950211048,0.04513690248131752,0.0,0.0,0.0,0.0,0.0,0.0,0.0,0.0,0.0
1606991003563468413,4044653,1606987401330829750,imu_link,0.007778880652040243,0.006108611356467009,0.38926541805267334,0.9210725426673889,0.0,0.0,0.0,0.0,0.0,0.0,0.0,0.0,0.0,45.82280731201172,0.29775887727737427,1.0936036109924316,0.0,0.0,0.0,0.0,0.0,0.0,0.0,0.0,0.0,0.016257554292678833,-0.02543761394917965,0.03996359556913376,0.0,0.0,0.0,0.0,0.0,0.0,0.0,0.0,0.0
1606991003563499820,4044654,1606987401330915784,imu_link,0.007778880652040243,0.006108611356467009,0.38926541805267334,0.9210725426673889,0.0,0.0,0.0,0.0,0.0,0.0,0.0,0.0,0.0,45.82280731201172,0.29775887727737427,1.0936036109924316,0.0,0.0,0.0,0.0,0.0,0.0,0.0,0.0,0.0,0.016257554292678833,-0.02543761394917965,0.03996359556913376,0.0,0.0,0.0,0.0,0.0,0.0,0.0,0.0,0.0
1606991003563514752,4044655,1606987401331039756,imu_link,0.007777695078402758,0.006107481196522713,0.38926541805267334,0.9210725426673889,0.0,0.0,0.0,0.0,0.0,0.0,0.0,0.0,0.0,45.82280731201172,0.29769250750541687,1.093428134918213,0.0,0.0,0.0,0.0,0.0,0.0,0.0,0.0,0.0,-0.003500222461298108,-0.004395055118948221,0.033193282783031464,0.0,0.0,0.0,0.0,0.0,0.0,0.0,0.0,0.0
1606991003563528259,4044656,1606987401331123380,imu_link,0.007777695078402758,0.006107481196522713,0.38926541805267334,0.9210725426673889,0.0,0.0,0.0,0.0,0.0,0.0,0.0,0.0,0.0,45.82280731201172,0.29769250750541687,1.093428134918213,0.0,0.0,0.0,0.0,0.0,0.0,0.0,0.0,0.0,-0.003500222461298108,-0.004395055118948221,0.033193282783031464,0.0,0.0,0.0,0.0,0.0,0.0,0.0,0.0,0.0
1606991003563560252,4044657,1606987401331220214,imu_link,0.0077790203504264355,0.006107238121330738,0.38926568627357483,0.9210724234580994,0.0,0.0,0.0,0.0,0.0,0.0,0.0,0.0,0.0,45.822837829589844,0.297607421875,1.093557357788086,0.0,0.0,0.0,0.0,0.0,0.0,0.0,0.0,0.0,-0.013320163823664188,0.005171360448002815,0.04580436274409294,0.0,0.0,0.0,0.0,0.0,0.0,0.0,0.0,0.0
1606991003591054230,4044658,1606987401331317589,imu_link,0.0077790203504264355,0.006107238121330738,0.38926568627357483,0.9210724234580994,0.0,0.0,0.0,0.0,0.0,0.0,0.0,0.0,0.0,45.822837829589844,0.297607421875,1.093557357788086,0.0,0.0,0.0,0.0,0.0,0.0,0.0,0.0,0.0,-0.013320163823664188,0.005171360448002815,0.04580436274409294,0.0,0.0,0.0,0.0,0.0,0.0,0.0,0.0,0.0
1606991003591083445,4044659,1606987401331402390,imu_link,0.007780230138450861,0.006106954999268055,0.389264315366745,0.9210730195045471,0.0,0.0,0.0,0.0,0.0,0.0,0.0,0.0,0.0,45.82266616821289,0.29752516746520996,1.0936717987060547,0.0,0.0,0.0,0.0,0.0,0.0,0.0,0.0,0.0,-0.019471947103738785,-0.0054256063885986805,0.06508152186870575,0.0,0.0,0.0,0.0,0.0,0.0,0.0,0.0,0.0
1606991003591096066,4044660,1606987401331481478,imu_link,0.007780230138450861,0.006106954999268055,0.389264315366745,0.9210730195045471,0.0,0.0,0.0,0.0,0.0,0.0,0.0,0.0,0.0,45.82266616821289,0.29752516746520996,1.0936717987060547,0.0,0.0,0.0,0.0,0.0,0.0,0.0,0.0,0.0,-0.019471947103738785,-0.0054256063885986805,0.06508152186870575,0.0,0.0,0.0,0.0,0.0,0.0,0.0,0.0,0.0
1606991003591115278,4044661,1606987401331573396,imu_link,0.007783255074173212,0.006103615742176771,0.3892655372619629,0.9210724830627441,0.0,0.0,0.0,0.0,0.0,0.0,0.0,0.0,0.0,45.82281494140625,0.2970363199710846,1.093842625617981,0.0,0.0,0.0,0.0,0.0,0.0,0.0,0.0,0.0,-0.011341423727571964,-0.013387572020292282,0.07840386778116226,0.0,0.0,0.0,0.0,0.0,0.0,0.0,0.0,0.0
1606991003595961680,4044662,1606987401331652138,imu_link,0.007783255074173212,0.006103615742176771,0.3892655372619629,0.9210724830627441,0.0,0.0,0.0,0.0,0.0,0.0,0.0,0.0,0.0,45.82281494140625,0.2970363199710846,1.093842625617981,0.0,0.0,0.0,0.0,0.0,0.0,0.0,0.0,0.0,-0.011341423727571964,-0.013387572020292282,0.07840386778116226,0.0,0.0,0.0,0.0,0.0,0.0,0.0,0.0,0.0
1606991003596013052,4044663,1606987401344140585,imu_link,0.007783154025673866,0.006102556362748146,0.3892635405063629,0.921073317527771,0.0,0.0,0.0,0.0,0.0,0.0,0.0,0.0,0.0,45.822566986083984,0.2969314157962799,1.093783974647522,0.0,0.0,0.0,0.0,0.0,0.0,0.0,0.0,0.0,-0.004133340436965227,-0.00581192784011364,0.06562264263629913,0.0,0.0,0.0,0.0,0.0,0.0,0.0,0.0,0.0
1606991003596042494,4044664,1606987401344244872,imu_link,0.007783154025673866,0.006102556362748146,0.3892635405063629,0.921073317527771,0.0,0.0,0.0,0.0,0.0,0.0,0.0,0.0,0.0,45.822566986083984,0.2969314157962799,1.093783974647522,0.0,0.0,0.0,0.0,0.0,0.0,0.0,0.0,0.0,-0.004133340436965227,-0.00581192784011364,0.06562264263629913,0.0,0.0,0.0,0.0,0.0,0.0,0.0,0.0,0.0
1606991003596068514,4044665,1606987401344319578,imu_link,0.007783475797623396,0.006104663014411926,0.3892653286457062,0.9210726022720337,0.0,0.0,0.0,0.0,0.0,0.0,0.0,0.0,0.0,45.82278823852539,0.2971372902393341,1.0939123630523682,0.0,0.0,0.0,0.0,0.0,0.0,0.0,0.0,0.0,-0.01314544677734375,-0.00538620026782155,0.05429886281490326,0.0,0.0,0.0,0.0,0.0,0.0,0.0,0.0,0.0
1606991003677356978,4044666,1606987401344405564,imu_link,0.007783475797623396,0.006104663014411926,0.3892653286457062,0.9210726022720337,0.0,0.0,0.0,0.0,0.0,0.0,0.0,0.0,0.0,45.82278823852539,0.2971372902393341,1.0939123630523682,0.0,0.0,0.0,0.0,0.0,0.0,0.0,0.0,0.0,-0.01314544677734375,-0.00538620026782155,0.05429886281490326,0.0,0.0,0.0,0.0,0.0,0.0,0.0,0.0,0.0
1606991003677390981,4044667,1606987401344476221,imu_link,0.0077827866189181805,0.006103526335209608,0.38926681876182556,0.9210720062255859,0.0,0.0,0.0,0.0,0.0,0.0,0.0,0.0,0.0,45.82297134399414,0.2970463037490845,1.0937894582748413,0.0,0.0,0.0,0.0,0.0,0.0,0.0,0.0,0.0,-0.008155089803040028,-0.022513803094625473,0.04600787162780762,0.0,0.0,0.0,0.0,0.0,0.0,0.0,0.0,0.0
1606991003677399734,4044668,1606987401344557421,imu_link,0.0077827866189181805,0.006103526335209608,0.38926681876182556,0.9210720062255859,0.0,0.0,0.0,0.0,0.0,0.0,0.0,0.0,0.0,45.82297134399414,0.2970463037490845,1.0937894582748413,0.0,0.0,0.0,0.0,0.0,0.0,0.0,0.0,0.0,-0.008155089803040028,-0.022513803094625473,0.04600787162780762,0.0,0.0,0.0,0.0,0.0,0.0,0.0,0.0,0.0
1606991003677410782,4044669,1606987401344644766,imu_link,0.007787124719470739,0.006102402228862047,0.3892664313316345,0.9210721254348755,0.0,0.0,0.0,0.0,0.0,0.0,0.0,0.0,0.0,45.82292556762695,0.29673460125923157,1.0941970348358154,0.0,0.0,0.0,0.0,0.0,0.0,0.0,0.0,0.0,-0.0016872392734512687,-0.017756357789039612,0.053672224283218384,0.0,0.0,0.0,0.0,0.0,0.0,0.0,0.0,0.0
1606991003677426553,4044670,1606987401344720185,imu_link,0.007787124719470739,0.006102402228862047,0.3892664313316345,0.9210721254348755,0.0,0.0,0.0,0.0,0.0,0.0,0.0,0.0,0.0,45.82292556762695,0.29673460125923157,1.0941970348358154,0.0,0.0,0.0,0.0,0.0,0.0,0.0,0.0,0.0,-0.0016872392734512687,-0.017756357789039612,0.053672224283218384,0.0,0.0,0.0,0.0,0.0,0.0,0.0,0.0,0.0
1606991003682885808,4044671,1606987401344790120,imu_link,0.00778536032885313,0.00610132422298193,0.389265239238739,0.9210726618766785,0.0,0.0,0.0,0.0,0.0,0.0,0.0,0.0,0.0,45.82277297973633,0.29670095443725586,1.09396231174469,0.0,0.0,0.0,0.0,0.0,0.0,0.0,0.0,0.0,-0.006742576602846384,-0.0050258999690413475,0.08331690728664398,0.0,0.0,0.0,0.0,0.0,0.0,0.0,0.0,0.0
1606991003682909658,4044672,1606987401344896125,imu_link,0.00778536032885313,0.00610132422298193,0.389265239238739,0.9210726618766785,0.0,0.0,0.0,0.0,0.0,0.0,0.0,0.0,0.0,45.82277297973633,0.29670095443725586,1.09396231174469,0.0,0.0,0.0,0.0,0.0,0.0,0.0,0.0,0.0,-0.006742576602846384,-0.0050258999690413475,0.08331690728664398,0.0,0.0,0.0,0.0,0.0,0.0,0.0,0.0,0.0
1606991003682925206,4044673,1606987401344967990,imu_link,0.007786968257278204,0.006100725382566452,0.38926640152931213,0.9210721850395203,0.0,0.0,0.0,0.0,0.0,0.0,0.0,0.0,0.0,45.822914123535156,0.29656463861465454,1.0941057205200195,0.0,0.0,0.0,0.0,0.0,0.0,0.0,0.0,0.0,0.0017934953793883324,-0.016024116426706314,0.06885309517383575,0.0,0.0,0.0,0.0,0.0,0.0,0.0,0.0,0.0
1606991003682938953,4044674,1606987401357922286,imu_link,0.007786968257278204,0.006100725382566452,0.38926640152931213,0.9210721850395203,0.0,0.0,0.0,0.0,0.0,0.0,0.0,0.0,0.0,45.822914123535156,0.29656463861465454,1.0941057205200195,0.0,0.0,0.0,0.0,0.0,0.0,0.0,0.0,0.0,0.0017934953793883324,-0.016024116426706314,0.06885309517383575,0.0,0.0,0.0,0.0,0.0,0.0,0.0,0.0,0.0
1606991003694476004,4044675,1606987401358024495,imu_link,0.007787973154336214,0.006101564038544893,0.38926947116851807,0.9210707545280457,0.0,0.0,0.0,0.0,0.0,0.0,0.0,0.0,0.0,45.823307037353516,0.29660457372665405,1.094250202178955,0.0,0.0,0.0,0.0,0.0,0.0,0.0,0.0,0.0,0.006807826925069094,-0.017828678712248802,0.05019117519259453,0.0,0.0,0.0,0.0,0.0,0.0,0.0,0.0,0.0
1606991003694504962,4044676,1606987401358098631,imu_link,0.007787973154336214,0.006101564038544893,0.38926947116851807,0.9210707545280457,0.0,0.0,0.0,0.0,0.0,0.0,0.0,0.0,0.0,45.823307037353516,0.29660457372665405,1.094250202178955,0.0,0.0,0.0,0.0,0.0,0.0,0.0,0.0,0.0,0.006807826925069094,-0.017828678712248802,0.05019117519259453,0.0,0.0,0.0,0.0,0.0,0.0,0.0,0.0,0.0
1606991003694540831,4044677,1606987401358179097,imu_link,0.007790745701640844,0.006104315165430307,0.38926851749420166,0.9210712313652039,0.0,0.0,0.0,0.0,0.0,0.0,0.0,0.0,0.0,45.823184967041016,0.29677248001098633,1.094665288925171,0.0,0.0,0.0,0.0,0.0,0.0,0.0,0.0,0.0,0.005100132431834936,-0.015931278467178345,0.037954941391944885,0.0,0.0,0.0,0.0,0.0,0.0,0.0,0.0,0.0
1606991003694552822,4044678,1606987401358248992,imu_link,0.007790745701640844,0.006104315165430307,0.38926851749420166,0.9210712313652039,0.0,0.0,0.0,0.0,0.0,0.0,0.0,0.0,0.0,45.823184967041016,0.29677248001098633,1.094665288925171,0.0,0.0,0.0,0.0,0.0,0.0,0.0,0.0,0.0,0.005100132431834936,-0.015931278467178345,0.037954941391944885,0.0,0.0,0.0,0.0,0.0,0.0,0.0,0.0,0.0
1606991003694567879,4044679,1606987401358355763,imu_link,0.007791067473590374,0.006105646025389433,0.38926780223846436,0.9210715293884277,0.0,0.0,0.0,0.0,0.0,0.0,0.0,0.0,0.0,45.82309341430664,0.2968994677066803,1.0947585105895996,0.0,0.0,0.0,0.0,0.0,0.0,0.0,0.0,0.0,-0.002496487693861127,-0.020691178739070892,0.04689941927790642,0.0,0.0,0.0,0.0,0.0,0.0,0.0,0.0,0.0
1606991003705238974,4044680,1606987401358444569,imu_link,0.007791067473590374,0.006105646025389433,0.38926780223846436,0.9210715293884277,0.0,0.0,0.0,0.0,0.0,0.0,0.0,0.0,0.0,45.82309341430664,0.2968994677066803,1.0947585105895996,0.0,0.0,0.0,0.0,0.0,0.0,0.0,0.0,0.0,-0.002496487693861127,-0.020691178739070892,0.04689941927790642,0.0,0.0,0.0,0.0,0.0,0.0,0.0,0.0,0.0
1606991003705271603,4044681,1606987401358518439,imu_link,0.007796172052621841,0.0061069391667842865,0.38926753401756287,0.9210715889930725,0.0,0.0,0.0,0.0,0.0,0.0,0.0,0.0,0.0,45.82306671142578,0.29680851101875305,1.0953547954559326,0.0,0.0,0.0,0.0,0.0,0.0,0.0,0.0,0.0,-0.002272535115480423,0.0016187168657779694,0.04970211163163185,0.0,0.0,0.0,0.0,0.0,0.0,0.0,0.0,0.0
1606991003705284513,4044682,1606987401358590507,imu_link,0.007796172052621841,0.0061069391667842865,0.38926753401756287,0.9210715889930725,0.0,0.0,0.0,0.0,0.0,0.0,0.0,0.0,0.0,45.82306671142578,0.29680851101875305,1.0953547954559326,0.0,0.0,0.0,0.0,0.0,0.0,0.0,0.0,0.0,-0.002272535115480423,0.0016187168657779694,0.04970211163163185,0.0,0.0,0.0,0.0,0.0,0.0,0.0,0.0,0.0
1606991003705302874,4044683,1606987401358707223,imu_link,0.007794784847646952,0.006104160100221634,0.3892669975757599,0.9210718274116516,0.0,0.0,0.0,0.0,0.0,0.0,0.0,0.0,0.0,45.822998046875,0.29657772183418274,1.095084309577942,0.0,0.0,0.0,0.0,0.0,0.0,0.0,0.0,0.0,-0.00982836727052927,0.000485142576508224,0.05650954693555832,0.0,0.0,0.0,0.0,0.0,0.0,0.0,0.0,0.0
1606991003776908354,4044684,1606987401358781595,imu_link,0.007794784847646952,0.006104160100221634,0.3892669975757599,0.9210718274116516,0.0,0.0,0.0,0.0,0.0,0.0,0.0,0.0,0.0,45.822998046875,0.29657772183418274,1.095084309577942,0.0,0.0,0.0,0.0,0.0,0.0,0.0,0.0,0.0,-0.00982836727052927,0.000485142576508224,0.05650954693555832,0.0,0.0,0.0,0.0,0.0,0.0,0.0,0.0,0.0
1606991003776928955,4044685,1606987401368104927,imu_link,0.007795584853738546,0.00610235333442688,0.38926586508750916,0.9210723042488098,0.0,0.0,0.0,0.0,0.0,0.0,0.0,0.0,0.0,45.82285690307617,0.29635268449783325,1.0950876474380493,0.0,0.0,0.0,0.0,0.0,0.0,0.0,0.0,0.0,-0.016688883304595947,-0.005164791829884052,0.05262928828597069,0.0,0.0,0.0,0.0,0.0,0.0,0.0,0.0,0.0
1606991003776940257,4044686,1606987401368227166,imu_link,0.007795584853738546,0.00610235333442688,0.38926586508750916,0.9210723042488098,0.0,0.0,0.0,0.0,0.0,0.0,0.0,0.0,0.0,45.82285690307617,0.29635268449783325,1.0950876474380493,0.0,0.0,0.0,0.0,0.0,0.0,0.0,0.0,0.0,-0.016688883304595947,-0.005164791829884052,0.05262928828597069,0.0,0.0,0.0,0.0,0.0,0.0,0.0,0.0,0.0
1606991003776951667,4044687,1606987401368319924,imu_link,0.0077953333966434,0.006102252285927534,0.389263391494751,0.9210733771324158,0.0,0.0,0.0,0.0,0.0,0.0,0.0,0.0,0.0,45.82254409790039,0.2963561713695526,1.0950558185577393,0.0,0.0,0.0,0.0,0.0,0.0,0.0,0.0,0.0,0.007472524419426918,0.012677409686148167,0.04200947284698486,0.0,0.0,0.0,0.0,0.0,0.0,0.0,0.0,0.0
1606991003776971455,4044688,1606987401368399904,imu_link,0.0077953333966434,0.006102252285927534,0.389263391494751,0.9210733771324158,0.0,0.0,0.0,0.0,0.0,0.0,0.0,0.0,0.0,45.82254409790039,0.2963561713695526,1.0950558185577393,0.0,0.0,0.0,0.0,0.0,0.0,0.0,0.0,0.0,0.007472524419426918,0.012677409686148167,0.04200947284698486,0.0,0.0,0.0,0.0,0.0,0.0,0.0,0.0,0.0
1606991003783112354,4044689,1606987401368488655,imu_link,0.007792548276484013,0.00610274588689208,0.38926461338996887,0.9210729002952576,0.0,0.0,0.0,0.0,0.0,0.0,0.0,0.0,0.0,45.822696685791016,0.2965311110019684,1.094784140586853,0.0,0.0,0.0,0.0,0.0,0.0,0.0,0.0,0.0,0.002232880098745227,-0.00227160332724452,0.0574612095952034,0.0,0.0,0.0,0.0,0.0,0.0,0.0,0.0,0.0
1606991003783147086,4044690,1606987401368588474,imu_link,0.007792548276484013,0.00610274588689208,0.38926461338996887,0.9210729002952576,0.0,0.0,0.0,0.0,0.0,0.0,0.0,0.0,0.0,45.822696685791016,0.2965311110019684,1.094784140586853,0.0,0.0,0.0,0.0,0.0,0.0,0.0,0.0,0.0,0.002232880098745227,-0.00227160332724452,0.0574612095952034,0.0,0.0,0.0,0.0,0.0,0.0,0.0,0.0,0.0
1606991003783158369,4044691,1606987401368663875,imu_link,0.007792044430971146,0.006103213876485825,0.3892665505409241,0.9210719466209412,0.0,0.0,0.0,0.0,0.0,0.0,0.0,0.0,0.0,45.82294464111328,0.2966005504131317,1.0947526693344116,0.0,0.0,0.0,0.0,0.0,0.0,0.0,0.0,0.0,-0.002703281119465828,-0.023777414113283157,0.052091002464294434,0.0,0.0,0.0,0.0,0.0,0.0,0.0,0.0,0.0
1606991003783170625,4044692,1606987401380784681,imu_link,0.007792044430971146,0.006103213876485825,0.3892665505409241,0.9210719466209412,0.0,0.0,0.0,0.0,0.0,0.0,0.0,0.0,0.0,45.82294464111328,0.2966005504131317,1.0947526693344116,0.0,0.0,0.0,0.0,0.0,0.0,0.0,0.0,0.0,-0.002703281119465828,-0.023777414113283157,0.052091002464294434,0.0,0.0,0.0,0.0,0.0,0.0,0.0,0.0,0.0
1606991003837974060,4044693,1606987401380927231,imu_link,0.007797377649694681,0.0061027673073112965,0.38926732540130615,0.9210716485977173,0.0,0.0,0.0,0.0,0.0,0.0,0.0,0.0,0.0,45.82304000854492,0.29631462693214417,1.0952959060668945,0.0,0.0,0.0,0.0,0.0,0.0,0.0,0.0,0.0,0.0018909340724349022,-0.0289002675563097,0.06985367834568024,0.0,0.0,0.0,0.0,0.0,0.0,0.0,0.0,0.0
1606991003838024373,4044694,1606987401381027257,imu_link,0.007797377649694681,0.0061027673073112965,0.38926732540130615,0.9210716485977173,0.0,0.0,0.0,0.0,0.0,0.0,0.0,0.0,0.0,45.82304000854492,0.29631462693214417,1.0952959060668945,0.0,0.0,0.0,0.0,0.0,0.0,0.0,0.0,0.0,0.0018909340724349022,-0.0289002675563097,0.06985367834568024,0.0,0.0,0.0,0.0,0.0,0.0,0.0,0.0,0.0
1606991003838049769,4044695,1606987401381117280,imu_link,0.007799678016453981,0.006103441119194031,0.3892667591571808,0.9210718274116516,0.0,0.0,0.0,0.0,0.0,0.0,0.0,0.0,0.0,45.82297134399414,0.2962837517261505,1.0955687761306763,0.0,0.0,0.0,0.0,0.0,0.0,0.0,0.0,0.0,-0.0192931666970253,-0.027705878019332886,0.0644894689321518,0.0,0.0,0.0,0.0,0.0,0.0,0.0,0.0,0.0
1606991003838058526,4044696,1606987401381213207,imu_link,0.007799678016453981,0.006103441119194031,0.3892667591571808,0.9210718274116516,0.0,0.0,0.0,0.0,0.0,0.0,0.0,0.0,0.0,45.82297134399414,0.2962837517261505,1.0955687761306763,0.0,0.0,0.0,0.0,0.0,0.0,0.0,0.0,0.0,-0.0192931666970253,-0.027705878019332886,0.0644894689321518,0.0,0.0,0.0,0.0,0.0,0.0,0.0,0.0,0.0
