%time,field.header.seq,field.header.stamp,field.header.frame_id,field.orientation.x,field.orientation.y,field.orientation.z,field.orientation.w,field.orientation_covariance0,field.orientation_covariance1,field.orientation_covariance2,field.orientation_covariance3,field.orientation_covariance4,field.orientation_covariance5,field.orientation_covariance6,field.orientation_covariance7,field.orientation_covariance8,field.angular_velocity.x,field.angular_velocity.y,field.angular_velocity.z,field.angular_velocity_covariance0,field.angular_velocity_covariance1,field.angular_velocity_covariance2,field.angular_velocity_covariance3,field.angular_velocity_covariance4,field.angular_velocity_covariance5,field.angular_velocity_covariance6,field.angular_velocity_covariance7,field.angular_velocity_covariance8,field.linear_acceleration.x,field.linear_acceleration.y,field.linear_acceleration.z,field.linear_acceleration_covariance0,field.linear_acceleration_covariance1,field.linear_acceleration_covariance2,field.linear_acceleration_covariance3,field.linear_acceleration_covariance4,field.linear_acceleration_covariance5,field.linear_acceleration_covariance6,field.linear_acceleration_covariance7,field.linear_acceleration_covariance8
1606991131111629374,4147910,1606987530404712320,imu_link,0.005147839430719614,0.007378846872597933,0.39634084701538086,0.9180594086647034,0.0,0.0,0.0,0.0,0.0,0.0,0.0,0.0,0.0,46.70539855957031,0.5424754023551941,0.8767629861831665,0.0,0.0,0.0,0.0,0.0,0.0,0.0,0.0,0.0,-0.0010734121315181255,0.009706823155283928,0.04318803921341896,0.0,0.0,0.0,0.0,0.0,0.0,0.0,0.0,0.0
1606991131111671929,4147911,1606987530404857306,imu_link,0.005147363059222698,0.007380370981991291,0.3963399827480316,0.918059766292572,0.0,0.0,0.0,0.0,0.0,0.0,0.0,0.0,0.0,46.70529556274414,0.5426582098007202,0.876781702041626,0.0,0.0,0.0,0.0,0.0,0.0,0.0,0.0,0.0,-0.004143066238611937,0.028590600937604904,0.017123255878686905,0.0,0.0,0.0,0.0,0.0,0.0,0.0,0.0,0.0
1606991131111690314,4147912,1606987530405006872,imu_link,0.005147363059222698,0.007380370981991291,0.3963399827480316,0.918059766292572,0.0,0.0,0.0,0.0,0.0,0.0,0.0,0.0,0.0,46.70529556274414,0.5426582098007202,0.876781702041626,0.0,0.0,0.0,0.0,0.0,0.0,0.0,0.0,0.0,-0.004143066238611937,0.028590600937604904,0.017123255878686905,0.0,0.0,0.0,0.0,0.0,0.0,0.0,0.0,0.0
1606991131111704041,4147913,1606987530405102143,imu_link,0.005142569541931152,0.007378070615231991,0.39634376764297485,0.9180582165718079,0.0,0.0,0.0,0.0,0.0,0.0,0.0,0.0,0.0,46.70576095581055,0.5426304340362549,0.876175045967102,0.0,0.0,0.0,0.0,0.0,0.0,0.0,0.0,0.0,0.004117216914892197,0.009881757199764252,0.023196587339043617,0.0,0.0,0.0,0.0,0.0,0.0,0.0,0.0,0.0
1606991131120595216,4147914,1606987530405180785,imu_link,0.005142569541931152,0.007378070615231991,0.39634376764297485,0.9180582165718079,0.0,0.0,0.0,0.0,0.0,0.0,0.0,0.0,0.0,46.70576095581055,0.5426304340362549,0.876175045967102,0.0,0.0,0.0,0.0,0.0,0.0,0.0,0.0,0.0,0.004117216914892197,0.009881757199764252,0.023196587339043617,0.0,0.0,0.0,0.0,0.0,0.0,0.0,0.0,0.0
1606991131120617685,4147915,1606987530405260539,imu_link,0.005143077112734318,0.00737750856205821,0.39634498953819275,0.9180576801300049,0.0,0.0,0.0,0.0,0.0,0.0,0.0,0.0,0.0,46.705909729003906,0.5425470471382141,0.876203715801239,0.0,0.0,0.0,0.0,0.0,0.0,0.0,0.0,0.0,6.632041186094284e-05,-0.006319038104265928,0.03801005333662033,0.0,0.0,0.0,0.0,0.0,0.0,0.0,0.0,0.0
1606991131120644039,4147916,1606987530405358105,imu_link,0.005143077112734318,0.00737750856205821,0.39634498953819275,0.9180576801300049,0.0,0.0,0.0,0.0,0.0,0.0,0.0,0.0,0.0,46.705909729003906,0.5425470471382141,0.876203715801239,0.0,0.0,0.0,0.0,0.0,0.0,0.0,0.0,0.0,6.632041186094284e-05,-0.006319038104265928,0.03801005333662033,0.0,0.0,0.0,0.0,0.0,0.0,0.0,0.0,0.0
1606991131120652611,4147917,1606987530405439102,imu_link,0.005145391449332237,0.007376567926257849,0.3963445723056793,0.9180578589439392,0.0,0.0,0.0,0.0,0.0,0.0,0.0,0.0,0.0,46.70586395263672,0.5423433780670166,0.8764042258262634,0.0,0.0,0.0,0.0,0.0,0.0,0.0,0.0,0.0,-0.015279516577720642,0.015974605455994606,0.049714647233486176,0.0,0.0,0.0,0.0,0.0,0.0,0.0,0.0,0.0
1606991131191400702,4147918,1606987530405637587,imu_link,0.005145391449332237,0.007376567926257849,0.3963445723056793,0.9180578589439392,0.0,0.0,0.0,0.0,0.0,0.0,0.0,0.0,0.0,46.70586395263672,0.5423433780670166,0.8764042258262634,0.0,0.0,0.0,0.0,0.0,0.0,0.0,0.0,0.0,-0.015279516577720642,0.015974605455994606,0.049714647233486176,0.0,0.0,0.0,0.0,0.0,0.0,0.0,0.0,0.0
1606991131191423128,4147919,1606987530405729540,imu_link,0.00514629203826189,0.0073762321844697,0.396344393491745,0.918057918548584,0.0,0.0,0.0,0.0,0.0,0.0,0.0,0.0,0.0,46.705833435058594,0.5422673225402832,0.8764835596084595,0.0,0.0,0.0,0.0,0.0,0.0,0.0,0.0,0.0,0.004694710951298475,0.0073827155865728855,0.041401106864213943,0.0,0.0,0.0,0.0,0.0,0.0,0.0,0.0,0.0
1606991131191430911,4147920,1606987530405864988,imu_link,0.00514629203826189,0.0073762321844697,0.396344393491745,0.918057918548584,0.0,0.0,0.0,0.0,0.0,0.0,0.0,0.0,0.0,46.705833435058594,0.5422673225402832,0.8764835596084595,0.0,0.0,0.0,0.0,0.0,0.0,0.0,0.0,0.0,0.004694710951298475,0.0073827155865728855,0.041401106864213943,0.0,0.0,0.0,0.0,0.0,0.0,0.0,0.0,0.0
1606991131191445466,4147921,1606987530418222707,imu_link,0.005145443603396416,0.007374325301498175,0.39634743332862854,0.9180566072463989,0.0,0.0,0.0,0.0,0.0,0.0,0.0,0.0,0.0,46.70621109008789,0.5421023964881897,0.8763095140457153,0.0,0.0,0.0,0.0,0.0,0.0,0.0,0.0,0.0,0.01426423154771328,-0.012685251422226429,0.05480121076107025,0.0,0.0,0.0,0.0,0.0,0.0,0.0,0.0,0.0
1606991131191464699,4147922,1606987530418362727,imu_link,0.005145443603396416,0.007374325301498175,0.39634743332862854,0.9180566072463989,0.0,0.0,0.0,0.0,0.0,0.0,0.0,0.0,0.0,46.70621109008789,0.5421023964881897,0.8763095140457153,0.0,0.0,0.0,0.0,0.0,0.0,0.0,0.0,0.0,0.01426423154771328,-0.012685251422226429,0.05480121076107025,0.0,0.0,0.0,0.0,0.0,0.0,0.0,0.0,0.0
1606991131211117205,4147923,1606987530418556956,imu_link,0.005145643372088671,0.007375483401119709,0.3963484466075897,0.9180561304092407,0.0,0.0,0.0,0.0,0.0,0.0,0.0,0.0,0.0,46.70634078979492,0.5422140955924988,0.8763837218284607,0.0,0.0,0.0,0.0,0.0,0.0,0.0,0.0,0.0,0.009339708834886551,0.005182428285479546,0.06753160804510117,0.0,0.0,0.0,0.0,0.0,0.0,0.0,0.0,0.0
1606991131211140797,4147924,1606987530418640524,imu_link,0.005145643372088671,0.007375483401119709,0.3963484466075897,0.9180561304092407,0.0,0.0,0.0,0.0,0.0,0.0,0.0,0.0,0.0,46.70634078979492,0.5422140955924988,0.8763837218284607,0.0,0.0,0.0,0.0,0.0,0.0,0.0,0.0,0.0,0.009339708834886551,0.005182428285479546,0.06753160804510117,0.0,0.0,0.0,0.0,0.0,0.0,0.0,0.0,0.0
1606991131211229650,4147925,1606987530418727471,imu_link,0.005144713446497917,0.0073762740939855576,0.39634743332862854,0.9180565476417542,0.0,0.0,0.0,0.0,0.0,0.0,0.0,0.0,0.0,46.70622253417969,0.5423404574394226,0.8763212561607361,0.0,0.0,0.0,0.0,0.0,0.0,0.0,0.0,0.0,0.007066856138408184,0.0024007237516343594,0.054946862161159515,0.0,0.0,0.0,0.0,0.0,0.0,0.0,0.0,0.0
1606991131211259469,4147926,1606987530418829557,imu_link,0.005144713446497917,0.0073762740939855576,0.39634743332862854,0.9180565476417542,0.0,0.0,0.0,0.0,0.0,0.0,0.0,0.0,0.0,46.70622253417969,0.5423404574394226,0.8763212561607361,0.0,0.0,0.0,0.0,0.0,0.0,0.0,0.0,0.0,0.007066856138408184,0.0024007237516343594,0.054946862161159515,0.0,0.0,0.0,0.0,0.0,0.0,0.0,0.0,0.0
1606991131215364153,4147927,1606987530418915501,imu_link,0.005144142545759678,0.0073781441897153854,0.39634907245635986,0.9180558323860168,0.0,0.0,0.0,0.0,0.0,0.0,0.0,0.0,0.0,46.70642852783203,0.5425615310668945,0.8763471245765686,0.0,0.0,0.0,0.0,0.0,0.0,0.0,0.0,0.0,-0.020655179396271706,0.005555600393563509,0.047239139676094055,0.0,0.0,0.0,0.0,0.0,0.0,0.0,0.0,0.0
1606991131215403491,4147928,1606987530419035483,imu_link,0.005144142545759678,0.0073781441897153854,0.39634907245635986,0.9180558323860168,0.0,0.0,0.0,0.0,0.0,0.0,0.0,0.0,0.0,46.70642852783203,0.5425615310668945,0.8763471245765686,0.0,0.0,0.0,0.0,0.0,0.0,0.0,0.0,0.0,-0.020655179396271706,0.005555600393563509,0.047239139676094055,0.0,0.0,0.0,0.0,0.0,0.0,0.0,0.0,0.0
1606991131215417939,4147929,1606987530419120846,imu_link,0.005142126232385635,0.007375391665846109,0.3963484764099121,0.9180561900138855,0.0,0.0,0.0,0.0,0.0,0.0,0.0,0.0,0.0,46.70634841918945,0.5423641800880432,0.8760095834732056,0.0,0.0,0.0,0.0,0.0,0.0,0.0,0.0,0.0,-0.026207642629742622,0.017831062898039818,0.03500267490744591,0.0,0.0,0.0,0.0,0.0,0.0,0.0,0.0,0.0
1606991131215468614,4147930,1606987530419202224,imu_link,0.005142126232385635,0.007375391665846109,0.3963484764099121,0.9180561900138855,0.0,0.0,0.0,0.0,0.0,0.0,0.0,0.0,0.0,46.70634841918945,0.5423641800880432,0.8760095834732056,0.0,0.0,0.0,0.0,0.0,0.0,0.0,0.0,0.0,-0.026207642629742622,0.017831062898039818,0.03500267490744591,0.0,0.0,0.0,0.0,0.0,0.0,0.0,0.0,0.0
1606991131215482619,4147931,1606987530419291195,imu_link,0.005142660811543465,0.007376778870820999,0.3963485062122345,0.9180561304092407,0.0,0.0,0.0,0.0,0.0,0.0,0.0,0.0,0.0,46.70634841918945,0.5424858331680298,0.8761287927627563,0.0,0.0,0.0,0.0,0.0,0.0,0.0,0.0,0.0,0.008323495276272297,-0.0011457197833806276,0.028017766773700714,0.0,0.0,0.0,0.0,0.0,0.0,0.0,0.0,0.0
1606991131224040564,4147932,1606987530431087586,imu_link,0.005142660811543465,0.007376778870820999,0.3963485062122345,0.9180561304092407,0.0,0.0,0.0,0.0,0.0,0.0,0.0,0.0,0.0,46.70634841918945,0.5424858331680298,0.8761287927627563,0.0,0.0,0.0,0.0,0.0,0.0,0.0,0.0,0.0,0.008323495276272297,-0.0011457197833806276,0.028017766773700714,0.0,0.0,0.0,0.0,0.0,0.0,0.0,0.0,0.0
1606991131224141352,4147933,1606987530431199209,imu_link,0.005142527632415295,0.00737785454839468,0.3963508605957031,0.9180551171302795,0.0,0.0,0.0,0.0,0.0,0.0,0.0,0.0,0.0,46.70664596557617,0.5426027774810791,0.8761650323867798,0.0,0.0,0.0,0.0,0.0,0.0,0.0,0.0,0.0,0.004925653804093599,-0.01506077405065298,0.04553806036710739,0.0,0.0,0.0,0.0,0.0,0.0,0.0,0.0,0.0
1606991131224157979,4147934,1606987530431287092,imu_link,0.005142527632415295,0.00737785454839468,0.3963508605957031,0.9180551171302795,0.0,0.0,0.0,0.0,0.0,0.0,0.0,0.0,0.0,46.70664596557617,0.5426027774810791,0.8761650323867798,0.0,0.0,0.0,0.0,0.0,0.0,0.0,0.0,0.0,0.004925653804093599,-0.01506077405065298,0.04553806036710739,0.0,0.0,0.0,0.0,0.0,0.0,0.0,0.0,0.0
1606991131224167254,4147935,1606987530431370716,imu_link,0.005140659864991903,0.007379626855254173,0.39635252952575684,0.9180544018745422,0.0,0.0,0.0,0.0,0.0,0.0,0.0,0.0,0.0,46.706851959228516,0.5428724884986877,0.8760501742362976,0.0,0.0,0.0,0.0,0.0,0.0,0.0,0.0,0.0,-0.014368781819939613,-0.004837145563215017,0.052981168031692505,0.0,0.0,0.0,0.0,0.0,0.0,0.0,0.0,0.0
1606991131317216202,4147936,1606987530431447814,imu_link,0.005140659864991903,0.007379626855254173,0.39635252952575684,0.9180544018745422,0.0,0.0,0.0,0.0,0.0,0.0,0.0,0.0,0.0,46.706851959228516,0.5428724884986877,0.8760501742362976,0.0,0.0,0.0,0.0,0.0,0.0,0.0,0.0,0.0,-0.014368781819939613,-0.004837145563215017,0.052981168031692505,0.0,0.0,0.0,0.0,0.0,0.0,0.0,0.0,0.0
1606991131317242692,4147937,1606987530431552812,imu_link,0.005143627990037203,0.007379166316241026,0.39635422825813293,0.9180536866188049,0.0,0.0,0.0,0.0,0.0,0.0,0.0,0.0,0.0,46.707069396972656,0.5426875948905945,0.8763424158096313,0.0,0.0,0.0,0.0,0.0,0.0,0.0,0.0,0.0,-0.0024658709298819304,0.01681055873632431,0.047380417585372925,0.0,0.0,0.0,0.0,0.0,0.0,0.0,0.0,0.0
1606991131317248861,4147938,1606987530431640460,imu_link,0.005143627990037203,0.007379166316241026,0.39635422825813293,0.9180536866188049,0.0,0.0,0.0,0.0,0.0,0.0,0.0,0.0,0.0,46.707069396972656,0.5426875948905945,0.8763424158096313,0.0,0.0,0.0,0.0,0.0,0.0,0.0,0.0,0.0,-0.0024658709298819304,0.01681055873632431,0.047380417585372925,0.0,0.0,0.0,0.0,0.0,0.0,0.0,0.0,0.0
1606991131317280948,4147939,1606987530431728028,imu_link,0.005143924616277218,0.007379441522061825,0.3963542580604553,0.9180536270141602,0.0,0.0,0.0,0.0,0.0,0.0,0.0,0.0,0.0,46.707069396972656,0.5427030324935913,0.8763861656188965,0.0,0.0,0.0,0.0,0.0,0.0,0.0,0.0,0.0,0.00509831216186285,0.022858532145619392,0.036651864647865295,0.0,0.0,0.0,0.0,0.0,0.0,0.0,0.0,0.0
1606991131317289999,4147940,1606987530431807637,imu_link,0.005143924616277218,0.007379441522061825,0.3963542580604553,0.9180536270141602,0.0,0.0,0.0,0.0,0.0,0.0,0.0,0.0,0.0,46.707069396972656,0.5427030324935913,0.8763861656188965,0.0,0.0,0.0,0.0,0.0,0.0,0.0,0.0,0.0,0.00509831216186285,0.022858532145619392,0.036651864647865295,0.0,0.0,0.0,0.0,0.0,0.0,0.0,0.0,0.0
1606991131323801815,4147941,1606987530431885212,imu_link,0.005140321794897318,0.007376760710030794,0.396345853805542,0.9180573225021362,0.0,0.0,0.0,0.0,0.0,0.0,0.0,0.0,0.0,46.70602035522461,0.5425926446914673,0.8758803606033325,0.0,0.0,0.0,0.0,0.0,0.0,0.0,0.0,0.0,0.0025367848575115204,0.0131370285525918,0.017633073031902313,0.0,0.0,0.0,0.0,0.0,0.0,0.0,0.0,0.0
1606991131323822513,4147942,1606987530444846037,imu_link,0.005140321794897318,0.007376760710030794,0.396345853805542,0.9180573225021362,0.0,0.0,0.0,0.0,0.0,0.0,0.0,0.0,0.0,46.70602035522461,0.5425926446914673,0.8758803606033325,0.0,0.0,0.0,0.0,0.0,0.0,0.0,0.0,0.0,0.0025367848575115204,0.0131370285525918,0.017633073031902313,0.0,0.0,0.0,0.0,0.0,0.0,0.0,0.0,0.0
1606991131323833130,4147943,1606987530444993212,imu_link,0.005140122026205063,0.007375347428023815,0.3963469862937927,0.918056845664978,0.0,0.0,0.0,0.0,0.0,0.0,0.0,0.0,0.0,46.70615768432617,0.5424519777297974,0.8757957816123962,0.0,0.0,0.0,0.0,0.0,0.0,0.0,0.0,0.0,0.023665377870202065,0.009652498178184032,0.02462521754205227,0.0,0.0,0.0,0.0,0.0,0.0,0.0,0.0,0.0
1606991131323854081,4147944,1606987530445155573,imu_link,0.005140122026205063,0.007375347428023815,0.3963469862937927,0.918056845664978,0.0,0.0,0.0,0.0,0.0,0.0,0.0,0.0,0.0,46.70615768432617,0.5424519777297974,0.8757957816123962,0.0,0.0,0.0,0.0,0.0,0.0,0.0,0.0,0.0,0.023665377870202065,0.009652498178184032,0.02462521754205227,0.0,0.0,0.0,0.0,0.0,0.0,0.0,0.0,0.0
1606991131327584028,4147945,1606987530445252387,imu_link,0.005137628875672817,0.007377926725894213,0.39633938670158386,0.9180600643157959,0.0,0.0,0.0,0.0,0.0,0.0,0.0,0.0,0.0,46.7052116394043,0.5428438186645508,0.8756462335586548,0.0,0.0,0.0,0.0,0.0,0.0,0.0,0.0,0.0,0.01238791923969984,0.014989773742854595,0.04244811087846756,0.0,0.0,0.0,0.0,0.0,0.0,0.0,0.0,0.0
1606991131327621290,4147946,1606987530445374274,imu_link,0.005137628875672817,0.007377926725894213,0.39633938670158386,0.9180600643157959,0.0,0.0,0.0,0.0,0.0,0.0,0.0,0.0,0.0,46.7052116394043,0.5428438186645508,0.8756462335586548,0.0,0.0,0.0,0.0,0.0,0.0,0.0,0.0,0.0,0.01238791923969984,0.014989773742854595,0.04244811087846756,0.0,0.0,0.0,0.0,0.0,0.0,0.0,0.0,0.0
1606991131327630875,4147947,1606987530445490278,imu_link,0.005139486864209175,0.007376874331384897,0.3963417708873749,0.9180590510368347,0.0,0.0,0.0,0.0,0.0,0.0,0.0,0.0,0.0,46.70550537109375,0.5426464676856995,0.8757952451705933,0.0,0.0,0.0,0.0,0.0,0.0,0.0,0.0,0.0,-0.005945530254393816,0.018288629129529,0.0407722145318985,0.0,0.0,0.0,0.0,0.0,0.0,0.0,0.0,0.0
1606991131327647851,4147948,1606987530445622409,imu_link,0.005139486864209175,0.007376874331384897,0.3963417708873749,0.9180590510368347,0.0,0.0,0.0,0.0,0.0,0.0,0.0,0.0,0.0,46.70550537109375,0.5426464676856995,0.8757952451705933,0.0,0.0,0.0,0.0,0.0,0.0,0.0,0.0,0.0,-0.005945530254393816,0.018288629129529,0.0407722145318985,0.0,0.0,0.0,0.0,0.0,0.0,0.0,0.0,0.0
1606991131327667234,4147949,1606987530445709570,imu_link,0.005139152519404888,0.0073739890940487385,0.39632901549339294,0.9180645942687988,0.0,0.0,0.0,0.0,0.0,0.0,0.0,0.0,0.0,46.703914642333984,0.5423702597618103,0.875621497631073,0.0,0.0,0.0,0.0,0.0,0.0,0.0,0.0,0.0,0.01272430270910263,0.013140266761183739,0.03688811883330345,0.0,0.0,0.0,0.0,0.0,0.0,0.0,0.0,0.0
1606991131333958693,4147950,1606987530445791600,imu_link,0.005139152519404888,0.0073739890940487385,0.39632901549339294,0.9180645942687988,0.0,0.0,0.0,0.0,0.0,0.0,0.0,0.0,0.0,46.703914642333984,0.5423702597618103,0.875621497631073,0.0,0.0,0.0,0.0,0.0,0.0,0.0,0.0,0.0,0.01272430270910263,0.013140266761183739,0.03688811883330345,0.0,0.0,0.0,0.0,0.0,0.0,0.0,0.0,0.0
1606991131333985296,4147951,1606987530446013444,imu_link,0.0051381331868469715,0.007375678047537804,0.39632999897003174,0.9180641770362854,0.0,0.0,0.0,0.0,0.0,0.0,0.0,0.0,0.0,46.70404052734375,0.5425933003425598,0.8755915760993958,0.0,0.0,0.0,0.0,0.0,0.0,0.0,0.0,0.0,0.012625695206224918,0.009780777618288994,0.03990881145000458,0.0,0.0,0.0,0.0,0.0,0.0,0.0,0.0,0.0
1606991131334010344,4147952,1606987530446107376,imu_link,0.0051381331868469715,0.007375678047537804,0.39632999897003174,0.9180641770362854,0.0,0.0,0.0,0.0,0.0,0.0,0.0,0.0,0.0,46.70404052734375,0.5425933003425598,0.8755915760993958,0.0,0.0,0.0,0.0,0.0,0.0,0.0,0.0,0.0,0.012625695206224918,0.009780777618288994,0.03990881145000458,0.0,0.0,0.0,0.0,0.0,0.0,0.0,0.0,0.0
1606991131334019829,4147953,1606987530458417475,imu_link,0.0051359497010707855,0.007376754656434059,0.39631953835487366,0.9180686473846436,0.0,0.0,0.0,0.0,0.0,0.0,0.0,0.0,0.0,46.70273208618164,0.5428156852722168,0.8754045367240906,0.0,0.0,0.0,0.0,0.0,0.0,0.0,0.0,0.0,0.00842215958982706,0.016985049471259117,0.054171327501535416,0.0,0.0,0.0,0.0,0.0,0.0,0.0,0.0,0.0
1606991131400986010,4147954,1606987530458563528,imu_link,0.0051359497010707855,0.007376754656434059,0.39631953835487366,0.9180686473846436,0.0,0.0,0.0,0.0,0.0,0.0,0.0,0.0,0.0,46.70273208618164,0.5428156852722168,0.8754045367240906,0.0,0.0,0.0,0.0,0.0,0.0,0.0,0.0,0.0,0.00842215958982706,0.016985049471259117,0.054171327501535416,0.0,0.0,0.0,0.0,0.0,0.0,0.0,0.0,0.0
1606991131401048609,4147955,1606987530458753027,imu_link,0.0051341187208890915,0.0073771290481090546,0.3963208794593811,0.9180681109428406,0.0,0.0,0.0,0.0,0.0,0.0,0.0,0.0,0.0,46.70289993286133,0.5429369211196899,0.8752296566963196,0.0,0.0,0.0,0.0,0.0,0.0,0.0,0.0,0.0,-0.003003047313541174,0.025158992037177086,0.051533643156290054,0.0,0.0,0.0,0.0,0.0,0.0,0.0,0.0,0.0
1606991131401066517,4147956,1606987530458839527,imu_link,0.0051341187208890915,0.0073771290481090546,0.3963208794593811,0.9180681109428406,0.0,0.0,0.0,0.0,0.0,0.0,0.0,0.0,0.0,46.70289993286133,0.5429369211196899,0.8752296566963196,0.0,0.0,0.0,0.0,0.0,0.0,0.0,0.0,0.0,-0.003003047313541174,0.025158992037177086,0.051533643156290054,0.0,0.0,0.0,0.0,0.0,0.0,0.0,0.0,0.0
1606991131401079767,4147957,1606987530459019759,imu_link,0.005129261873662472,0.0073767732828855515,0.3963231146335602,0.918067216873169,0.0,0.0,0.0,0.0,0.0,0.0,0.0,0.0,0.0,46.70317459106445,0.5431180596351624,0.8747037649154663,0.0,0.0,0.0,0.0,0.0,0.0,0.0,0.0,0.0,-0.011791880242526531,0.027584372088313103,0.052851881831884384,0.0,0.0,0.0,0.0,0.0,0.0,0.0,0.0,0.0
1606991131401104962,4147958,1606987530459112378,imu_link,0.005129261873662472,0.0073767732828855515,0.3963231146335602,0.918067216873169,0.0,0.0,0.0,0.0,0.0,0.0,0.0,0.0,0.0,46.70317459106445,0.5431180596351624,0.8747037649154663,0.0,0.0,0.0,0.0,0.0,0.0,0.0,0.0,0.0,-0.011791880242526531,0.027584372088313103,0.052851881831884384,0.0,0.0,0.0,0.0,0.0,0.0,0.0,0.0,0.0
1606991131404980603,4147959,1606987530459303285,imu_link,0.005128668621182442,0.007378485519438982,0.3963230550289154,0.918067216873169,0.0,0.0,0.0,0.0,0.0,0.0,0.0,0.0,0.0,46.70317077636719,0.5433252453804016,0.8747192025184631,0.0,0.0,0.0,0.0,0.0,0.0,0.0,0.0,0.0,-0.0009540193132124841,0.02802402339875698,0.0727093294262886,0.0,0.0,0.0,0.0,0.0,0.0,0.0,0.0,0.0
1606991131405015800,4147960,1606987530459390016,imu_link,0.005128668621182442,0.007378485519438982,0.3963230550289154,0.918067216873169,0.0,0.0,0.0,0.0,0.0,0.0,0.0,0.0,0.0,46.70317077636719,0.5433252453804016,0.8747192025184631,0.0,0.0,0.0,0.0,0.0,0.0,0.0,0.0,0.0,-0.0009540193132124841,0.02802402339875698,0.0727093294262886,0.0,0.0,0.0,0.0,0.0,0.0,0.0,0.0,0.0
1606991131405036344,4147961,1606987530459533007,imu_link,0.005125609692186117,0.0073769474402070045,0.396323025226593,0.9180672764778137,0.0,0.0,0.0,0.0,0.0,0.0,0.0,0.0,0.0,46.70315933227539,0.5433024168014526,0.8743274807929993,0.0,0.0,0.0,0.0,0.0,0.0,0.0,0.0,0.0,0.005492118187248707,0.03141658753156662,0.06312336027622223,0.0,0.0,0.0,0.0,0.0,0.0,0.0,0.0,0.0
1606991131405045376,4147962,1606987530459620043,imu_link,0.005125609692186117,0.0073769474402070045,0.396323025226593,0.9180672764778137,0.0,0.0,0.0,0.0,0.0,0.0,0.0,0.0,0.0,46.70315933227539,0.5433024168014526,0.8743274807929993,0.0,0.0,0.0,0.0,0.0,0.0,0.0,0.0,0.0,0.005492118187248707,0.03141658753156662,0.06312336027622223,0.0,0.0,0.0,0.0,0.0,0.0,0.0,0.0,0.0
1606991131409530872,4147963,1606987530459708007,imu_link,0.005125694442540407,0.007378479465842247,0.39632347226142883,0.9180670380592346,0.0,0.0,0.0,0.0,0.0,0.0,0.0,0.0,0.0,46.703224182128906,0.5434592962265015,0.8744062781333923,0.0,0.0,0.0,0.0,0.0,0.0,0.0,0.0,0.0,0.007601343560963869,0.002630598610267043,0.04106184467673302,0.0,0.0,0.0,0.0,0.0,0.0,0.0,0.0,0.0
1606991131409562908,4147964,1606987530472176793,imu_link,0.005125694442540407,0.007378479465842247,0.39632347226142883,0.9180670380592346,0.0,0.0,0.0,0.0,0.0,0.0,0.0,0.0,0.0,46.703224182128906,0.5434592962265015,0.8744062781333923,0.0,0.0,0.0,0.0,0.0,0.0,0.0,0.0,0.0,0.007601343560963869,0.002630598610267043,0.04106184467673302,0.0,0.0,0.0,0.0,0.0,0.0,0.0,0.0,0.0
1606991131409599422,4147965,1606987530472315229,imu_link,0.005125022958964109,0.007379315327852964,0.39632710814476013,0.9180654883384705,0.0,0.0,0.0,0.0,0.0,0.0,0.0,0.0,0.0,46.703670501708984,0.5435742139816284,0.8743757605552673,0.0,0.0,0.0,0.0,0.0,0.0,0.0,0.0,0.0,0.0006376218516379595,-0.008134699426591396,0.06416070461273193,0.0,0.0,0.0,0.0,0.0,0.0,0.0,0.0,0.0
1606991131409614415,4147966,1606987530472506882,imu_link,0.005125022958964109,0.007379315327852964,0.39632710814476013,0.9180654883384705,0.0,0.0,0.0,0.0,0.0,0.0,0.0,0.0,0.0,46.703670501708984,0.5435742139816284,0.8743757605552673,0.0,0.0,0.0,0.0,0.0,0.0,0.0,0.0,0.0,0.0006376218516379595,-0.008134699426591396,0.06416070461273193,0.0,0.0,0.0,0.0,0.0,0.0,0.0,0.0,0.0
1606991131409629762,4147967,1606987530472596831,imu_link,0.005126172676682472,0.007379078306257725,0.396327406167984,0.9180653691291809,0.0,0.0,0.0,0.0,0.0,0.0,0.0,0.0,0.0,46.703712463378906,0.54349684715271,0.8744860291481018,0.0,0.0,0.0,0.0,0.0,0.0,0.0,0.0,0.0,0.005685978569090366,0.015831319615244865,0.0726170688867569,0.0,0.0,0.0,0.0,0.0,0.0,0.0,0.0,0.0
1606991131416411814,4147968,1606987530472756871,imu_link,0.005126172676682472,0.007379078306257725,0.396327406167984,0.9180653691291809,0.0,0.0,0.0,0.0,0.0,0.0,0.0,0.0,0.0,46.703712463378906,0.54349684715271,0.8744860291481018,0.0,0.0,0.0,0.0,0.0,0.0,0.0,0.0,0.0,0.005685978569090366,0.015831319615244865,0.0726170688867569,0.0,0.0,0.0,0.0,0.0,0.0,0.0,0.0,0.0
1606991131416455016,4147969,1606987530472861674,imu_link,0.005124082323163748,0.007379806134849787,0.3963320851325989,0.9180633425712585,0.0,0.0,0.0,0.0,0.0,0.0,0.0,0.0,0.0,46.70429229736328,0.5436638593673706,0.8743019700050354,0.0,0.0,0.0,0.0,0.0,0.0,0.0,0.0,0.0,0.019771073013544083,0.01752137579023838,0.04849586263298988,0.0,0.0,0.0,0.0,0.0,0.0,0.0,0.0,0.0
1606991131416472623,4147970,1606987530472945778,imu_link,0.005124082323163748,0.007379806134849787,0.3963320851325989,0.9180633425712585,0.0,0.0,0.0,0.0,0.0,0.0,0.0,0.0,0.0,46.70429229736328,0.5436638593673706,0.8743019700050354,0.0,0.0,0.0,0.0,0.0,0.0,0.0,0.0,0.0,0.019771073013544083,0.01752137579023838,0.04849586263298988,0.0,0.0,0.0,0.0,0.0,0.0,0.0,0.0,0.0
1606991131416498348,4147971,1606987530473027728,imu_link,0.0051239365711808205,0.007380015216767788,0.3963339924812317,0.9180625081062317,0.0,0.0,0.0,0.0,0.0,0.0,0.0,0.0,0.0,46.70453643798828,0.5436906814575195,0.8742972612380981,0.0,0.0,0.0,0.0,0.0,0.0,0.0,0.0,0.0,0.001521738595329225,0.011667877435684204,0.034538570791482925,0.0,0.0,0.0,0.0,0.0,0.0,0.0,0.0,0.0
1606991131538099483,4147972,1606987530473110093,imu_link,0.0051239365711808205,0.007380015216767788,0.3963339924812317,0.9180625081062317,0.0,0.0,0.0,0.0,0.0,0.0,0.0,0.0,0.0,46.70453643798828,0.5436906814575195,0.8742972612380981,0.0,0.0,0.0,0.0,0.0,0.0,0.0,0.0,0.0,0.001521738595329225,0.011667877435684204,0.034538570791482925,0.0,0.0,0.0,0.0,0.0,0.0,0.0,0.0,0.0
1606991131538127190,4147973,1606987530473190865,imu_link,0.005121822468936443,0.007380728609859943,0.3963373601436615,0.9180610179901123,0.0,0.0,0.0,0.0,0.0,0.0,0.0,0.0,0.0,46.704952239990234,0.543858528137207,0.8741093873977661,0.0,0.0,0.0,0.0,0.0,0.0,0.0,0.0,0.0,-0.012177033349871635,-0.00397339416667819,0.04570111632347107,0.0,0.0,0.0,0.0,0.0,0.0,0.0,0.0,0.0
1606991131538158720,4147974,1606987530473274835,imu_link,0.005121822468936443,0.007380728609859943,0.3963373601436615,0.9180610179901123,0.0,0.0,0.0,0.0,0.0,0.0,0.0,0.0,0.0,46.704952239990234,0.543858528137207,0.8741093873977661,0.0,0.0,0.0,0.0,0.0,0.0,0.0,0.0,0.0,-0.012177033349871635,-0.00397339416667819,0.04570111632347107,0.0,0.0,0.0,0.0,0.0,0.0,0.0,0.0,0.0
1606991131538169422,4147975,1606987530484915951,imu_link,0.005121976137161255,0.007380920462310314,0.3963378667831421,0.9180607795715332,0.0,0.0,0.0,0.0,0.0,0.0,0.0,0.0,0.0,46.705020904541016,0.5438711643218994,0.8741344809532166,0.0,0.0,0.0,0.0,0.0,0.0,0.0,0.0,0.0,-0.007983915507793427,-0.022306999191641808,0.04878103360533714,0.0,0.0,0.0,0.0,0.0,0.0,0.0,0.0,0.0
1606991131538182330,4147976,1606987530485031403,imu_link,0.005121976137161255,0.007380920462310314,0.3963378667831421,0.9180607795715332,0.0,0.0,0.0,0.0,0.0,0.0,0.0,0.0,0.0,46.705020904541016,0.5438711643218994,0.8741344809532166,0.0,0.0,0.0,0.0,0.0,0.0,0.0,0.0,0.0,-0.007983915507793427,-0.022306999191641808,0.04878103360533714,0.0,0.0,0.0,0.0,0.0,0.0,0.0,0.0,0.0
1606991131547267220,4147977,1606987530485118194,imu_link,0.005123970564454794,0.007381215691566467,0.3963454067707062,0.9180575013160706,0.0,0.0,0.0,0.0,0.0,0.0,0.0,0.0,0.0,46.70596694946289,0.543804407119751,0.8743622303009033,0.0,0.0,0.0,0.0,0.0,0.0,0.0,0.0,0.0,-0.0003537086013238877,-0.011434284970164299,0.03884030133485794,0.0,0.0,0.0,0.0,0.0,0.0,0.0,0.0,0.0
1606991131547309334,4147978,1606987530485199051,imu_link,0.005123970564454794,0.007381215691566467,0.3963454067707062,0.9180575013160706,0.0,0.0,0.0,0.0,0.0,0.0,0.0,0.0,0.0,46.70596694946289,0.543804407119751,0.8743622303009033,0.0,0.0,0.0,0.0,0.0,0.0,0.0,0.0,0.0,-0.0003537086013238877,-0.011434284970164299,0.03884030133485794,0.0,0.0,0.0,0.0,0.0,0.0,0.0,0.0,0.0
1606991131547355013,4147979,1606987530485283371,imu_link,0.00512328976765275,0.0073828911408782005,0.39634522795677185,0.9180576205253601,0.0,0.0,0.0,0.0,0.0,0.0,0.0,0.0,0.0,46.705936431884766,0.5440118312835693,0.8743665814399719,0.0,0.0,0.0,0.0,0.0,0.0,0.0,0.0,0.0,0.0018931247759610415,0.0006235736655071378,0.04438628628849983,0.0,0.0,0.0,0.0,0.0,0.0,0.0,0.0,0.0
1606991131547384395,4147980,1606987530485380220,imu_link,0.00512328976765275,0.0073828911408782005,0.39634522795677185,0.9180576205253601,0.0,0.0,0.0,0.0,0.0,0.0,0.0,0.0,0.0,46.705936431884766,0.5440118312835693,0.8743665814399719,0.0,0.0,0.0,0.0,0.0,0.0,0.0,0.0,0.0,0.0018931247759610415,0.0006235736655071378,0.04438628628849983,0.0,0.0,0.0,0.0,0.0,0.0,0.0,0.0,0.0
1606991131557553379,4147981,1606987530485466134,imu_link,0.00512179359793663,0.0073817274533212185,0.3963431417942047,0.9180585145950317,0.0,0.0,0.0,0.0,0.0,0.0,0.0,0.0,0.0,46.70568084716797,0.543959379196167,0.8741550445556641,0.0,0.0,0.0,0.0,0.0,0.0,0.0,0.0,0.0,-0.018564339727163315,-0.005634909495711327,0.020716514438390732,0.0,0.0,0.0,0.0,0.0,0.0,0.0,0.0,0.0
1606991131557592896,4147982,1606987530485548495,imu_link,0.00512179359793663,0.0073817274533212185,0.3963431417942047,0.9180585145950317,0.0,0.0,0.0,0.0,0.0,0.0,0.0,0.0,0.0,46.70568084716797,0.543959379196167,0.8741550445556641,0.0,0.0,0.0,0.0,0.0,0.0,0.0,0.0,0.0,-0.018564339727163315,-0.005634909495711327,0.020716514438390732,0.0,0.0,0.0,0.0,0.0,0.0,0.0,0.0,0.0
1606991131557653687,4147983,1606987530485636513,imu_link,0.00512209115549922,0.007380641531199217,0.39634475111961365,0.9180578589439392,0.0,0.0,0.0,0.0,0.0,0.0,0.0,0.0,0.0,46.70587921142578,0.543830156326294,0.8741379380226135,0.0,0.0,0.0,0.0,0.0,0.0,0.0,0.0,0.0,-0.014245464466512203,0.0033302162773907185,0.02591356262564659,0.0,0.0,0.0,0.0,0.0,0.0,0.0,0.0,0.0
1606991131557667992,4147984,1606987530485716749,imu_link,0.00512209115549922,0.007380641531199217,0.39634475111961365,0.9180578589439392,0.0,0.0,0.0,0.0,0.0,0.0,0.0,0.0,0.0,46.70587921142578,0.543830156326294,0.8741379380226135,0.0,0.0,0.0,0.0,0.0,0.0,0.0,0.0,0.0,-0.014245464466512203,0.0033302162773907185,0.02591356262564659,0.0,0.0,0.0,0.0,0.0,0.0,0.0,0.0,0.0
1606991131561481872,4147985,1606987530498365377,imu_link,0.005123191513121128,0.007375664077699184,0.3963463604450226,0.9180572032928467,0.0,0.0,0.0,0.0,0.0,0.0,0.0,0.0,0.0,46.7060661315918,0.5432549715042114,0.8740285038948059,0.0,0.0,0.0,0.0,0.0,0.0,0.0,0.0,0.0,0.003664046060293913,0.015420426614582539,0.047523338347673416,0.0,0.0,0.0,0.0,0.0,0.0,0.0,0.0,0.0
1606991131561529203,4147986,1606987530498482042,imu_link,0.005123191513121128,0.007375664077699184,0.3963463604450226,0.9180572032928467,0.0,0.0,0.0,0.0,0.0,0.0,0.0,0.0,0.0,46.7060661315918,0.5432549715042114,0.8740285038948059,0.0,0.0,0.0,0.0,0.0,0.0,0.0,0.0,0.0,0.003664046060293913,0.015420426614582539,0.047523338347673416,0.0,0.0,0.0,0.0,0.0,0.0,0.0,0.0,0.0
1606991131561627043,4147987,1606987530498569895,imu_link,0.005122206639498472,0.007376669440418482,0.3963482975959778,0.918056309223175,0.0,0.0,0.0,0.0,0.0,0.0,0.0,0.0,0.0,46.706321716308594,0.5434035658836365,0.8739718198776245,0.0,0.0,0.0,0.0,0.0,0.0,0.0,0.0,0.0,-0.005575776100158691,0.009755528531968594,0.012593896128237247,0.0,0.0,0.0,0.0,0.0,0.0,0.0,0.0,0.0
1606991131561649306,4147988,1606987530498653614,imu_link,0.005122206639498472,0.007376669440418482,0.3963482975959778,0.918056309223175,0.0,0.0,0.0,0.0,0.0,0.0,0.0,0.0,0.0,46.706321716308594,0.5434035658836365,0.8739718198776245,0.0,0.0,0.0,0.0,0.0,0.0,0.0,0.0,0.0,-0.005575776100158691,0.009755528531968594,0.012593896128237247,0.0,0.0,0.0,0.0,0.0,0.0,0.0,0.0,0.0
1606991131561669016,4147989,1606987530498741793,imu_link,0.005120915826410055,0.0073752072639763355,0.396348237991333,0.9180563688278198,0.0,0.0,0.0,0.0,0.0,0.0,0.0,0.0,0.0,46.70630645751953,0.5433084964752197,0.8737694621086121,0.0,0.0,0.0,0.0,0.0,0.0,0.0,0.0,0.0,0.007489195559173822,0.008313213475048542,0.007364068180322647,0.0,0.0,0.0,0.0,0.0,0.0,0.0,0.0,0.0
1606991131634723829,4147990,1606987530498821332,imu_link,0.005120915826410055,0.0073752072639763355,0.396348237991333,0.9180563688278198,0.0,0.0,0.0,0.0,0.0,0.0,0.0,0.0,0.0,46.70630645751953,0.5433084964752197,0.8737694621086121,0.0,0.0,0.0,0.0,0.0,0.0,0.0,0.0,0.0,0.007489195559173822,0.008313213475048542,0.007364068180322647,0.0,0.0,0.0,0.0,0.0,0.0,0.0,0.0,0.0
1606991131634755573,4147991,1606987530498924365,imu_link,0.005122288595885038,0.007374272681772709,0.39634886384010315,0.9180561304092407,0.0,0.0,0.0,0.0,0.0,0.0,0.0,0.0,0.0,46.706382751464844,0.5431472063064575,0.8738718032836914,0.0,0.0,0.0,0.0,0.0,0.0,0.0,0.0,0.0,0.01486121118068695,0.012957881204783916,0.03334441035985947,0.0,0.0,0.0,0.0,0.0,0.0,0.0,0.0,0.0
1606991131634768931,4147992,1606987530499072829,imu_link,0.005122288595885038,0.007374272681772709,0.39634886384010315,0.9180561304092407,0.0,0.0,0.0,0.0,0.0,0.0,0.0,0.0,0.0,46.706382751464844,0.5431472063064575,0.8738718032836914,0.0,0.0,0.0,0.0,0.0,0.0,0.0,0.0,0.0,0.01486121118068695,0.012957881204783916,0.03334441035985947,0.0,0.0,0.0,0.0,0.0,0.0,0.0,0.0,0.0
1606991131634793947,4147993,1606987530499160417,imu_link,0.00511765293776989,0.00737580843269825,0.39634737372398376,0.9180567860603333,0.0,0.0,0.0,0.0,0.0,0.0,0.0,0.0,0.0,46.70619583129883,0.5435207486152649,0.8734529614448547,0.0,0.0,0.0,0.0,0.0,0.0,0.0,0.0,0.0,-0.015690205618739128,0.012162016704678535,0.028762247413396835,0.0,0.0,0.0,0.0,0.0,0.0,0.0,0.0,0.0
1606991131646252172,4147994,1606987530499296832,imu_link,0.00511765293776989,0.00737580843269825,0.39634737372398376,0.9180567860603333,0.0,0.0,0.0,0.0,0.0,0.0,0.0,0.0,0.0,46.70619583129883,0.5435207486152649,0.8734529614448547,0.0,0.0,0.0,0.0,0.0,0.0,0.0,0.0,0.0,-0.015690205618739128,0.012162016704678535,0.028762247413396835,0.0,0.0,0.0,0.0,0.0,0.0,0.0,0.0,0.0
1606991131646275471,4147995,1606987530499385202,imu_link,0.005119875073432922,0.007375940214842558,0.3963465094566345,0.9180571436882019,0.0,0.0,0.0,0.0,0.0,0.0,0.0,0.0,0.0,46.70608901977539,0.5434345006942749,0.8736922144889832,0.0,0.0,0.0,0.0,0.0,0.0,0.0,0.0,0.0,-0.02959481254220009,0.007283363491296768,0.033590227365493774,0.0,0.0,0.0,0.0,0.0,0.0,0.0,0.0,0.0
1606991131646310948,4147996,1606987530512310776,imu_link,0.005119875073432922,0.007375940214842558,0.3963465094566345,0.9180571436882019,0.0,0.0,0.0,0.0,0.0,0.0,0.0,0.0,0.0,46.70608901977539,0.5434345006942749,0.8736922144889832,0.0,0.0,0.0,0.0,0.0,0.0,0.0,0.0,0.0,-0.02959481254220009,0.007283363491296768,0.033590227365493774,0.0,0.0,0.0,0.0,0.0,0.0,0.0,0.0,0.0
1606991131646328980,4147997,1606987530512455676,imu_link,0.0051210736855864525,0.007370315492153168,0.3963489830493927,0.9180561304092407,0.0,0.0,0.0,0.0,0.0,0.0,0.0,0.0,0.0,46.70638656616211,0.5427860617637634,0.8735642433166504,0.0,0.0,0.0,0.0,0.0,0.0,0.0,0.0,0.0,-0.007681711111217737,-0.0005777989281341434,0.04319404065608978,0.0,0.0,0.0,0.0,0.0,0.0,0.0,0.0,0.0
1606991131646357430,4147998,1606987530512641932,imu_link,0.0051210736855864525,0.007370315492153168,0.3963489830493927,0.9180561304092407,0.0,0.0,0.0,0.0,0.0,0.0,0.0,0.0,0.0,46.70638656616211,0.5427860617637634,0.8735642433166504,0.0,0.0,0.0,0.0,0.0,0.0,0.0,0.0,0.0,-0.007681711111217737,-0.0005777989281341434,0.04319404065608978,0.0,0.0,0.0,0.0,0.0,0.0,0.0,0.0,0.0
1606991131655597992,4147999,1606987530512729845,imu_link,0.005118697416037321,0.0073699322529137135,0.3963490426540375,0.9180561304092407,0.0,0.0,0.0,0.0,0.0,0.0,0.0,0.0,0.0,46.706398010253906,0.542853593826294,0.873296856880188,0.0,0.0,0.0,0.0,0.0,0.0,0.0,0.0,0.0,0.030860278755426407,-0.0007987070130184293,0.056156959384679794,0.0,0.0,0.0,0.0,0.0,0.0,0.0,0.0,0.0
1606991131655646938,4148000,1606987530512818010,imu_link,0.005118697416037321,0.0073699322529137135,0.3963490426540375,0.9180561304092407,0.0,0.0,0.0,0.0,0.0,0.0,0.0,0.0,0.0,46.706398010253906,0.542853593826294,0.873296856880188,0.0,0.0,0.0,0.0,0.0,0.0,0.0,0.0,0.0,0.030860278755426407,-0.0007987070130184293,0.056156959384679794,0.0,0.0,0.0,0.0,0.0,0.0,0.0,0.0,0.0
1606991131655664739,4148001,1606987530512905758,imu_link,0.005115830339491367,0.007374335080385208,0.39634940028190613,0.9180559515953064,0.0,0.0,0.0,0.0,0.0,0.0,0.0,0.0,0.0,46.706451416015625,0.5434467196464539,0.873195469379425,0.0,0.0,0.0,0.0,0.0,0.0,0.0,0.0,0.0,0.030585844069719315,-0.0008337389444932342,0.061247702687978745,0.0,0.0,0.0,0.0,0.0,0.0,0.0,0.0,0.0
1606991131655676361,4148002,1606987530513148444,imu_link,0.005115830339491367,0.007374335080385208,0.39634940028190613,0.9180559515953064,0.0,0.0,0.0,0.0,0.0,0.0,0.0,0.0,0.0,46.706451416015625,0.5434467196464539,0.873195469379425,0.0,0.0,0.0,0.0,0.0,0.0,0.0,0.0,0.0,0.030585844069719315,-0.0008337389444932342,0.061247702687978745,0.0,0.0,0.0,0.0,0.0,0.0,0.0,0.0,0.0
1606991131692935662,4148003,1606987530513271489,imu_link,0.005117332097142935,0.007373258471488953,0.3963468074798584,0.9180570840835571,0.0,0.0,0.0,0.0,0.0,0.0,0.0,0.0,0.0,46.70612335205078,0.5432677268981934,0.8733030557632446,0.0,0.0,0.0,0.0,0.0,0.0,0.0,0.0,0.0,0.0046423026360571384,0.007508537266403437,0.05444275587797165,0.0,0.0,0.0,0.0,0.0,0.0,0.0,0.0,0.0
1606991131693005998,4148004,1606987530513353835,imu_link,0.005117332097142935,0.007373258471488953,0.3963468074798584,0.9180570840835571,0.0,0.0,0.0,0.0,0.0,0.0,0.0,0.0,0.0,46.70612335205078,0.5432677268981934,0.8733030557632446,0.0,0.0,0.0,0.0,0.0,0.0,0.0,0.0,0.0,0.0046423026360571384,0.007508537266403437,0.05444275587797165,0.0,0.0,0.0,0.0,0.0,0.0,0.0,0.0,0.0
1606991131693026373,4148005,1606987530513430332,imu_link,0.005114069674164057,0.007374787703156471,0.39634969830513,0.9180558323860168,0.0,0.0,0.0,0.0,0.0,0.0,0.0,0.0,0.0,46.706485748291016,0.5435740351676941,0.8730310201644897,0.0,0.0,0.0,0.0,0.0,0.0,0.0,0.0,0.0,0.006860417313873768,0.0035415291786193848,0.07328610867261887,0.0,0.0,0.0,0.0,0.0,0.0,0.0,0.0,0.0
1606991131693038652,4148006,1606987530513507856,imu_link,0.005114069674164057,0.007374787703156471,0.39634969830513,0.9180558323860168,0.0,0.0,0.0,0.0,0.0,0.0,0.0,0.0,0.0,46.706485748291016,0.5435740351676941,0.8730310201644897,0.0,0.0,0.0,0.0,0.0,0.0,0.0,0.0,0.0,0.006860417313873768,0.0035415291786193848,0.07328610867261887,0.0,0.0,0.0,0.0,0.0,0.0,0.0,0.0,0.0
1606991131693050578,4148007,1606987530525868983,imu_link,0.0051149833016097546,0.007374509237706661,0.39635130763053894,0.9180551171302795,0.0,0.0,0.0,0.0,0.0,0.0,0.0,0.0,0.0,46.70668411254883,0.5435016751289368,0.8731153607368469,0.0,0.0,0.0,0.0,0.0,0.0,0.0,0.0,0.0,0.014963417313992977,-0.017997262999415398,0.05561427026987076,0.0,0.0,0.0,0.0,0.0,0.0,0.0,0.0,0.0
1606991131754559465,4148008,1606987530526009423,imu_link,0.0051149833016097546,0.007374509237706661,0.39635130763053894,0.9180551171302795,0.0,0.0,0.0,0.0,0.0,0.0,0.0,0.0,0.0,46.70668411254883,0.5435016751289368,0.8731153607368469,0.0,0.0,0.0,0.0,0.0,0.0,0.0,0.0,0.0,0.014963417313992977,-0.017997262999415398,0.05561427026987076,0.0,0.0,0.0,0.0,0.0,0.0,0.0,0.0,0.0
1606991131754579347,4148009,1606987530526163570,imu_link,0.005117070861160755,0.007379703223705292,0.39635422825813293,0.9180538058280945,0.0,0.0,0.0,0.0,0.0,0.0,0.0,0.0,0.0,46.70705795288086,0.5439504384994507,0.873572826385498,0.0,0.0,0.0,0.0,0.0,0.0,0.0,0.0,0.0,-0.0069926586002111435,0.015298319049179554,0.021760476753115654,0.0,0.0,0.0,0.0,0.0,0.0,0.0,0.0,0.0
1606991131754585680,4148010,1606987530526258490,imu_link,0.005117070861160755,0.007379703223705292,0.39635422825813293,0.9180538058280945,0.0,0.0,0.0,0.0,0.0,0.0,0.0,0.0,0.0,46.70705795288086,0.5439504384994507,0.873572826385498,0.0,0.0,0.0,0.0,0.0,0.0,0.0,0.0,0.0,-0.0069926586002111435,0.015298319049179554,0.021760476753115654,0.0,0.0,0.0,0.0,0.0,0.0,0.0,0.0,0.0
1606991131754599773,4148011,1606987530526335714,imu_link,0.005115981213748455,0.007379581220448017,0.396353155374527,0.9180542826652527,0.0,0.0,0.0,0.0,0.0,0.0,0.0,0.0,0.0,46.70692825317383,0.5439881086349487,0.8734519481658936,0.0,0.0,0.0,0.0,0.0,0.0,0.0,0.0,0.0,-0.005113393999636173,0.027112575247883797,0.04414863884449005,0.0,0.0,0.0,0.0,0.0,0.0,0.0,0.0,0.0
1606991131765428976,4148012,1606987530526417102,imu_link,0.005115981213748455,0.007379581220448017,0.396353155374527,0.9180542826652527,0.0,0.0,0.0,0.0,0.0,0.0,0.0,0.0,0.0,46.70692825317383,0.5439881086349487,0.8734519481658936,0.0,0.0,0.0,0.0,0.0,0.0,0.0,0.0,0.0,-0.005113393999636173,0.027112575247883797,0.04414863884449005,0.0,0.0,0.0,0.0,0.0,0.0,0.0,0.0,0.0
1606991131765457639,4148013,1606987530526511781,imu_link,0.005114198196679354,0.007375253830105066,0.3963560163974762,0.9180529713630676,0.0,0.0,0.0,0.0,0.0,0.0,0.0,0.0,0.0,46.707279205322266,0.5436111092567444,0.8730696439743042,0.0,0.0,0.0,0.0,0.0,0.0,0.0,0.0,0.0,0.012090003117918968,-0.0013589628506451845,0.08184605091810226,0.0,0.0,0.0,0.0,0.0,0.0,0.0,0.0,0.0
1606991131765469362,4148014,1606987530526595425,imu_link,0.005114198196679354,0.007375253830105066,0.3963560163974762,0.9180529713630676,0.0,0.0,0.0,0.0,0.0,0.0,0.0,0.0,0.0,46.707279205322266,0.5436111092567444,0.8730696439743042,0.0,0.0,0.0,0.0,0.0,0.0,0.0,0.0,0.0,0.012090003117918968,-0.0013589628506451845,0.08184605091810226,0.0,0.0,0.0,0.0,0.0,0.0,0.0,0.0,0.0
1606991131765475865,4148015,1606987530526679214,imu_link,0.0051139951683580875,0.00737330736592412,0.39635470509529114,0.9180535674095154,0.0,0.0,0.0,0.0,0.0,0.0,0.0,0.0,0.0,46.70710754394531,0.5434167981147766,0.8729589581489563,0.0,0.0,0.0,0.0,0.0,0.0,0.0,0.0,0.0,0.005411962512880564,0.006381102371960878,0.07362967729568481,0.0,0.0,0.0,0.0,0.0,0.0,0.0,0.0,0.0
1606991131765495808,4148016,1606987530526762120,imu_link,0.0051139951683580875,0.00737330736592412,0.39635470509529114,0.9180535674095154,0.0,0.0,0.0,0.0,0.0,0.0,0.0,0.0,0.0,46.70710754394531,0.5434167981147766,0.8729589581489563,0.0,0.0,0.0,0.0,0.0,0.0,0.0,0.0,0.0,0.005411962512880564,0.006381102371960878,0.07362967729568481,0.0,0.0,0.0,0.0,0.0,0.0,0.0,0.0,0.0
1606991131770512629,4148017,1606987530526844005,imu_link,0.005112287122756243,0.007372373715043068,0.39635664224624634,0.9180528521537781,0.0,0.0,0.0,0.0,0.0,0.0,0.0,0.0,0.0,46.70734405517578,0.5433943867683411,0.8727378249168396,0.0,0.0,0.0,0.0,0.0,0.0,0.0,0.0,0.0,0.0017244581831619143,0.01570463739335537,0.04202025756239891,0.0,0.0,0.0,0.0,0.0,0.0,0.0,0.0,0.0
1606991131770530538,4148018,1606987530539507081,imu_link,0.005112287122756243,0.007372373715043068,0.39635664224624634,0.9180528521537781,0.0,0.0,0.0,0.0,0.0,0.0,0.0,0.0,0.0,46.70734405517578,0.5433943867683411,0.8727378249168396,0.0,0.0,0.0,0.0,0.0,0.0,0.0,0.0,0.0,0.0017244581831619143,0.01570463739335537,0.04202025756239891,0.0,0.0,0.0,0.0,0.0,0.0,0.0,0.0,0.0
1606991131770565466,4148019,1606987530539623576,imu_link,0.005112857557833195,0.0073723443783819675,0.3963572680950165,0.918052613735199,0.0,0.0,0.0,0.0,0.0,0.0,0.0,0.0,0.0,46.70742416381836,0.5433648228645325,0.8727969527244568,0.0,0.0,0.0,0.0,0.0,0.0,0.0,0.0,0.0,-0.0025808936916291714,0.004632029682397842,0.030971132218837738,0.0,0.0,0.0,0.0,0.0,0.0,0.0,0.0,0.0
1606991131770576324,4148020,1606987530539711229,imu_link,0.005112857557833195,0.0073723443783819675,0.3963572680950165,0.918052613735199,0.0,0.0,0.0,0.0,0.0,0.0,0.0,0.0,0.0,46.70742416381836,0.5433648228645325,0.8727969527244568,0.0,0.0,0.0,0.0,0.0,0.0,0.0,0.0,0.0,-0.0025808936916291714,0.004632029682397842,0.030971132218837738,0.0,0.0,0.0,0.0,0.0,0.0,0.0,0.0,0.0
1606991131775007217,4148021,1606987530539792592,imu_link,0.005112248007208109,0.00737165380269289,0.3963560163974762,0.9180530309677124,0.0,0.0,0.0,0.0,0.0,0.0,0.0,0.0,0.0,46.70726776123047,0.5433209538459778,0.8727008700370789,0.0,0.0,0.0,0.0,0.0,0.0,0.0,0.0,0.0,-0.0010738135315477848,-0.0027169797103852034,0.02338758297264576,0.0,0.0,0.0,0.0,0.0,0.0,0.0,0.0,0.0
1606991131775031023,4148022,1606987530539877258,imu_link,0.005112248007208109,0.00737165380269289,0.3963560163974762,0.9180530309677124,0.0,0.0,0.0,0.0,0.0,0.0,0.0,0.0,0.0,46.70726776123047,0.5433209538459778,0.8727008700370789,0.0,0.0,0.0,0.0,0.0,0.0,0.0,0.0,0.0,-0.0010738135315477848,-0.0027169797103852034,0.02338758297264576,0.0,0.0,0.0,0.0,0.0,0.0,0.0,0.0,0.0
1606991131775045040,4148023,1606987530539981028,imu_link,0.005111179314553738,0.007372564636170864,0.3963591754436493,0.9180517196655273,0.0,0.0,0.0,0.0,0.0,0.0,0.0,0.0,0.0,46.707664489746094,0.5434623956680298,0.8726314902305603,0.0,0.0,0.0,0.0,0.0,0.0,0.0,0.0,0.0,0.0002408089640084654,0.011043332517147064,0.031790174543857574,0.0,0.0,0.0,0.0,0.0,0.0,0.0,0.0,0.0
1606991131775059806,4148024,1606987530540066431,imu_link,0.005111179314553738,0.007372564636170864,0.3963591754436493,0.9180517196655273,0.0,0.0,0.0,0.0,0.0,0.0,0.0,0.0,0.0,46.707664489746094,0.5434623956680298,0.8726314902305603,0.0,0.0,0.0,0.0,0.0,0.0,0.0,0.0,0.0,0.0002408089640084654,0.011043332517147064,0.031790174543857574,0.0,0.0,0.0,0.0,0.0,0.0,0.0,0.0,0.0
1606991131775101050,4148025,1606987530540147443,imu_link,0.005110220983624458,0.007370960898697376,0.3963591158390045,0.9180517792701721,0.0,0.0,0.0,0.0,0.0,0.0,0.0,0.0,0.0,46.7076530456543,0.5433372259140015,0.8724578022956848,0.0,0.0,0.0,0.0,0.0,0.0,0.0,0.0,0.0,-0.00895904004573822,0.016694260761141777,0.06860633939504623,0.0,0.0,0.0,0.0,0.0,0.0,0.0,0.0,0.0
1606991131897655391,4148026,1606987530540230595,imu_link,0.005110220983624458,0.007370960898697376,0.3963591158390045,0.9180517792701721,0.0,0.0,0.0,0.0,0.0,0.0,0.0,0.0,0.0,46.7076530456543,0.5433372259140015,0.8724578022956848,0.0,0.0,0.0,0.0,0.0,0.0,0.0,0.0,0.0,-0.00895904004573822,0.016694260761141777,0.06860633939504623,0.0,0.0,0.0,0.0,0.0,0.0,0.0,0.0,0.0
1606991131897677111,4148027,1606987530540311538,imu_link,0.00510928500443697,0.007371700368821621,0.3963579535484314,0.9180522561073303,0.0,0.0,0.0,0.0,0.0,0.0,0.0,0.0,0.0,46.707515716552734,0.5434586405754089,0.8723922967910767,0.0,0.0,0.0,0.0,0.0,0.0,0.0,0.0,0.0,-0.010338278487324715,0.020199010148644447,0.06555535644292831,0.0,0.0,0.0,0.0,0.0,0.0,0.0,0.0,0.0
1606991131897685107,4148028,1606987530540392174,imu_link,0.00510928500443697,0.007371700368821621,0.3963579535484314,0.9180522561073303,0.0,0.0,0.0,0.0,0.0,0.0,0.0,0.0,0.0,46.707515716552734,0.5434586405754089,0.8723922967910767,0.0,0.0,0.0,0.0,0.0,0.0,0.0,0.0,0.0,-0.010338278487324715,0.020199010148644447,0.06555535644292831,0.0,0.0,0.0,0.0,0.0,0.0,0.0,0.0,0.0
1606991131897692018,4148029,1606987530552636592,imu_link,0.005105866119265556,0.007368608843535185,0.396358847618103,0.9180519580841064,0.0,0.0,0.0,0.0,0.0,0.0,0.0,0.0,0.0,46.70761489868164,0.5432879328727722,0.8718925714492798,0.0,0.0,0.0,0.0,0.0,0.0,0.0,0.0,0.0,-0.012181676924228668,0.025563981384038925,0.03016003407537937,0.0,0.0,0.0,0.0,0.0,0.0,0.0,0.0,0.0
1606991131904298582,4148030,1606987530552783356,imu_link,0.005105866119265556,0.007368608843535185,0.396358847618103,0.9180519580841064,0.0,0.0,0.0,0.0,0.0,0.0,0.0,0.0,0.0,46.70761489868164,0.5432879328727722,0.8718925714492798,0.0,0.0,0.0,0.0,0.0,0.0,0.0,0.0,0.0,-0.012181676924228668,0.025563981384038925,0.03016003407537937,0.0,0.0,0.0,0.0,0.0,0.0,0.0,0.0,0.0
1606991131904312367,4148031,1606987530552979956,imu_link,0.005108686164021492,0.0073682027868926525,0.3963606655597687,0.9180511832237244,0.0,0.0,0.0,0.0,0.0,0.0,0.0,0.0,0.0,46.70784378051758,0.5431153774261475,0.8721718192100525,0.0,0.0,0.0,0.0,0.0,0.0,0.0,0.0,0.0,-0.024549996480345726,0.010979223996400833,0.010442271828651428,0.0,0.0,0.0,0.0,0.0,0.0,0.0,0.0,0.0
1606991131904318266,4148032,1606987530553067559,imu_link,0.005108686164021492,0.0073682027868926525,0.3963606655597687,0.9180511832237244,0.0,0.0,0.0,0.0,0.0,0.0,0.0,0.0,0.0,46.70784378051758,0.5431153774261475,0.8721718192100525,0.0,0.0,0.0,0.0,0.0,0.0,0.0,0.0,0.0,-0.024549996480345726,0.010979223996400833,0.010442271828651428,0.0,0.0,0.0,0.0,0.0,0.0,0.0,0.0,0.0
1606991131904330477,4148033,1606987530553157507,imu_link,0.005107443779706955,0.007366576697677374,0.39636144042015076,0.9180508255958557,0.0,0.0,0.0,0.0,0.0,0.0,0.0,0.0,0.0,46.70793914794922,0.5429999828338623,0.8719677925109863,0.0,0.0,0.0,0.0,0.0,0.0,0.0,0.0,0.0,-0.024769915267825127,0.007889553904533386,0.02179301716387272,0.0,0.0,0.0,0.0,0.0,0.0,0.0,0.0,0.0
1606991131904343736,4148034,1606987530553299621,imu_link,0.005107443779706955,0.007366576697677374,0.39636144042015076,0.9180508255958557,0.0,0.0,0.0,0.0,0.0,0.0,0.0,0.0,0.0,46.70793914794922,0.5429999828338623,0.8719677925109863,0.0,0.0,0.0,0.0,0.0,0.0,0.0,0.0,0.0,-0.024769915267825127,0.007889553904533386,0.02179301716387272,0.0,0.0,0.0,0.0,0.0,0.0,0.0,0.0,0.0
1606991131912347467,4148035,1606987530553393318,imu_link,0.005107305012643337,0.0073680332861840725,0.396360844373703,0.9180510640144348,0.0,0.0,0.0,0.0,0.0,0.0,0.0,0.0,0.0,46.707862854003906,0.5431600213050842,0.8720189929008484,0.0,0.0,0.0,0.0,0.0,0.0,0.0,0.0,0.0,-0.028349891304969788,0.012169954366981983,0.04575033485889435,0.0,0.0,0.0,0.0,0.0,0.0,0.0,0.0,0.0
1606991131912367092,4148036,1606987530553557939,imu_link,0.005107305012643337,0.0073680332861840725,0.396360844373703,0.9180510640144348,0.0,0.0,0.0,0.0,0.0,0.0,0.0,0.0,0.0,46.707862854003906,0.5431600213050842,0.8720189929008484,0.0,0.0,0.0,0.0,0.0,0.0,0.0,0.0,0.0,-0.028349891304969788,0.012169954366981983,0.04575033485889435,0.0,0.0,0.0,0.0,0.0,0.0,0.0,0.0,0.0
1606991131912375171,4148037,1606987530553644885,imu_link,0.005107697565108538,0.007366781588643789,0.3963595926761627,0.9180516004562378,0.0,0.0,0.0,0.0,0.0,0.0,0.0,0.0,0.0,46.707706451416016,0.5430117249488831,0.8720027208328247,0.0,0.0,0.0,0.0,0.0,0.0,0.0,0.0,0.0,-0.023130645975470543,0.013215598650276661,0.043539609760046005,0.0,0.0,0.0,0.0,0.0,0.0,0.0,0.0,0.0
1606991131912385358,4148038,1606987530553718085,imu_link,0.005107697565108538,0.007366781588643789,0.3963595926761627,0.9180516004562378,0.0,0.0,0.0,0.0,0.0,0.0,0.0,0.0,0.0,46.707706451416016,0.5430117249488831,0.8720027208328247,0.0,0.0,0.0,0.0,0.0,0.0,0.0,0.0,0.0,-0.023130645975470543,0.013215598650276661,0.043539609760046005,0.0,0.0,0.0,0.0,0.0,0.0,0.0,0.0,0.0
1606991131915450106,4148039,1606987530566073449,imu_link,0.005106903612613678,0.007367865648120642,0.3963601887226105,0.9180513620376587,0.0,0.0,0.0,0.0,0.0,0.0,0.0,0.0,0.0,46.70778274536133,0.5431612730026245,0.8719687461853027,0.0,0.0,0.0,0.0,0.0,0.0,0.0,0.0,0.0,-0.0022222730331122875,-0.005337349604815245,0.04708005487918854,0.0,0.0,0.0,0.0,0.0,0.0,0.0,0.0,0.0
1606991131915471376,4148040,1606987530566218935,imu_link,0.005106903612613678,0.007367865648120642,0.3963601887226105,0.9180513620376587,0.0,0.0,0.0,0.0,0.0,0.0,0.0,0.0,0.0,46.70778274536133,0.5431612730026245,0.8719687461853027,0.0,0.0,0.0,0.0,0.0,0.0,0.0,0.0,0.0,-0.0022222730331122875,-0.005337349604815245,0.04708005487918854,0.0,0.0,0.0,0.0,0.0,0.0,0.0,0.0,0.0
1606991131915494788,4148041,1606987530566378660,imu_link,0.005109152290970087,0.007367946673184633,0.3963601887226105,0.9180513620376587,0.0,0.0,0.0,0.0,0.0,0.0,0.0,0.0,0.0,46.70778274536133,0.5430676937103271,0.8722090125083923,0.0,0.0,0.0,0.0,0.0,0.0,0.0,0.0,0.0,1.8880527932196856e-05,-0.015525346621870995,0.055988721549510956,0.0,0.0,0.0,0.0,0.0,0.0,0.0,0.0,0.0
1606991131915503557,4148042,1606987530566473585,imu_link,0.005109152290970087,0.007367946673184633,0.3963601887226105,0.9180513620376587,0.0,0.0,0.0,0.0,0.0,0.0,0.0,0.0,0.0,46.70778274536133,0.5430676937103271,0.8722090125083923,0.0,0.0,0.0,0.0,0.0,0.0,0.0,0.0,0.0,1.8880527932196856e-05,-0.015525346621870995,0.055988721549510956,0.0,0.0,0.0,0.0,0.0,0.0,0.0,0.0,0.0
1606991131915509656,4148043,1606987530566550853,imu_link,0.005109335761517286,0.0073675005696713924,0.3963601589202881,0.9180513620376587,0.0,0.0,0.0,0.0,0.0,0.0,0.0,0.0,0.0,46.70778274536133,0.5430123805999756,0.8722080588340759,0.0,0.0,0.0,0.0,0.0,0.0,0.0,0.0,0.0,-0.01352634746581316,-0.011713018640875816,0.07197253406047821,0.0,0.0,0.0,0.0,0.0,0.0,0.0,0.0,0.0
1606991131979735767,4148044,1606987530566634206,imu_link,0.005109335761517286,0.0073675005696713924,0.3963601589202881,0.9180513620376587,0.0,0.0,0.0,0.0,0.0,0.0,0.0,0.0,0.0,46.70778274536133,0.5430123805999756,0.8722080588340759,0.0,0.0,0.0,0.0,0.0,0.0,0.0,0.0,0.0,-0.01352634746581316,-0.011713018640875816,0.07197253406047821,0.0,0.0,0.0,0.0,0.0,0.0,0.0,0.0,0.0
1606991131979763725,4148045,1606987530566733546,imu_link,0.005110962316393852,0.007367132231593132,0.3963640034198761,0.918049693107605,0.0,0.0,0.0,0.0,0.0,0.0,0.0,0.0,0.0,46.70825958251953,0.5428961515426636,0.8723647594451904,0.0,0.0,0.0,0.0,0.0,0.0,0.0,0.0,0.0,-0.019741317257285118,-0.020821087062358856,0.08519040793180466,0.0,0.0,0.0,0.0,0.0,0.0,0.0,0.0,0.0
1606991131979771018,4148046,1606987530566817280,imu_link,0.005110962316393852,0.007367132231593132,0.3963640034198761,0.918049693107605,0.0,0.0,0.0,0.0,0.0,0.0,0.0,0.0,0.0,46.70825958251953,0.5428961515426636,0.8723647594451904,0.0,0.0,0.0,0.0,0.0,0.0,0.0,0.0,0.0,-0.019741317257285118,-0.020821087062358856,0.08519040793180466,0.0,0.0,0.0,0.0,0.0,0.0,0.0,0.0,0.0
1606991131979778614,4148047,1606987530566902152,imu_link,0.005111614242196083,0.007368955295532942,0.396365761756897,0.9180489182472229,0.0,0.0,0.0,0.0,0.0,0.0,0.0,0.0,0.0,46.7084846496582,0.5430566072463989,0.8725172281265259,0.0,0.0,0.0,0.0,0.0,0.0,0.0,0.0,0.0,-0.01297010388225317,-0.012923073023557663,0.05607118457555771,0.0,0.0,0.0,0.0,0.0,0.0,0.0,0.0,0.0
1606991131985214970,4148048,1606987530567016752,imu_link,0.005111614242196083,0.007368955295532942,0.396365761756897,0.9180489182472229,0.0,0.0,0.0,0.0,0.0,0.0,0.0,0.0,0.0,46.7084846496582,0.5430566072463989,0.8725172281265259,0.0,0.0,0.0,0.0,0.0,0.0,0.0,0.0,0.0,-0.01297010388225317,-0.012923073023557663,0.05607118457555771,0.0,0.0,0.0,0.0,0.0,0.0,0.0,0.0,0.0
1606991131985233093,4148049,1606987530567103743,imu_link,0.005114545114338398,0.007369176484644413,0.39637091755867004,0.9180466532707214,0.0,0.0,0.0,0.0,0.0,0.0,0.0,0.0,0.0,46.70912551879883,0.5429418683052063,0.8728386163711548,0.0,0.0,0.0,0.0,0.0,0.0,0.0,0.0,0.0,-0.006678346544504166,0.005673287436366081,0.054978661239147186,0.0,0.0,0.0,0.0,0.0,0.0,0.0,0.0,0.0
1606991131985249545,4148050,1606987530579811292,imu_link,0.005114545114338398,0.007369176484644413,0.39637091755867004,0.9180466532707214,0.0,0.0,0.0,0.0,0.0,0.0,0.0,0.0,0.0,46.70912551879883,0.5429418683052063,0.8728386163711548,0.0,0.0,0.0,0.0,0.0,0.0,0.0,0.0,0.0,-0.006678346544504166,0.005673287436366081,0.054978661239147186,0.0,0.0,0.0,0.0,0.0,0.0,0.0,0.0,0.0
1606991131985259428,4148051,1606987530579956448,imu_link,0.005114371422678232,0.007367884274572134,0.39637118577957153,0.9180465936660767,0.0,0.0,0.0,0.0,0.0,0.0,0.0,0.0,0.0,46.70915603637695,0.5428135991096497,0.8727617263793945,0.0,0.0,0.0,0.0,0.0,0.0,0.0,0.0,0.0,-0.006085083819925785,0.00459611602127552,0.07402004301548004,0.0,0.0,0.0,0.0,0.0,0.0,0.0,0.0,0.0
1606991131985276029,4148052,1606987530580109683,imu_link,0.005114371422678232,0.007367884274572134,0.39637118577957153,0.9180465936660767,0.0,0.0,0.0,0.0,0.0,0.0,0.0,0.0,0.0,46.70915603637695,0.5428135991096497,0.8727617263793945,0.0,0.0,0.0,0.0,0.0,0.0,0.0,0.0,0.0,-0.006085083819925785,0.00459611602127552,0.07402004301548004,0.0,0.0,0.0,0.0,0.0,0.0,0.0,0.0,0.0
1606991131989833794,4148053,1606987530580211353,imu_link,0.0051134745590388775,0.007368159014731646,0.3963688611984253,0.9180476069450378,0.0,0.0,0.0,0.0,0.0,0.0,0.0,0.0,0.0,46.708866119384766,0.5428853631019592,0.8726785182952881,0.0,0.0,0.0,0.0,0.0,0.0,0.0,0.0,0.0,-0.008951397612690926,-0.01624216139316559,0.04078419879078865,0.0,0.0,0.0,0.0,0.0,0.0,0.0,0.0,0.0
1606991131989867203,4148054,1606987530580297337,imu_link,0.0051134745590388775,0.007368159014731646,0.3963688611984253,0.9180476069450378,0.0,0.0,0.0,0.0,0.0,0.0,0.0,0.0,0.0,46.708866119384766,0.5428853631019592,0.8726785182952881,0.0,0.0,0.0,0.0,0.0,0.0,0.0,0.0,0.0,-0.008951397612690926,-0.01624216139316559,0.04078419879078865,0.0,0.0,0.0,0.0,0.0,0.0,0.0,0.0,0.0
1606991131989882798,4148055,1606987530580380204,imu_link,0.0051133702509105206,0.00736828800290823,0.39636874198913574,0.9180476069450378,0.0,0.0,0.0,0.0,0.0,0.0,0.0,0.0,0.0,46.70885467529297,0.5429038405418396,0.8726734519004822,0.0,0.0,0.0,0.0,0.0,0.0,0.0,0.0,0.0,-0.009164056740701199,-0.016582777723670006,0.028072837740182877,0.0,0.0,0.0,0.0,0.0,0.0,0.0,0.0,0.0
1606991131989896154,4148056,1606987530580486525,imu_link,0.0051133702509105206,0.00736828800290823,0.39636874198913574,0.9180476069450378,0.0,0.0,0.0,0.0,0.0,0.0,0.0,0.0,0.0,46.70885467529297,0.5429038405418396,0.8726734519004822,0.0,0.0,0.0,0.0,0.0,0.0,0.0,0.0,0.0,-0.009164056740701199,-0.016582777723670006,0.028072837740182877,0.0,0.0,0.0,0.0,0.0,0.0,0.0,0.0,0.0
1606991132000637621,4148057,1606987530580567703,imu_link,0.005115462001413107,0.00736843328922987,0.39636799693107605,0.9180479049682617,0.0,0.0,0.0,0.0,0.0,0.0,0.0,0.0,0.0,46.70876693725586,0.5428247451782227,0.8728996515274048,0.0,0.0,0.0,0.0,0.0,0.0,0.0,0.0,0.0,-0.01670100726187229,-0.0021418253891170025,0.03785008564591408,0.0,0.0,0.0,0.0,0.0,0.0,0.0,0.0,0.0
1606991132000677355,4148058,1606987530580733847,imu_link,0.005115462001413107,0.00736843328922987,0.39636799693107605,0.9180479049682617,0.0,0.0,0.0,0.0,0.0,0.0,0.0,0.0,0.0,46.70876693725586,0.5428247451782227,0.8728996515274048,0.0,0.0,0.0,0.0,0.0,0.0,0.0,0.0,0.0,-0.01670100726187229,-0.0021418253891170025,0.03785008564591408,0.0,0.0,0.0,0.0,0.0,0.0,0.0,0.0,0.0
1606991132000690799,4148059,1606987530580823961,imu_link,0.005116889253258705,0.007369621656835079,0.3963703215122223,0.9180468916893005,0.0,0.0,0.0,0.0,0.0,0.0,0.0,0.0,0.0,46.70905303955078,0.5428827404975891,0.8731051683425903,0.0,0.0,0.0,0.0,0.0,0.0,0.0,0.0,0.0,-0.0038776870351284742,-0.003272666595876217,0.02656388096511364,0.0,0.0,0.0,0.0,0.0,0.0,0.0,0.0,0.0
1606991132000701458,4148060,1606987530580906422,imu_link,0.005116889253258705,0.007369621656835079,0.3963703215122223,0.9180468916893005,0.0,0.0,0.0,0.0,0.0,0.0,0.0,0.0,0.0,46.70905303955078,0.5428827404975891,0.8731051683425903,0.0,0.0,0.0,0.0,0.0,0.0,0.0,0.0,0.0,-0.0038776870351284742,-0.003272666595876217,0.02656388096511364,0.0,0.0,0.0,0.0,0.0,0.0,0.0,0.0,0.0
1606991132061105716,4148061,1606987530593288878,imu_link,0.005120224319398403,0.007368527818471193,0.3963679373264313,0.9180479049682617,0.0,0.0,0.0,0.0,0.0,0.0,0.0,0.0,0.0,46.70875930786133,0.542618453502655,0.8734049201011658,0.0,0.0,0.0,0.0,0.0,0.0,0.0,0.0,0.0,0.017839329317212105,-0.005941532552242279,0.04071138799190521,0.0,0.0,0.0,0.0,0.0,0.0,0.0,0.0,0.0
1606991132061136527,4148062,1606987530593429208,imu_link,0.005120224319398403,0.007368527818471193,0.3963679373264313,0.9180479049682617,0.0,0.0,0.0,0.0,0.0,0.0,0.0,0.0,0.0,46.70875930786133,0.542618453502655,0.8734049201011658,0.0,0.0,0.0,0.0,0.0,0.0,0.0,0.0,0.0,0.017839329317212105,-0.005941532552242279,0.04071138799190521,0.0,0.0,0.0,0.0,0.0,0.0,0.0,0.0,0.0
1606991132061163685,4148063,1606987530593625928,imu_link,0.005119167733937502,0.007369721308350563,0.3963679075241089,0.9180479049682617,0.0,0.0,0.0,0.0,0.0,0.0,0.0,0.0,0.0,46.70875549316406,0.542792022228241,0.8733479380607605,0.0,0.0,0.0,0.0,0.0,0.0,0.0,0.0,0.0,0.01522071287035942,-0.0022272435016930103,0.05847708135843277,0.0,0.0,0.0,0.0,0.0,0.0,0.0,0.0,0.0
1606991132061178647,4148064,1606987530593714228,imu_link,0.005119167733937502,0.007369721308350563,0.3963679075241089,0.9180479049682617,0.0,0.0,0.0,0.0,0.0,0.0,0.0,0.0,0.0,46.70875549316406,0.542792022228241,0.8733479380607605,0.0,0.0,0.0,0.0,0.0,0.0,0.0,0.0,0.0,0.01522071287035942,-0.0022272435016930103,0.05847708135843277,0.0,0.0,0.0,0.0,0.0,0.0,0.0,0.0,0.0
1606991132061193308,4148065,1606987530593795812,imu_link,0.005118548404425383,0.007370553445070982,0.3963688611984253,0.9180475473403931,0.0,0.0,0.0,0.0,0.0,0.0,0.0,0.0,0.0,46.7088737487793,0.5429068207740784,0.8733211159706116,0.0,0.0,0.0,0.0,0.0,0.0,0.0,0.0,0.0,0.008083785884082317,0.008105399087071419,0.045444928109645844,0.0,0.0,0.0,0.0,0.0,0.0,0.0,0.0,0.0
1606991132070956545,4148066,1606987530593897747,imu_link,0.005118548404425383,0.007370553445070982,0.3963688611984253,0.9180475473403931,0.0,0.0,0.0,0.0,0.0,0.0,0.0,0.0,0.0,46.7088737487793,0.5429068207740784,0.8733211159706116,0.0,0.0,0.0,0.0,0.0,0.0,0.0,0.0,0.0,0.008083785884082317,0.008105399087071419,0.045444928109645844,0.0,0.0,0.0,0.0,0.0,0.0,0.0,0.0,0.0
1606991132070988037,4148067,1606987530593980830,imu_link,0.005120033863931894,0.007368895690888166,0.39637044072151184,0.9180468320846558,0.0,0.0,0.0,0.0,0.0,0.0,0.0,0.0,0.0,46.70907211303711,0.5426633954048157,0.873403012752533,0.0,0.0,0.0,0.0,0.0,0.0,0.0,0.0,0.0,-0.0008830148144625127,0.019611766561865807,0.05043153464794159,0.0,0.0,0.0,0.0,0.0,0.0,0.0,0.0,0.0
1606991132071002797,4148068,1606987530594054079,imu_link,0.005120033863931894,0.007368895690888166,0.39637044072151184,0.9180468320846558,0.0,0.0,0.0,0.0,0.0,0.0,0.0,0.0,0.0,46.70907211303711,0.5426633954048157,0.873403012752533,0.0,0.0,0.0,0.0,0.0,0.0,0.0,0.0,0.0,-0.0008830148144625127,0.019611766561865807,0.05043153464794159,0.0,0.0,0.0,0.0,0.0,0.0,0.0,0.0,0.0
1606991132071024604,4148069,1606987530594132671,imu_link,0.005117911379784346,0.007367849815636873,0.39637598395347595,0.9180444478988647,0.0,0.0,0.0,0.0,0.0,0.0,0.0,0.0,0.0,46.709754943847656,0.5426445603370667,0.873135507106781,0.0,0.0,0.0,0.0,0.0,0.0,0.0,0.0,0.0,0.009428899735212326,0.01139252819120884,0.06010604277253151,0.0,0.0,0.0,0.0,0.0,0.0,0.0,0.0,0.0
1606991132075034402,4148070,1606987530594219096,imu_link,0.005117911379784346,0.007367849815636873,0.39637598395347595,0.9180444478988647,0.0,0.0,0.0,0.0,0.0,0.0,0.0,0.0,0.0,46.709754943847656,0.5426445603370667,0.873135507106781,0.0,0.0,0.0,0.0,0.0,0.0,0.0,0.0,0.0,0.009428899735212326,0.01139252819120884,0.06010604277253151,0.0,0.0,0.0,0.0,0.0,0.0,0.0,0.0,0.0
1606991132075057959,4148071,1606987530594302870,imu_link,0.005118751898407936,0.0073656425811350346,0.3963776230812073,0.9180437326431274,0.0,0.0,0.0,0.0,0.0,0.0,0.0,0.0,0.0,46.709964752197266,0.5423725843429565,0.8731245994567871,0.0,0.0,0.0,0.0,0.0,0.0,0.0,0.0,0.0,0.008386899717152119,0.006470229476690292,0.06932693719863892,0.0,0.0,0.0,0.0,0.0,0.0,0.0,0.0,0.0
1606991132075100644,4148072,1606987530606228926,imu_link,0.005118751898407936,0.0073656425811350346,0.3963776230812073,0.9180437326431274,0.0,0.0,0.0,0.0,0.0,0.0,0.0,0.0,0.0,46.709964752197266,0.5423725843429565,0.8731245994567871,0.0,0.0,0.0,0.0,0.0,0.0,0.0,0.0,0.0,0.008386899717152119,0.006470229476690292,0.06932693719863892,0.0,0.0,0.0,0.0,0.0,0.0,0.0,0.0,0.0
1606991132075109049,4148073,1606987530606376031,imu_link,0.005116008222103119,0.00736500509083271,0.396382600069046,0.9180416464805603,0.0,0.0,0.0,0.0,0.0,0.0,0.0,0.0,0.0,46.7105827331543,0.5424254536628723,0.8728099465370178,0.0,0.0,0.0,0.0,0.0,0.0,0.0,0.0,0.0,-0.0048438082449138165,0.014887597411870956,0.039739448577165604,0.0,0.0,0.0,0.0,0.0,0.0,0.0,0.0,0.0
1606991132075117955,4148074,1606987530606566412,imu_link,0.005116008222103119,0.00736500509083271,0.396382600069046,0.9180416464805603,0.0,0.0,0.0,0.0,0.0,0.0,0.0,0.0,0.0,46.7105827331543,0.5424254536628723,0.8728099465370178,0.0,0.0,0.0,0.0,0.0,0.0,0.0,0.0,0.0,-0.0048438082449138165,0.014887597411870956,0.039739448577165604,0.0,0.0,0.0,0.0,0.0,0.0,0.0,0.0,0.0
1606991132096763360,4148075,1606987530606653583,imu_link,0.005114074796438217,0.007363269105553627,0.3963833153247833,0.9180414080619812,0.0,0.0,0.0,0.0,0.0,0.0,0.0,0.0,0.0,46.71066665649414,0.5423300862312317,0.872528076171875,0.0,0.0,0.0,0.0,0.0,0.0,0.0,0.0,0.0,0.001138036954216659,0.014797120355069637,0.03160892799496651,0.0,0.0,0.0,0.0,0.0,0.0,0.0,0.0,0.0
1606991132096790826,4148076,1606987530606738780,imu_link,0.005114074796438217,0.007363269105553627,0.3963833153247833,0.9180414080619812,0.0,0.0,0.0,0.0,0.0,0.0,0.0,0.0,0.0,46.71066665649414,0.5423300862312317,0.872528076171875,0.0,0.0,0.0,0.0,0.0,0.0,0.0,0.0,0.0,0.001138036954216659,0.014797120355069637,0.03160892799496651,0.0,0.0,0.0,0.0,0.0,0.0,0.0,0.0,0.0
1606991132096823095,4148077,1606987530606842085,imu_link,0.0051130084320902824,0.007364344783127308,0.39637771248817444,0.918043851852417,0.0,0.0,0.0,0.0,0.0,0.0,0.0,0.0,0.0,46.7099609375,0.5424970388412476,0.8724613785743713,0.0,0.0,0.0,0.0,0.0,0.0,0.0,0.0,0.0,0.010337401181459427,-0.00514612440019846,0.062240879982709885,0.0,0.0,0.0,0.0,0.0,0.0,0.0,0.0,0.0
1606991132096843677,4148078,1606987530606925247,imu_link,0.0051130084320902824,0.007364344783127308,0.39637771248817444,0.918043851852417,0.0,0.0,0.0,0.0,0.0,0.0,0.0,0.0,0.0,46.7099609375,0.5424970388412476,0.8724613785743713,0.0,0.0,0.0,0.0,0.0,0.0,0.0,0.0,0.0,0.010337401181459427,-0.00514612440019846,0.062240879982709885,0.0,0.0,0.0,0.0,0.0,0.0,0.0,0.0,0.0
1606991132176436794,4148079,1606987530607054075,imu_link,0.005112780258059502,0.007363955024629831,0.39637836813926697,0.9180435538291931,0.0,0.0,0.0,0.0,0.0,0.0,0.0,0.0,0.0,46.710044860839844,0.5424657464027405,0.872420072555542,0.0,0.0,0.0,0.0,0.0,0.0,0.0,0.0,0.0,0.024702124297618866,-0.008620212785899639,0.04500050097703934,0.0,0.0,0.0,0.0,0.0,0.0,0.0,0.0,0.0
1606991132176459217,4148080,1606987530607138135,imu_link,0.005112780258059502,0.007363955024629831,0.39637836813926697,0.9180435538291931,0.0,0.0,0.0,0.0,0.0,0.0,0.0,0.0,0.0,46.710044860839844,0.5424657464027405,0.872420072555542,0.0,0.0,0.0,0.0,0.0,0.0,0.0,0.0,0.0,0.024702124297618866,-0.008620212785899639,0.04500050097703934,0.0,0.0,0.0,0.0,0.0,0.0,0.0,0.0,0.0
1606991132176481698,4148081,1606987530607218200,imu_link,0.005114150699228048,0.007368233986198902,0.39637404680252075,0.9180453419685364,0.0,0.0,0.0,0.0,0.0,0.0,0.0,0.0,0.0,46.70951461791992,0.5428576469421387,0.8727561235427856,0.0,0.0,0.0,0.0,0.0,0.0,0.0,0.0,0.0,0.010719766840338707,0.00237343180924654,0.038072604686021805,0.0,0.0,0.0,0.0,0.0,0.0,0.0,0.0,0.0
1606991132176508792,4148082,1606987530620004246,imu_link,0.005114150699228048,0.007368233986198902,0.39637404680252075,0.9180453419685364,0.0,0.0,0.0,0.0,0.0,0.0,0.0,0.0,0.0,46.70951461791992,0.5428576469421387,0.8727561235427856,0.0,0.0,0.0,0.0,0.0,0.0,0.0,0.0,0.0,0.010719766840338707,0.00237343180924654,0.038072604686021805,0.0,0.0,0.0,0.0,0.0,0.0,0.0,0.0,0.0
1606991132176522029,4148083,1606987530620118455,imu_link,0.005115565378218889,0.0073682814836502075,0.3963730037212372,0.9180458188056946,0.0,0.0,0.0,0.0,0.0,0.0,0.0,0.0,0.0,46.70938491821289,0.5427993535995483,0.872906506061554,0.0,0.0,0.0,0.0,0.0,0.0,0.0,0.0,0.0,-0.003893363755196333,0.002891389187425375,0.036425866186618805,0.0,0.0,0.0,0.0,0.0,0.0,0.0,0.0,0.0
1606991132180215783,4148084,1606987530620214507,imu_link,0.005115565378218889,0.0073682814836502075,0.3963730037212372,0.9180458188056946,0.0,0.0,0.0,0.0,0.0,0.0,0.0,0.0,0.0,46.70938491821289,0.5427993535995483,0.872906506061554,0.0,0.0,0.0,0.0,0.0,0.0,0.0,0.0,0.0,-0.003893363755196333,0.002891389187425375,0.036425866186618805,0.0,0.0,0.0,0.0,0.0,0.0,0.0,0.0,0.0
1606991132180314264,4148085,1606987530620299238,imu_link,0.005113872699439526,0.007365253288298845,0.3963736593723297,0.9180455207824707,0.0,0.0,0.0,0.0,0.0,0.0,0.0,0.0,0.0,46.7094612121582,0.5425571203231812,0.8725911974906921,0.0,0.0,0.0,0.0,0.0,0.0,0.0,0.0,0.0,-0.001885299221612513,0.003305938793346286,0.030368437990546227,0.0,0.0,0.0,0.0,0.0,0.0,0.0,0.0,0.0
1606991132180349033,4148086,1606987530620384932,imu_link,0.005113872699439526,0.007365253288298845,0.3963736593723297,0.9180455207824707,0.0,0.0,0.0,0.0,0.0,0.0,0.0,0.0,0.0,46.7094612121582,0.5425571203231812,0.8725911974906921,0.0,0.0,0.0,0.0,0.0,0.0,0.0,0.0,0.0,-0.001885299221612513,0.003305938793346286,0.030368437990546227,0.0,0.0,0.0,0.0,0.0,0.0,0.0,0.0,0.0
1606991132180362151,4148087,1606987530620468841,imu_link,0.005115327890962362,0.007363754324615002,0.39637207984924316,0.918046236038208,0.0,0.0,0.0,0.0,0.0,0.0,0.0,0.0,0.0,46.70926284790039,0.5423348546028137,0.8726752400398254,0.0,0.0,0.0,0.0,0.0,0.0,0.0,0.0,0.0,-0.0009609938715584576,0.006831979379057884,0.00679731834679842,0.0,0.0,0.0,0.0,0.0,0.0,0.0,0.0,0.0
1606991132183787341,4148088,1606987530620569298,imu_link,0.005115327890962362,0.007363754324615002,0.39637207984924316,0.918046236038208,0.0,0.0,0.0,0.0,0.0,0.0,0.0,0.0,0.0,46.70926284790039,0.5423348546028137,0.8726752400398254,0.0,0.0,0.0,0.0,0.0,0.0,0.0,0.0,0.0,-0.0009609938715584576,0.006831979379057884,0.00679731834679842,0.0,0.0,0.0,0.0,0.0,0.0,0.0,0.0,0.0
1606991132183835058,4148089,1606987530620653463,imu_link,0.0051163011230528355,0.007365759462118149,0.3963707387447357,0.918046772480011,0.0,0.0,0.0,0.0,0.0,0.0,0.0,0.0,0.0,46.70909881591797,0.5425028204917908,0.8728680610656738,0.0,0.0,0.0,0.0,0.0,0.0,0.0,0.0,0.0,0.0005402826936915517,0.008520710282027721,0.01892133243381977,0.0,0.0,0.0,0.0,0.0,0.0,0.0,0.0,0.0
1606991132183866331,4148090,1606987530620734751,imu_link,0.0051163011230528355,0.007365759462118149,0.3963707387447357,0.918046772480011,0.0,0.0,0.0,0.0,0.0,0.0,0.0,0.0,0.0,46.70909881591797,0.5425028204917908,0.8728680610656738,0.0,0.0,0.0,0.0,0.0,0.0,0.0,0.0,0.0,0.0005402826936915517,0.008520710282027721,0.01892133243381977,0.0,0.0,0.0,0.0,0.0,0.0,0.0,0.0,0.0
1606991132183886489,4148091,1606987530620817979,imu_link,0.0051167551428079605,0.007363551761955023,0.3963722586631775,0.9180461168289185,0.0,0.0,0.0,0.0,0.0,0.0,0.0,0.0,0.0,46.70928955078125,0.5422484874725342,0.8728164434432983,0.0,0.0,0.0,0.0,0.0,0.0,0.0,0.0,0.0,0.015002121217548847,-0.0036062663421034813,0.04320026561617851,0.0,0.0,0.0,0.0,0.0,0.0,0.0,0.0,0.0
1606991132183906732,4148092,1606987530620898956,imu_link,0.0051167551428079605,0.007363551761955023,0.3963722586631775,0.9180461168289185,0.0,0.0,0.0,0.0,0.0,0.0,0.0,0.0,0.0,46.70928955078125,0.5422484874725342,0.8728164434432983,0.0,0.0,0.0,0.0,0.0,0.0,0.0,0.0,0.0,0.015002121217548847,-0.0036062663421034813,0.04320026561617851,0.0,0.0,0.0,0.0,0.0,0.0,0.0,0.0,0.0
1606991132188756494,4148093,1606987530633318349,imu_link,0.005116782151162624,0.007364761549979448,0.396369069814682,0.9180474877357483,0.0,0.0,0.0,0.0,0.0,0.0,0.0,0.0,0.0,46.708892822265625,0.5423775315284729,0.8728723526000977,0.0,0.0,0.0,0.0,0.0,0.0,0.0,0.0,0.0,0.01951739378273487,-0.0089637516066432,0.02766568772494793,0.0,0.0,0.0,0.0,0.0,0.0,0.0,0.0,0.0
1606991132188776840,4148094,1606987530633436246,imu_link,0.005116782151162624,0.007364761549979448,0.396369069814682,0.9180474877357483,0.0,0.0,0.0,0.0,0.0,0.0,0.0,0.0,0.0,46.708892822265625,0.5423775315284729,0.8728723526000977,0.0,0.0,0.0,0.0,0.0,0.0,0.0,0.0,0.0,0.01951739378273487,-0.0089637516066432,0.02766568772494793,0.0,0.0,0.0,0.0,0.0,0.0,0.0,0.0,0.0
1606991132188793268,4148095,1606987530633524992,imu_link,0.005116812884807587,0.007363004144281149,0.39636749029159546,0.9180482029914856,0.0,0.0,0.0,0.0,0.0,0.0,0.0,0.0,0.0,46.70869064331055,0.542192816734314,0.8727946877479553,0.0,0.0,0.0,0.0,0.0,0.0,0.0,0.0,0.0,0.002009785268455744,0.0011174940736964345,0.029475275427103043,0.0,0.0,0.0,0.0,0.0,0.0,0.0,0.0,0.0
1606991132188814258,4148096,1606987530633607573,imu_link,0.005116812884807587,0.007363004144281149,0.39636749029159546,0.9180482029914856,0.0,0.0,0.0,0.0,0.0,0.0,0.0,0.0,0.0,46.70869064331055,0.542192816734314,0.8727946877479553,0.0,0.0,0.0,0.0,0.0,0.0,0.0,0.0,0.0,0.002009785268455744,0.0011174940736964345,0.029475275427103043,0.0,0.0,0.0,0.0,0.0,0.0,0.0,0.0,0.0
1606991132237174938,4148097,1606987530633684531,imu_link,0.005118893925100565,0.007362288888543844,0.3963627219200134,0.918050229549408,0.0,0.0,0.0,0.0,0.0,0.0,0.0,0.0,0.0,46.708099365234375,0.5420275330543518,0.8729783296585083,0.0,0.0,0.0,0.0,0.0,0.0,0.0,0.0,0.0,0.0035467029083520174,0.003317273920401931,0.03345092013478279,0.0,0.0,0.0,0.0,0.0,0.0,0.0,0.0,0.0
1606991132237201711,4148098,1606987530633763865,imu_link,0.005118893925100565,0.007362288888543844,0.3963627219200134,0.918050229549408,0.0,0.0,0.0,0.0,0.0,0.0,0.0,0.0,0.0,46.708099365234375,0.5420275330543518,0.8729783296585083,0.0,0.0,0.0,0.0,0.0,0.0,0.0,0.0,0.0,0.0035467029083520174,0.003317273920401931,0.03345092013478279,0.0,0.0,0.0,0.0,0.0,0.0,0.0,0.0,0.0
1606991132237211872,4148099,1606987530633860218,imu_link,0.005119101144373417,0.007361599709838629,0.3963634669780731,0.9180499315261841,0.0,0.0,0.0,0.0,0.0,0.0,0.0,0.0,0.0,46.70818328857422,0.5419449210166931,0.8729692697525024,0.0,0.0,0.0,0.0,0.0,0.0,0.0,0.0,0.0,0.00359101383946836,0.0040902430191636086,0.0516347773373127,0.0,0.0,0.0,0.0,0.0,0.0,0.0,0.0,0.0
1606991132237219316,4148100,1606987530633943425,imu_link,0.005119101144373417,0.007361599709838629,0.3963634669780731,0.9180499315261841,0.0,0.0,0.0,0.0,0.0,0.0,0.0,0.0,0.0,46.70818328857422,0.5419449210166931,0.8729692697525024,0.0,0.0,0.0,0.0,0.0,0.0,0.0,0.0,0.0,0.00359101383946836,0.0040902430191636086,0.0516347773373127,0.0,0.0,0.0,0.0,0.0,0.0,0.0,0.0,0.0
1606991132237242055,4148101,1606987530634068936,imu_link,0.005118277855217457,0.0073626223020255566,0.3963654041290283,0.9180490970611572,0.0,0.0,0.0,0.0,0.0,0.0,0.0,0.0,0.0,46.708431243896484,0.5420880913734436,0.8729301691055298,0.0,0.0,0.0,0.0,0.0,0.0,0.0,0.0,0.0,-0.006131041795015335,0.0006062840693630278,0.04208048805594444,0.0,0.0,0.0,0.0,0.0,0.0,0.0,0.0,0.0
1606991132246211854,4148102,1606987530634154188,imu_link,0.005118277855217457,0.0073626223020255566,0.3963654041290283,0.9180490970611572,0.0,0.0,0.0,0.0,0.0,0.0,0.0,0.0,0.0,46.708431243896484,0.5420880913734436,0.8729301691055298,0.0,0.0,0.0,0.0,0.0,0.0,0.0,0.0,0.0,-0.006131041795015335,0.0006062840693630278,0.04208048805594444,0.0,0.0,0.0,0.0,0.0,0.0,0.0,0.0,0.0
1606991132246231425,4148103,1606987530634237716,imu_link,0.005118170753121376,0.0073625179938972,0.39636507630348206,0.9180492162704468,0.0,0.0,0.0,0.0,0.0,0.0,0.0,0.0,0.0,46.70838928222656,0.5420822501182556,0.8729141354560852,0.0,0.0,0.0,0.0,0.0,0.0,0.0,0.0,0.0,0.009145366959273815,-0.00037722932756878436,0.008551783859729767,0.0,0.0,0.0,0.0,0.0,0.0,0.0,0.0,0.0
1606991132246245312,4148104,1606987530647203007,imu_link,0.005118170753121376,0.0073625179938972,0.39636507630348206,0.9180492162704468,0.0,0.0,0.0,0.0,0.0,0.0,0.0,0.0,0.0,46.70838928222656,0.5420822501182556,0.8729141354560852,0.0,0.0,0.0,0.0,0.0,0.0,0.0,0.0,0.0,0.009145366959273815,-0.00037722932756878436,0.008551783859729767,0.0,0.0,0.0,0.0,0.0,0.0,0.0,0.0,0.0
1606991132246251836,4148105,1606987530647338460,imu_link,0.005117987748235464,0.007363187614828348,0.3963654935359955,0.9180490374565125,0.0,0.0,0.0,0.0,0.0,0.0,0.0,0.0,0.0,46.70844268798828,0.5421606302261353,0.8729255199432373,0.0,0.0,0.0,0.0,0.0,0.0,0.0,0.0,0.0,0.03235653042793274,1.2373115168884397e-05,0.019139358773827553,0.0,0.0,0.0,0.0,0.0,0.0,0.0,0.0,0.0
1606991132250154892,4148106,1606987530647429371,imu_link,0.005117987748235464,0.007363187614828348,0.3963654935359955,0.9180490374565125,0.0,0.0,0.0,0.0,0.0,0.0,0.0,0.0,0.0,46.70844268798828,0.5421606302261353,0.8729255199432373,0.0,0.0,0.0,0.0,0.0,0.0,0.0,0.0,0.0,0.03235653042793274,1.2373115168884397e-05,0.019139358773827553,0.0,0.0,0.0,0.0,0.0,0.0,0.0,0.0,0.0
1606991132250221109,4148107,1606987530647518046,imu_link,0.0051168170757591724,0.0073614586144685745,0.39636558294296265,0.9180490374565125,0.0,0.0,0.0,0.0,0.0,0.0,0.0,0.0,0.0,46.70845031738281,0.5420318245887756,0.8727238178253174,0.0,0.0,0.0,0.0,0.0,0.0,0.0,0.0,0.0,0.019470375031232834,0.0012275453191250563,0.038521796464920044,0.0,0.0,0.0,0.0,0.0,0.0,0.0,0.0,0.0
1606991132250241087,4148108,1606987530647599094,imu_link,0.0051168170757591724,0.0073614586144685745,0.39636558294296265,0.9180490374565125,0.0,0.0,0.0,0.0,0.0,0.0,0.0,0.0,0.0,46.70845031738281,0.5420318245887756,0.8727238178253174,0.0,0.0,0.0,0.0,0.0,0.0,0.0,0.0,0.0,0.019470375031232834,0.0012275453191250563,0.038521796464920044,0.0,0.0,0.0,0.0,0.0,0.0,0.0,0.0,0.0
1606991132250281893,4148109,1606987530647894437,imu_link,0.005116077605634928,0.007360185030847788,0.3963705897331238,0.9180468916893005,0.0,0.0,0.0,0.0,0.0,0.0,0.0,0.0,0.0,46.709075927734375,0.5419266819953918,0.8725910782814026,0.0,0.0,0.0,0.0,0.0,0.0,0.0,0.0,0.0,-0.005655691493302584,0.013667985796928406,0.053416889160871506,0.0,0.0,0.0,0.0,0.0,0.0,0.0,0.0,0.0
1606991132250308598,4148110,1606987530647994388,imu_link,0.005116077605634928,0.007360185030847788,0.3963705897331238,0.9180468916893005,0.0,0.0,0.0,0.0,0.0,0.0,0.0,0.0,0.0,46.709075927734375,0.5419266819953918,0.8725910782814026,0.0,0.0,0.0,0.0,0.0,0.0,0.0,0.0,0.0,-0.005655691493302584,0.013667985796928406,0.053416889160871506,0.0,0.0,0.0,0.0,0.0,0.0,0.0,0.0,0.0
1606991132255435565,4148111,1606987530648115784,imu_link,0.005116601008921862,0.007360747084021568,0.396371990442276,0.9180462956428528,0.0,0.0,0.0,0.0,0.0,0.0,0.0,0.0,0.0,46.70924758911133,0.5419607162475586,0.872672438621521,0.0,0.0,0.0,0.0,0.0,0.0,0.0,0.0,0.0,-0.007693002466112375,0.012255753390491009,0.05686432868242264,0.0,0.0,0.0,0.0,0.0,0.0,0.0,0.0,0.0
1606991132255458634,4148112,1606987530648200520,imu_link,0.005116601008921862,0.007360747084021568,0.396371990442276,0.9180462956428528,0.0,0.0,0.0,0.0,0.0,0.0,0.0,0.0,0.0,46.70924758911133,0.5419607162475586,0.872672438621521,0.0,0.0,0.0,0.0,0.0,0.0,0.0,0.0,0.0,-0.007693002466112375,0.012255753390491009,0.05686432868242264,0.0,0.0,0.0,0.0,0.0,0.0,0.0,0.0,0.0
1606991132255467925,4148113,1606987530648281418,imu_link,0.005116290412843227,0.007359127048403025,0.39637377858161926,0.9180455207824707,0.0,0.0,0.0,0.0,0.0,0.0,0.0,0.0,0.0,46.709468841552734,0.541802704334259,0.8725672960281372,0.0,0.0,0.0,0.0,0.0,0.0,0.0,0.0,0.0,0.0071263788267970085,0.0022769300267100334,0.054225388914346695,0.0,0.0,0.0,0.0,0.0,0.0,0.0,0.0,0.0
1606991132255480264,4148114,1606987530648365111,imu_link,0.005116290412843227,0.007359127048403025,0.39637377858161926,0.9180455207824707,0.0,0.0,0.0,0.0,0.0,0.0,0.0,0.0,0.0,46.709468841552734,0.541802704334259,0.8725672960281372,0.0,0.0,0.0,0.0,0.0,0.0,0.0,0.0,0.0,0.0071263788267970085,0.0022769300267100334,0.054225388914346695,0.0,0.0,0.0,0.0,0.0,0.0,0.0,0.0,0.0
1606991132361731382,4148115,1606987530660755702,imu_link,0.005114085040986538,0.007359249051660299,0.3963747024536133,0.918045163154602,0.0,0.0,0.0,0.0,0.0,0.0,0.0,0.0,0.0,46.7095832824707,0.5419148802757263,0.8723413348197937,0.0,0.0,0.0,0.0,0.0,0.0,0.0,0.0,0.0,0.01557105965912342,-0.0015027233166620135,0.06267832219600677,0.0,0.0,0.0,0.0,0.0,0.0,0.0,0.0,0.0
1606991132361768520,4148116,1606987530660900161,imu_link,0.005114085040986538,0.007359249051660299,0.3963747024536133,0.918045163154602,0.0,0.0,0.0,0.0,0.0,0.0,0.0,0.0,0.0,46.7095832824707,0.5419148802757263,0.8723413348197937,0.0,0.0,0.0,0.0,0.0,0.0,0.0,0.0,0.0,0.01557105965912342,-0.0015027233166620135,0.06267832219600677,0.0,0.0,0.0,0.0,0.0,0.0,0.0,0.0,0.0
1606991132361782397,4148117,1606987530661060081,imu_link,0.0051160696893930435,0.007357983849942684,0.3963766396045685,0.9180443286895752,0.0,0.0,0.0,0.0,0.0,0.0,0.0,0.0,0.0,46.70982360839844,0.5416897535324097,0.8724937438964844,0.0,0.0,0.0,0.0,0.0,0.0,0.0,0.0,0.0,-0.002024733694270253,0.003600548719987273,0.05830027535557747,0.0,0.0,0.0,0.0,0.0,0.0,0.0,0.0,0.0
1606991132361801053,4148118,1606987530661153738,imu_link,0.0051160696893930435,0.007357983849942684,0.3963766396045685,0.9180443286895752,0.0,0.0,0.0,0.0,0.0,0.0,0.0,0.0,0.0,46.70982360839844,0.5416897535324097,0.8724937438964844,0.0,0.0,0.0,0.0,0.0,0.0,0.0,0.0,0.0,-0.002024733694270253,0.003600548719987273,0.05830027535557747,0.0,0.0,0.0,0.0,0.0,0.0,0.0,0.0,0.0
1606991132361809542,4148119,1606987530661234530,imu_link,0.005116685293614864,0.007357864174991846,0.3963763415813446,0.9180443286895752,0.0,0.0,0.0,0.0,0.0,0.0,0.0,0.0,0.0,46.70979309082031,0.5416494011878967,0.8725530505180359,0.0,0.0,0.0,0.0,0.0,0.0,0.0,0.0,0.0,-0.01771708019077778,-0.006947590969502926,0.04996941238641739,0.0,0.0,0.0,0.0,0.0,0.0,0.0,0.0,0.0
1606991132364711049,4148120,1606987530661338801,imu_link,0.005116685293614864,0.007357864174991846,0.3963763415813446,0.9180443286895752,0.0,0.0,0.0,0.0,0.0,0.0,0.0,0.0,0.0,46.70979309082031,0.5416494011878967,0.8725530505180359,0.0,0.0,0.0,0.0,0.0,0.0,0.0,0.0,0.0,-0.01771708019077778,-0.006947590969502926,0.04996941238641739,0.0,0.0,0.0,0.0,0.0,0.0,0.0,0.0,0.0
1606991132364732385,4148121,1606987530661460468,imu_link,0.005115828942507505,0.007357253227382898,0.39637723565101624,0.9180439710617065,0.0,0.0,0.0,0.0,0.0,0.0,0.0,0.0,0.0,46.709903717041016,0.5416231155395508,0.8724357485771179,0.0,0.0,0.0,0.0,0.0,0.0,0.0,0.0,0.0,-0.006911828648298979,-0.01583571918308735,0.04573536664247513,0.0,0.0,0.0,0.0,0.0,0.0,0.0,0.0,0.0
1606991132364741324,4148122,1606987530661548767,imu_link,0.005115828942507505,0.007357253227382898,0.39637723565101624,0.9180439710617065,0.0,0.0,0.0,0.0,0.0,0.0,0.0,0.0,0.0,46.709903717041016,0.5416231155395508,0.8724357485771179,0.0,0.0,0.0,0.0,0.0,0.0,0.0,0.0,0.0,-0.006911828648298979,-0.01583571918308735,0.04573536664247513,0.0,0.0,0.0,0.0,0.0,0.0,0.0,0.0,0.0
1606991132364751424,4148123,1606987530661630436,imu_link,0.005115088075399399,0.007357276510447264,0.39637863636016846,0.9180433750152588,0.0,0.0,0.0,0.0,0.0,0.0,0.0,0.0,0.0,46.71007537841797,0.5416579842567444,0.8723596334457397,0.0,0.0,0.0,0.0,0.0,0.0,0.0,0.0,0.0,0.004866885021328926,-0.0008246824145317078,0.054461076855659485,0.0,0.0,0.0,0.0,0.0,0.0,0.0,0.0,0.0
1606991132372824125,4148124,1606987530661716926,imu_link,0.005115088075399399,0.007357276510447264,0.39637863636016846,0.9180433750152588,0.0,0.0,0.0,0.0,0.0,0.0,0.0,0.0,0.0,46.71007537841797,0.5416579842567444,0.8723596334457397,0.0,0.0,0.0,0.0,0.0,0.0,0.0,0.0,0.0,0.004866885021328926,-0.0008246824145317078,0.054461076855659485,0.0,0.0,0.0,0.0,0.0,0.0,0.0,0.0,0.0
1606991132372851240,4148125,1606987530661799407,imu_link,0.00511553231626749,0.00735662505030632,0.3963799774646759,0.9180428385734558,0.0,0.0,0.0,0.0,0.0,0.0,0.0,0.0,0.0,46.71023941040039,0.5415680408477783,0.8723775744438171,0.0,0.0,0.0,0.0,0.0,0.0,0.0,0.0,0.0,0.009557009674608707,-0.003637744579464197,0.07758317142724991,0.0,0.0,0.0,0.0,0.0,0.0,0.0,0.0,0.0
1606991132372870927,4148126,1606987530673522127,imu_link,0.00511553231626749,0.00735662505030632,0.3963799774646759,0.9180428385734558,0.0,0.0,0.0,0.0,0.0,0.0,0.0,0.0,0.0,46.71023941040039,0.5415680408477783,0.8723775744438171,0.0,0.0,0.0,0.0,0.0,0.0,0.0,0.0,0.0,0.009557009674608707,-0.003637744579464197,0.07758317142724991,0.0,0.0,0.0,0.0,0.0,0.0,0.0,0.0,0.0
1606991132372898059,4148127,1606987530673641248,imu_link,0.005115893203765154,0.00735664926469326,0.3963811993598938,0.9180423021316528,0.0,0.0,0.0,0.0,0.0,0.0,0.0,0.0,0.0,46.71039581298828,0.5415530204772949,0.8724173307418823,0.0,0.0,0.0,0.0,0.0,0.0,0.0,0.0,0.0,0.010804308578372002,-0.014396927319467068,0.0698811486363411,0.0,0.0,0.0,0.0,0.0,0.0,0.0,0.0,0.0
1606991132379845011,4148128,1606987530673729748,imu_link,0.005115893203765154,0.00735664926469326,0.3963811993598938,0.9180423021316528,0.0,0.0,0.0,0.0,0.0,0.0,0.0,0.0,0.0,46.71039581298828,0.5415530204772949,0.8724173307418823,0.0,0.0,0.0,0.0,0.0,0.0,0.0,0.0,0.0,0.010804308578372002,-0.014396927319467068,0.0698811486363411,0.0,0.0,0.0,0.0,0.0,0.0,0.0,0.0,0.0
1606991132379872194,4148129,1606987530673812304,imu_link,0.005117044784128666,0.007358869072049856,0.39638298749923706,0.9180415272712708,0.0,0.0,0.0,0.0,0.0,0.0,0.0,0.0,0.0,46.71062088012695,0.5417325496673584,0.8726403713226318,0.0,0.0,0.0,0.0,0.0,0.0,0.0,0.0,0.0,0.021742235869169235,-0.01961701735854149,0.045463066548109055,0.0,0.0,0.0,0.0,0.0,0.0,0.0,0.0,0.0
1606991132379890241,4148130,1606987530673889593,imu_link,0.005117044784128666,0.007358869072049856,0.39638298749923706,0.9180415272712708,0.0,0.0,0.0,0.0,0.0,0.0,0.0,0.0,0.0,46.71062088012695,0.5417325496673584,0.8726403713226318,0.0,0.0,0.0,0.0,0.0,0.0,0.0,0.0,0.0,0.021742235869169235,-0.01961701735854149,0.045463066548109055,0.0,0.0,0.0,0.0,0.0,0.0,0.0,0.0,0.0
1606991132379911141,4148131,1606987530673986652,imu_link,0.005115414038300514,0.007358224596828222,0.39638447761535645,0.918040931224823,0.0,0.0,0.0,0.0,0.0,0.0,0.0,0.0,0.0,46.71080017089844,0.54173743724823,0.8724404573440552,0.0,0.0,0.0,0.0,0.0,0.0,0.0,0.0,0.0,0.004831795115023851,-0.007773552089929581,0.06365178525447845,0.0,0.0,0.0,0.0,0.0,0.0,0.0,0.0,0.0
1606991132379929872,4148132,1606987530674069319,imu_link,0.005115414038300514,0.007358224596828222,0.39638447761535645,0.918040931224823,0.0,0.0,0.0,0.0,0.0,0.0,0.0,0.0,0.0,46.71080017089844,0.54173743724823,0.8724404573440552,0.0,0.0,0.0,0.0,0.0,0.0,0.0,0.0,0.0,0.004831795115023851,-0.007773552089929581,0.06365178525447845,0.0,0.0,0.0,0.0,0.0,0.0,0.0,0.0,0.0
1606991132481105539,4148133,1606987530674157608,imu_link,0.0051161726005375385,0.007358274422585964,0.3963843882083893,0.918040931224823,0.0,0.0,0.0,0.0,0.0,0.0,0.0,0.0,0.0,46.710792541503906,0.5417081713676453,0.8725224733352661,0.0,0.0,0.0,0.0,0.0,0.0,0.0,0.0,0.0,-0.019496500492095947,-0.008545338176190853,0.07008358836174011,0.0,0.0,0.0,0.0,0.0,0.0,0.0,0.0,0.0
1606991132481157037,4148134,1606987530674236796,imu_link,0.0051161726005375385,0.007358274422585964,0.3963843882083893,0.918040931224823,0.0,0.0,0.0,0.0,0.0,0.0,0.0,0.0,0.0,46.710792541503906,0.5417081713676453,0.8725224733352661,0.0,0.0,0.0,0.0,0.0,0.0,0.0,0.0,0.0,-0.019496500492095947,-0.008545338176190853,0.07008358836174011,0.0,0.0,0.0,0.0,0.0,0.0,0.0,0.0,0.0
1606991132481172146,4148135,1606987530674330493,imu_link,0.005117660854011774,0.007357445545494556,0.3963834047317505,0.9180414080619812,0.0,0.0,0.0,0.0,0.0,0.0,0.0,0.0,0.0,46.71066665649414,0.5415543913841248,0.8726406693458557,0.0,0.0,0.0,0.0,0.0,0.0,0.0,0.0,0.0,0.0014170176582410932,-0.01948564313352108,0.036049164831638336,0.0,0.0,0.0,0.0,0.0,0.0,0.0,0.0,0.0
1606991132481180886,4148136,1606987530687378520,imu_link,0.005117660854011774,0.007357445545494556,0.3963834047317505,0.9180414080619812,0.0,0.0,0.0,0.0,0.0,0.0,0.0,0.0,0.0,46.71066665649414,0.5415543913841248,0.8726406693458557,0.0,0.0,0.0,0.0,0.0,0.0,0.0,0.0,0.0,0.0014170176582410932,-0.01948564313352108,0.036049164831638336,0.0,0.0,0.0,0.0,0.0,0.0,0.0,0.0,0.0
1606991132484437476,4148137,1606987530687526949,imu_link,0.005118800327181816,0.007359188515692949,0.39638370275497437,0.9180411100387573,0.0,0.0,0.0,0.0,0.0,0.0,0.0,0.0,0.0,46.71072006225586,0.5416855812072754,0.872840166091919,0.0,0.0,0.0,0.0,0.0,0.0,0.0,0.0,0.0,0.011438175104558468,-0.005518847145140171,0.03716926649212837,0.0,0.0,0.0,0.0,0.0,0.0,0.0,0.0,0.0
1606991132484475502,4148138,1606987530687618440,imu_link,0.005118800327181816,0.007359188515692949,0.39638370275497437,0.9180411100387573,0.0,0.0,0.0,0.0,0.0,0.0,0.0,0.0,0.0,46.71072006225586,0.5416855812072754,0.872840166091919,0.0,0.0,0.0,0.0,0.0,0.0,0.0,0.0,0.0,0.011438175104558468,-0.005518847145140171,0.03716926649212837,0.0,0.0,0.0,0.0,0.0,0.0,0.0,0.0,0.0
1606991132484498185,4148139,1606987530687709090,imu_link,0.005117288790643215,0.007358380127698183,0.39638349413871765,0.9180413484573364,0.0,0.0,0.0,0.0,0.0,0.0,0.0,0.0,0.0,46.7106819152832,0.541669487953186,0.8726440668106079,0.0,0.0,0.0,0.0,0.0,0.0,0.0,0.0,0.0,0.009317226707935333,-0.005897745955735445,0.05675612390041351,0.0,0.0,0.0,0.0,0.0,0.0,0.0,0.0,0.0
1606991132484556656,4148140,1606987530687787792,imu_link,0.005117288790643215,0.007358380127698183,0.39638349413871765,0.9180413484573364,0.0,0.0,0.0,0.0,0.0,0.0,0.0,0.0,0.0,46.7106819152832,0.541669487953186,0.8726440668106079,0.0,0.0,0.0,0.0,0.0,0.0,0.0,0.0,0.0,0.009317226707935333,-0.005897745955735445,0.05675612390041351,0.0,0.0,0.0,0.0,0.0,0.0,0.0,0.0,0.0
1606991132484567699,4148141,1606987530687870514,imu_link,0.00511768227443099,0.0073595205321908,0.39638572931289673,0.91804039478302,0.0,0.0,0.0,0.0,0.0,0.0,0.0,0.0,0.0,46.710960388183594,0.5417695641517639,0.8727385997772217,0.0,0.0,0.0,0.0,0.0,0.0,0.0,0.0,0.0,0.008504550904035568,-0.012671468779444695,0.054088421165943146,0.0,0.0,0.0,0.0,0.0,0.0,0.0,0.0,0.0
1606991132493561705,4148142,1606987530687971948,imu_link,0.00511768227443099,0.0073595205321908,0.39638572931289673,0.91804039478302,0.0,0.0,0.0,0.0,0.0,0.0,0.0,0.0,0.0,46.710960388183594,0.5417695641517639,0.8727385997772217,0.0,0.0,0.0,0.0,0.0,0.0,0.0,0.0,0.0,0.008504550904035568,-0.012671468779444695,0.054088421165943146,0.0,0.0,0.0,0.0,0.0,0.0,0.0,0.0,0.0
1606991132493584698,4148143,1606987530688056604,imu_link,0.00511768227443099,0.0073595205321908,0.39638572931289673,0.91804039478302,0.0,0.0,0.0,0.0,0.0,0.0,0.0,0.0,0.0,46.710960388183594,0.5417695641517639,0.8727385997772217,0.0,0.0,0.0,0.0,0.0,0.0,0.0,0.0,0.0,-0.016302358359098434,-0.01789512112736702,0.04810360074043274,0.0,0.0,0.0,0.0,0.0,0.0,0.0,0.0,0.0
1606991132493598032,4148144,1606987530688135467,imu_link,0.00511768227443099,0.0073595205321908,0.39638572931289673,0.91804039478302,0.0,0.0,0.0,0.0,0.0,0.0,0.0,0.0,0.0,46.710960388183594,0.5417695641517639,0.8727385997772217,0.0,0.0,0.0,0.0,0.0,0.0,0.0,0.0,0.0,-0.016302358359098434,-0.01789512112736702,0.04810360074043274,0.0,0.0,0.0,0.0,0.0,0.0,0.0,0.0,0.0
1606991132493609369,4148145,1606987530688258106,imu_link,0.0051202308386564255,0.0073584881611168385,0.396388441324234,0.918039083480835,0.0,0.0,0.0,0.0,0.0,0.0,0.0,0.0,0.0,46.711307525634766,0.5415424704551697,0.8729615807533264,0.0,0.0,0.0,0.0,0.0,0.0,0.0,0.0,0.0,-0.01667599380016327,-0.013258361257612705,0.05077369883656502,0.0,0.0,0.0,0.0,0.0,0.0,0.0,0.0,0.0
1606991132499156789,4148146,1606987530688338577,imu_link,0.0051202308386564255,0.0073584881611168385,0.396388441324234,0.918039083480835,0.0,0.0,0.0,0.0,0.0,0.0,0.0,0.0,0.0,46.711307525634766,0.5415424704551697,0.8729615807533264,0.0,0.0,0.0,0.0,0.0,0.0,0.0,0.0,0.0,-0.01667599380016327,-0.013258361257612705,0.05077369883656502,0.0,0.0,0.0,0.0,0.0,0.0,0.0,0.0,0.0
1606991132499190372,4148147,1606987530700732716,imu_link,0.005121839698404074,0.007357205264270306,0.39638784527778625,0.9180394411087036,0.0,0.0,0.0,0.0,0.0,0.0,0.0,0.0,0.0,46.71122360229492,0.5413351058959961,0.8730720281600952,0.0,0.0,0.0,0.0,0.0,0.0,0.0,0.0,0.0,0.012622777372598648,0.008430234156548977,0.019136039540171623,0.0,0.0,0.0,0.0,0.0,0.0,0.0,0.0,0.0
1606991132499205146,4148148,1606987530700846705,imu_link,0.005121839698404074,0.007357205264270306,0.39638784527778625,0.9180394411087036,0.0,0.0,0.0,0.0,0.0,0.0,0.0,0.0,0.0,46.71122360229492,0.5413351058959961,0.8730720281600952,0.0,0.0,0.0,0.0,0.0,0.0,0.0,0.0,0.0,0.012622777372598648,0.008430234156548977,0.019136039540171623,0.0,0.0,0.0,0.0,0.0,0.0,0.0,0.0,0.0
1606991132499216192,4148149,1606987530700932147,imu_link,0.00512193376198411,0.007356695365160704,0.39638999104499817,0.9180384874343872,0.0,0.0,0.0,0.0,0.0,0.0,0.0,0.0,0.0,46.711490631103516,0.541275143623352,0.8730601072311401,0.0,0.0,0.0,0.0,0.0,0.0,0.0,0.0,0.0,0.02337489277124405,0.017774781212210655,-0.004166733473539352,0.0,0.0,0.0,0.0,0.0,0.0,0.0,0.0,0.0
1606991132499241647,4148150,1606987530701026385,imu_link,0.00512193376198411,0.007356695365160704,0.39638999104499817,0.9180384874343872,0.0,0.0,0.0,0.0,0.0,0.0,0.0,0.0,0.0,46.711490631103516,0.541275143623352,0.8730601072311401,0.0,0.0,0.0,0.0,0.0,0.0,0.0,0.0,0.0,0.02337489277124405,0.017774781212210655,-0.004166733473539352,0.0,0.0,0.0,0.0,0.0,0.0,0.0,0.0,0.0
1606991132558147715,4148151,1606987530701107879,imu_link,0.0051229605451226234,0.007355670444667339,0.3963906764984131,0.9180381894111633,0.0,0.0,0.0,0.0,0.0,0.0,0.0,0.0,0.0,46.711570739746094,0.5411199331283569,0.873121976852417,0.0,0.0,0.0,0.0,0.0,0.0,0.0,0.0,0.0,0.01239002589136362,0.0010625715367496014,0.03683178499341011,0.0,0.0,0.0,0.0,0.0,0.0,0.0,0.0,0.0
1606991132558166429,4148152,1606987530701190676,imu_link,0.0051229605451226234,0.007355670444667339,0.3963906764984131,0.9180381894111633,0.0,0.0,0.0,0.0,0.0,0.0,0.0,0.0,0.0,46.711570739746094,0.5411199331283569,0.873121976852417,0.0,0.0,0.0,0.0,0.0,0.0,0.0,0.0,0.0,0.01239002589136362,0.0010625715367496014,0.03683178499341011,0.0,0.0,0.0,0.0,0.0,0.0,0.0,0.0,0.0
1606991132558173631,4148153,1606987530701286352,imu_link,0.005124266725033522,0.0073562366887927055,0.3963911831378937,0.9180379509925842,0.0,0.0,0.0,0.0,0.0,0.0,0.0,0.0,0.0,46.711639404296875,0.5411197543144226,0.8732854723930359,0.0,0.0,0.0,0.0,0.0,0.0,0.0,0.0,0.0,0.016360873356461525,0.005672001279890537,0.047964539378881454,0.0,0.0,0.0,0.0,0.0,0.0,0.0,0.0,0.0
1606991132558186550,4148154,1606987530701369489,imu_link,0.005124266725033522,0.0073562366887927055,0.3963911831378937,0.9180379509925842,0.0,0.0,0.0,0.0,0.0,0.0,0.0,0.0,0.0,46.711639404296875,0.5411197543144226,0.8732854723930359,0.0,0.0,0.0,0.0,0.0,0.0,0.0,0.0,0.0,0.016360873356461525,0.005672001279890537,0.047964539378881454,0.0,0.0,0.0,0.0,0.0,0.0,0.0,0.0,0.0
1606991132562808177,4148155,1606987530701448442,imu_link,0.005122521426528692,0.007356733083724976,0.3963920474052429,0.9180375933647156,0.0,0.0,0.0,0.0,0.0,0.0,0.0,0.0,0.0,46.71175003051758,0.5412504076957703,0.8731248378753662,0.0,0.0,0.0,0.0,0.0,0.0,0.0,0.0,0.0,0.015951775014400482,0.014259769581258297,0.035946108400821686,0.0,0.0,0.0,0.0,0.0,0.0,0.0,0.0,0.0
1606991132562824038,4148156,1606987530701539979,imu_link,0.005122521426528692,0.007356733083724976,0.3963920474052429,0.9180375933647156,0.0,0.0,0.0,0.0,0.0,0.0,0.0,0.0,0.0,46.71175003051758,0.5412504076957703,0.8731248378753662,0.0,0.0,0.0,0.0,0.0,0.0,0.0,0.0,0.0,0.015951775014400482,0.014259769581258297,0.035946108400821686,0.0,0.0,0.0,0.0,0.0,0.0,0.0,0.0,0.0
1606991132562844612,4148157,1606987530701618375,imu_link,0.005122256465256214,0.007358388975262642,0.3963928818702698,0.9180372357368469,0.0,0.0,0.0,0.0,0.0,0.0,0.0,0.0,0.0,46.711856842041016,0.5414358377456665,0.8731727004051208,0.0,0.0,0.0,0.0,0.0,0.0,0.0,0.0,0.0,0.010275130160152912,0.0023080979008227587,0.04653719440102577,0.0,0.0,0.0,0.0,0.0,0.0,0.0,0.0,0.0
1606991132562866508,4148158,1606987530714592648,imu_link,0.005122256465256214,0.007358388975262642,0.3963928818702698,0.9180372357368469,0.0,0.0,0.0,0.0,0.0,0.0,0.0,0.0,0.0,46.711856842041016,0.5414358377456665,0.8731727004051208,0.0,0.0,0.0,0.0,0.0,0.0,0.0,0.0,0.0,0.010275130160152912,0.0023080979008227587,0.04653719440102577,0.0,0.0,0.0,0.0,0.0,0.0,0.0,0.0,0.0
1606991132562873590,4148159,1606987530714642496,imu_link,0.00512094097211957,0.007358964066952467,0.39639440178871155,0.9180365800857544,0.0,0.0,0.0,0.0,0.0,0.0,0.0,0.0,0.0,46.7120475769043,0.5415546298027039,0.8730613589286804,0.0,0.0,0.0,0.0,0.0,0.0,0.0,0.0,0.0,0.006418954581022263,-0.00448545441031456,0.06206774711608887,0.0,0.0,0.0,0.0,0.0,0.0,0.0,0.0,0.0
1606991132572882529,4148160,1606987530714666871,imu_link,0.00512094097211957,0.007358964066952467,0.39639440178871155,0.9180365800857544,0.0,0.0,0.0,0.0,0.0,0.0,0.0,0.0,0.0,46.7120475769043,0.5415546298027039,0.8730613589286804,0.0,0.0,0.0,0.0,0.0,0.0,0.0,0.0,0.0,0.006418954581022263,-0.00448545441031456,0.06206774711608887,0.0,0.0,0.0,0.0,0.0,0.0,0.0,0.0,0.0
1606991132572905596,4148161,1606987530714690843,imu_link,0.0051195817068219185,0.007357847411185503,0.3963908851146698,0.9180381298065186,0.0,0.0,0.0,0.0,0.0,0.0,0.0,0.0,0.0,46.711605072021484,0.5415022969245911,0.8728654384613037,0.0,0.0,0.0,0.0,0.0,0.0,0.0,0.0,0.0,-0.0027014953084290028,-0.005937695968896151,0.05966580659151077,0.0,0.0,0.0,0.0,0.0,0.0,0.0,0.0,0.0
1606991132572914374,4148162,1606987530714714174,imu_link,0.0051195817068219185,0.007357847411185503,0.3963908851146698,0.9180381298065186,0.0,0.0,0.0,0.0,0.0,0.0,0.0,0.0,0.0,46.711605072021484,0.5415022969245911,0.8728654384613037,0.0,0.0,0.0,0.0,0.0,0.0,0.0,0.0,0.0,-0.0027014953084290028,-0.005937695968896151,0.05966580659151077,0.0,0.0,0.0,0.0,0.0,0.0,0.0,0.0,0.0
1606991132572920067,4148163,1606987530714739715,imu_link,0.0051199691370129585,0.007354040630161762,0.39639145135879517,0.9180378913879395,0.0,0.0,0.0,0.0,0.0,0.0,0.0,0.0,0.0,46.711666107177734,0.5410836338996887,0.8727335929870605,0.0,0.0,0.0,0.0,0.0,0.0,0.0,0.0,0.0,-0.002434998983517289,-0.009446474723517895,0.039746712893247604,0.0,0.0,0.0,0.0,0.0,0.0,0.0,0.0,0.0
1606991132583271483,4148164,1606987530714770413,imu_link,0.0051199691370129585,0.007354040630161762,0.39639145135879517,0.9180378913879395,0.0,0.0,0.0,0.0,0.0,0.0,0.0,0.0,0.0,46.711666107177734,0.5410836338996887,0.8727335929870605,0.0,0.0,0.0,0.0,0.0,0.0,0.0,0.0,0.0,-0.002434998983517289,-0.009446474723517895,0.039746712893247604,0.0,0.0,0.0,0.0,0.0,0.0,0.0,0.0,0.0
1606991132583301920,4148165,1606987530714794224,imu_link,0.005121032241731882,0.007354877423495054,0.39639541506767273,0.918036162853241,0.0,0.0,0.0,0.0,0.0,0.0,0.0,0.0,0.0,46.71216583251953,0.5411196351051331,0.8728858232498169,0.0,0.0,0.0,0.0,0.0,0.0,0.0,0.0,0.0,-0.00249420921318233,0.007034410256892443,0.024926315993070602,0.0,0.0,0.0,0.0,0.0,0.0,0.0,0.0,0.0
1606991132583320406,4148166,1606987530714817585,imu_link,0.005121032241731882,0.007354877423495054,0.39639541506767273,0.918036162853241,0.0,0.0,0.0,0.0,0.0,0.0,0.0,0.0,0.0,46.71216583251953,0.5411196351051331,0.8728858232498169,0.0,0.0,0.0,0.0,0.0,0.0,0.0,0.0,0.0,-0.00249420921318233,0.007034410256892443,0.024926315993070602,0.0,0.0,0.0,0.0,0.0,0.0,0.0,0.0,0.0
1606991132583333664,4148167,1606987530714841496,imu_link,0.005119152367115021,0.0073562790639698505,0.39639610052108765,0.9180358648300171,0.0,0.0,0.0,0.0,0.0,0.0,0.0,0.0,0.0,46.71225357055664,0.541351854801178,0.8727521896362305,0.0,0.0,0.0,0.0,0.0,0.0,0.0,0.0,0.0,-0.002914972370490432,0.015184290707111359,0.04461872950196266,0.0,0.0,0.0,0.0,0.0,0.0,0.0,0.0,0.0
1606991132583349761,4148168,1606987530714864392,imu_link,0.005119152367115021,0.0073562790639698505,0.39639610052108765,0.9180358648300171,0.0,0.0,0.0,0.0,0.0,0.0,0.0,0.0,0.0,46.71225357055664,0.541351854801178,0.8727521896362305,0.0,0.0,0.0,0.0,0.0,0.0,0.0,0.0,0.0,-0.002914972370490432,0.015184290707111359,0.04461872950196266,0.0,0.0,0.0,0.0,0.0,0.0,0.0,0.0,0.0
1606991132701723256,4148169,1606987530728026064,imu_link,0.005118837114423513,0.007356594316661358,0.3963994085788727,0.9180344343185425,0.0,0.0,0.0,0.0,0.0,0.0,0.0,0.0,0.0,46.71267318725586,0.5413961410522461,0.8727352619171143,0.0,0.0,0.0,0.0,0.0,0.0,0.0,0.0,0.0,0.002726043574512005,-0.005712720565497875,0.06782691180706024,0.0,0.0,0.0,0.0,0.0,0.0,0.0,0.0,0.0
1606991132701768067,4148170,1606987530728092111,imu_link,0.005118837114423513,0.007356594316661358,0.3963994085788727,0.9180344343185425,0.0,0.0,0.0,0.0,0.0,0.0,0.0,0.0,0.0,46.71267318725586,0.5413961410522461,0.8727352619171143,0.0,0.0,0.0,0.0,0.0,0.0,0.0,0.0,0.0,0.002726043574512005,-0.005712720565497875,0.06782691180706024,0.0,0.0,0.0,0.0,0.0,0.0,0.0,0.0,0.0
1606991132701786204,4148171,1606987530728129769,imu_link,0.005119869485497475,0.007356936112046242,0.3963996171951294,0.9180343747138977,0.0,0.0,0.0,0.0,0.0,0.0,0.0,0.0,0.0,46.71269226074219,0.5413850545883179,0.8728594779968262,0.0,0.0,0.0,0.0,0.0,0.0,0.0,0.0,0.0,0.010161045007407665,-0.026943199336528778,0.060639627277851105,0.0,0.0,0.0,0.0,0.0,0.0,0.0,0.0,0.0
1606991132701805089,4148172,1606987530728168744,imu_link,0.005119869485497475,0.007356936112046242,0.3963996171951294,0.9180343747138977,0.0,0.0,0.0,0.0,0.0,0.0,0.0,0.0,0.0,46.71269226074219,0.5413850545883179,0.8728594779968262,0.0,0.0,0.0,0.0,0.0,0.0,0.0,0.0,0.0,0.010161045007407665,-0.026943199336528778,0.060639627277851105,0.0,0.0,0.0,0.0,0.0,0.0,0.0,0.0,0.0
1606991132705514692,4148173,1606987530728205961,imu_link,0.005122825503349304,0.007359455805271864,0.39638909697532654,0.9180389046669006,0.0,0.0,0.0,0.0,0.0,0.0,0.0,0.0,0.0,46.71138000488281,0.5415257811546326,0.8732788562774658,0.0,0.0,0.0,0.0,0.0,0.0,0.0,0.0,0.0,0.005792468320578337,-0.032740890979766846,0.0494050607085228,0.0,0.0,0.0,0.0,0.0,0.0,0.0,0.0,0.0
1606991132705539107,4148174,1606987530728251331,imu_link,0.005122825503349304,0.007359455805271864,0.39638909697532654,0.9180389046669006,0.0,0.0,0.0,0.0,0.0,0.0,0.0,0.0,0.0,46.71138000488281,0.5415257811546326,0.8732788562774658,0.0,0.0,0.0,0.0,0.0,0.0,0.0,0.0,0.0,0.005792468320578337,-0.032740890979766846,0.0494050607085228,0.0,0.0,0.0,0.0,0.0,0.0,0.0,0.0,0.0
1606991132705555739,4148175,1606987530728290780,imu_link,0.00512292655184865,0.007359427399933338,0.3963903486728668,0.9180383682250977,0.0,0.0,0.0,0.0,0.0,0.0,0.0,0.0,0.0,46.7115364074707,0.5415171384811401,0.8732888698577881,0.0,0.0,0.0,0.0,0.0,0.0,0.0,0.0,0.0,-0.008006654679775238,-0.008896658197045326,0.01503788586705923,0.0,0.0,0.0,0.0,0.0,0.0,0.0,0.0,0.0
1606991132705578832,4148176,1606987530728332951,imu_link,0.00512292655184865,0.007359427399933338,0.3963903486728668,0.9180383682250977,0.0,0.0,0.0,0.0,0.0,0.0,0.0,0.0,0.0,46.7115364074707,0.5415171384811401,0.8732888698577881,0.0,0.0,0.0,0.0,0.0,0.0,0.0,0.0,0.0,-0.008006654679775238,-0.008896658197045326,0.01503788586705923,0.0,0.0,0.0,0.0,0.0,0.0,0.0,0.0,0.0
1606991132705591895,4148177,1606987530728371261,imu_link,0.005124310962855816,0.007359179202467203,0.3963797986507416,0.918042778968811,0.0,0.0,0.0,0.0,0.0,0.0,0.0,0.0,0.0,46.710227966308594,0.5414379835128784,0.8734171390533447,0.0,0.0,0.0,0.0,0.0,0.0,0.0,0.0,0.0,-0.0039313421584665775,0.006979556288570166,-0.002929691458120942,0.0,0.0,0.0,0.0,0.0,0.0,0.0,0.0,0.0
1606991132718135854,4148178,1606987530728406790,imu_link,0.005124310962855816,0.007359179202467203,0.3963797986507416,0.918042778968811,0.0,0.0,0.0,0.0,0.0,0.0,0.0,0.0,0.0,46.710227966308594,0.5414379835128784,0.8734171390533447,0.0,0.0,0.0,0.0,0.0,0.0,0.0,0.0,0.0,-0.0039313421584665775,0.006979556288570166,-0.002929691458120942,0.0,0.0,0.0,0.0,0.0,0.0,0.0,0.0,0.0
1606991132718170359,4148179,1606987530728443533,imu_link,0.005125359632074833,0.007359237410128117,0.39638179540634155,0.9180419445037842,0.0,0.0,0.0,0.0,0.0,0.0,0.0,0.0,0.0,46.71047592163086,0.5413946509361267,0.8735312819480896,0.0,0.0,0.0,0.0,0.0,0.0,0.0,0.0,0.0,-0.002921842271462083,-0.0013351439265534282,0.04947923496365547,0.0,0.0,0.0,0.0,0.0,0.0,0.0,0.0,0.0
1606991132718184194,4148180,1606987530741024747,imu_link,0.005125359632074833,0.007359237410128117,0.39638179540634155,0.9180419445037842,0.0,0.0,0.0,0.0,0.0,0.0,0.0,0.0,0.0,46.71047592163086,0.5413946509361267,0.8735312819480896,0.0,0.0,0.0,0.0,0.0,0.0,0.0,0.0,0.0,-0.002921842271462083,-0.0013351439265534282,0.04947923496365547,0.0,0.0,0.0,0.0,0.0,0.0,0.0,0.0,0.0
1606991132718204027,4148181,1606987530741121518,imu_link,0.005127652082592249,0.007359369192272425,0.39638471603393555,0.9180406928062439,0.0,0.0,0.0,0.0,0.0,0.0,0.0,0.0,0.0,46.71084213256836,0.5413016080856323,0.8737801313400269,0.0,0.0,0.0,0.0,0.0,0.0,0.0,0.0,0.0,-0.007512675132602453,-0.00496496120467782,0.09643958508968353,0.0,0.0,0.0,0.0,0.0,0.0,0.0,0.0,0.0
1606991132720927990,4148182,1606987530741216364,imu_link,0.005127652082592249,0.007359369192272425,0.39638471603393555,0.9180406928062439,0.0,0.0,0.0,0.0,0.0,0.0,0.0,0.0,0.0,46.71084213256836,0.5413016080856323,0.8737801313400269,0.0,0.0,0.0,0.0,0.0,0.0,0.0,0.0,0.0,-0.007512675132602453,-0.00496496120467782,0.09643958508968353,0.0,0.0,0.0,0.0,0.0,0.0,0.0,0.0,0.0
1606991132720996335,4148183,1606987530741278147,imu_link,0.00512841297313571,0.007360012736171484,0.39638572931289673,0.9180402755737305,0.0,0.0,0.0,0.0,0.0,0.0,0.0,0.0,0.0,46.71097183227539,0.541333794593811,0.8738900423049927,0.0,0.0,0.0,0.0,0.0,0.0,0.0,0.0,0.0,0.007548268884420395,0.011144357733428478,0.0779406726360321,0.0,0.0,0.0,0.0,0.0,0.0,0.0,0.0,0.0
1606991132721014447,4148184,1606987530741356361,imu_link,0.00512841297313571,0.007360012736171484,0.39638572931289673,0.9180402755737305,0.0,0.0,0.0,0.0,0.0,0.0,0.0,0.0,0.0,46.71097183227539,0.541333794593811,0.8738900423049927,0.0,0.0,0.0,0.0,0.0,0.0,0.0,0.0,0.0,0.007548268884420395,0.011144357733428478,0.0779406726360321,0.0,0.0,0.0,0.0,0.0,0.0,0.0,0.0,0.0
1606991132721033798,4148185,1606987530741426647,imu_link,0.005125046242028475,0.007360209245234728,0.39638999104499817,0.9180384874343872,0.0,0.0,0.0,0.0,0.0,0.0,0.0,0.0,0.0,46.71149826049805,0.541503369808197,0.8735471367835999,0.0,0.0,0.0,0.0,0.0,0.0,0.0,0.0,0.0,-0.0061556315049529076,0.012794624082744122,0.06339852511882782,0.0,0.0,0.0,0.0,0.0,0.0,0.0,0.0,0.0
1606991132721060700,4148186,1606987530741482269,imu_link,0.005125046242028475,0.007360209245234728,0.39638999104499817,0.9180384874343872,0.0,0.0,0.0,0.0,0.0,0.0,0.0,0.0,0.0,46.71149826049805,0.541503369808197,0.8735471367835999,0.0,0.0,0.0,0.0,0.0,0.0,0.0,0.0,0.0,-0.0061556315049529076,0.012794624082744122,0.06339852511882782,0.0,0.0,0.0,0.0,0.0,0.0,0.0,0.0,0.0
1606991132786634420,4148187,1606987530741536642,imu_link,0.005126442294567823,0.0073595172725617886,0.3963906764984131,0.9180381894111633,0.0,0.0,0.0,0.0,0.0,0.0,0.0,0.0,0.0,46.711578369140625,0.541366457939148,0.8736630082130432,0.0,0.0,0.0,0.0,0.0,0.0,0.0,0.0,0.0,-0.012214254587888718,-0.011743836104869843,0.07690975815057755,0.0,0.0,0.0,0.0,0.0,0.0,0.0,0.0,0.0
1606991132786652369,4148188,1606987530741590550,imu_link,0.005126442294567823,0.0073595172725617886,0.3963906764984131,0.9180381894111633,0.0,0.0,0.0,0.0,0.0,0.0,0.0,0.0,0.0,46.711578369140625,0.541366457939148,0.8736630082130432,0.0,0.0,0.0,0.0,0.0,0.0,0.0,0.0,0.0,-0.012214254587888718,-0.011743836104869843,0.07690975815057755,0.0,0.0,0.0,0.0,0.0,0.0,0.0,0.0,0.0
1606991132786658706,4148189,1606987530741644802,imu_link,0.00512928981333971,0.007358430419117212,0.3963870704174042,0.9180397391319275,0.0,0.0,0.0,0.0,0.0,0.0,0.0,0.0,0.0,46.71113204956055,0.5411262512207031,0.8739110827445984,0.0,0.0,0.0,0.0,0.0,0.0,0.0,0.0,0.0,0.004738553427159786,-0.024476123973727226,0.061414457857608795,0.0,0.0,0.0,0.0,0.0,0.0,0.0,0.0,0.0
1606991132786664134,4148190,1606987530754670394,imu_link,0.00512928981333971,0.007358430419117212,0.3963870704174042,0.9180397391319275,0.0,0.0,0.0,0.0,0.0,0.0,0.0,0.0,0.0,46.71113204956055,0.5411262512207031,0.8739110827445984,0.0,0.0,0.0,0.0,0.0,0.0,0.0,0.0,0.0,0.004738553427159786,-0.024476123973727226,0.061414457857608795,0.0,0.0,0.0,0.0,0.0,0.0,0.0,0.0,0.0
1606991132789795424,4148191,1606987530754750997,imu_link,0.0051305945962667465,0.007358531001955271,0.3963865339756012,0.9180399775505066,0.0,0.0,0.0,0.0,0.0,0.0,0.0,0.0,0.0,46.71106719970703,0.5410780906677246,0.8740525841712952,0.0,0.0,0.0,0.0,0.0,0.0,0.0,0.0,0.0,0.011544332839548588,-0.016007306054234505,0.04892503097653389,0.0,0.0,0.0,0.0,0.0,0.0,0.0,0.0,0.0
1606991132789818595,4148192,1606987530754807488,imu_link,0.0051305945962667465,0.007358531001955271,0.3963865339756012,0.9180399775505066,0.0,0.0,0.0,0.0,0.0,0.0,0.0,0.0,0.0,46.71106719970703,0.5410780906677246,0.8740525841712952,0.0,0.0,0.0,0.0,0.0,0.0,0.0,0.0,0.0,0.011544332839548588,-0.016007306054234505,0.04892503097653389,0.0,0.0,0.0,0.0,0.0,0.0,0.0,0.0,0.0
1606991132789831701,4148193,1606987530754860841,imu_link,0.0051339166238904,0.007358858361840248,0.3963848054409027,0.9180406332015991,0.0,0.0,0.0,0.0,0.0,0.0,0.0,0.0,0.0,46.710853576660156,0.5409631729125977,0.8744160532951355,0.0,0.0,0.0,0.0,0.0,0.0,0.0,0.0,0.0,0.010375103913247585,-0.0008575379033572972,0.03801713511347771,0.0,0.0,0.0,0.0,0.0,0.0,0.0,0.0,0.0
1606991132789840238,4148194,1606987530754913286,imu_link,0.0051339166238904,0.007358858361840248,0.3963848054409027,0.9180406332015991,0.0,0.0,0.0,0.0,0.0,0.0,0.0,0.0,0.0,46.710853576660156,0.5409631729125977,0.8744160532951355,0.0,0.0,0.0,0.0,0.0,0.0,0.0,0.0,0.0,0.010375103913247585,-0.0008575379033572972,0.03801713511347771,0.0,0.0,0.0,0.0,0.0,0.0,0.0,0.0,0.0
1606991132789852921,4148195,1606987530755034986,imu_link,0.0051329247653484344,0.0073576983995735645,0.39638254046440125,0.9180416464805603,0.0,0.0,0.0,0.0,0.0,0.0,0.0,0.0,0.0,46.710567474365234,0.5408884286880493,0.8742576837539673,0.0,0.0,0.0,0.0,0.0,0.0,0.0,0.0,0.0,0.003308506915345788,0.00045789865544065833,0.03351028636097908,0.0,0.0,0.0,0.0,0.0,0.0,0.0,0.0,0.0
1606991132796627071,4148196,1606987530755115503,imu_link,0.0051329247653484344,0.0073576983995735645,0.39638254046440125,0.9180416464805603,0.0,0.0,0.0,0.0,0.0,0.0,0.0,0.0,0.0,46.710567474365234,0.5408884286880493,0.8742576837539673,0.0,0.0,0.0,0.0,0.0,0.0,0.0,0.0,0.0,0.003308506915345788,0.00045789865544065833,0.03351028636097908,0.0,0.0,0.0,0.0,0.0,0.0,0.0,0.0,0.0
1606991132796644280,4148197,1606987530755177399,imu_link,0.005131675861775875,0.007359528448432684,0.3963764011859894,0.9180442690849304,0.0,0.0,0.0,0.0,0.0,0.0,0.0,0.0,0.0,46.709808349609375,0.5411434173583984,0.8742058277130127,0.0,0.0,0.0,0.0,0.0,0.0,0.0,0.0,0.0,-0.002699092263355851,0.004131046123802662,0.06150967255234718,0.0,0.0,0.0,0.0,0.0,0.0,0.0,0.0,0.0
1606991132796667182,4148198,1606987530755236762,imu_link,0.005131675861775875,0.007359528448432684,0.3963764011859894,0.9180442690849304,0.0,0.0,0.0,0.0,0.0,0.0,0.0,0.0,0.0,46.709808349609375,0.5411434173583984,0.8742058277130127,0.0,0.0,0.0,0.0,0.0,0.0,0.0,0.0,0.0,-0.002699092263355851,0.004131046123802662,0.06150967255234718,0.0,0.0,0.0,0.0,0.0,0.0,0.0,0.0,0.0
1606991132796679019,4148199,1606987530755326527,imu_link,0.005132586229592562,0.007359029725193977,0.39637699723243713,0.9180440306663513,0.0,0.0,0.0,0.0,0.0,0.0,0.0,0.0,0.0,46.709877014160156,0.541049063205719,0.8742791414260864,0.0,0.0,0.0,0.0,0.0,0.0,0.0,0.0,0.0,-0.0062075424939394,0.011890186928212643,0.07230807840824127,0.0,0.0,0.0,0.0,0.0,0.0,0.0,0.0,0.0
1606991132801345485,4148200,1606987530755388251,imu_link,0.005132586229592562,0.007359029725193977,0.39637699723243713,0.9180440306663513,0.0,0.0,0.0,0.0,0.0,0.0,0.0,0.0,0.0,46.709877014160156,0.541049063205719,0.8742791414260864,0.0,0.0,0.0,0.0,0.0,0.0,0.0,0.0,0.0,-0.0062075424939394,0.011890186928212643,0.07230807840824127,0.0,0.0,0.0,0.0,0.0,0.0,0.0,0.0,0.0
1606991132801374103,4148201,1606987530768204968,imu_link,0.005132867023348808,0.00736056687310338,0.39637255668640137,0.9180459380149841,0.0,0.0,0.0,0.0,0.0,0.0,0.0,0.0,0.0,46.70932388305664,0.5412023067474365,0.8743759393692017,0.0,0.0,0.0,0.0,0.0,0.0,0.0,0.0,0.0,0.002192090032622218,0.007164571434259415,0.05794893950223923,0.0,0.0,0.0,0.0,0.0,0.0,0.0,0.0,0.0
1606991132801396929,4148202,1606987530768288445,imu_link,0.005132867023348808,0.00736056687310338,0.39637255668640137,0.9180459380149841,0.0,0.0,0.0,0.0,0.0,0.0,0.0,0.0,0.0,46.70932388305664,0.5412023067474365,0.8743759393692017,0.0,0.0,0.0,0.0,0.0,0.0,0.0,0.0,0.0,0.002192090032622218,0.007164571434259415,0.05794893950223923,0.0,0.0,0.0,0.0,0.0,0.0,0.0,0.0,0.0
1606991132801414286,4148203,1606987530768349116,imu_link,0.0051339054480195045,0.007361533585935831,0.3963726758956909,0.9180458784103394,0.0,0.0,0.0,0.0,0.0,0.0,0.0,0.0,0.0,46.7093391418457,0.5412567257881165,0.874529242515564,0.0,0.0,0.0,0.0,0.0,0.0,0.0,0.0,0.0,-0.0006929659866727889,0.0031093135476112366,0.06116458401083946,0.0,0.0,0.0,0.0,0.0,0.0,0.0,0.0,0.0
1606991132841180645,4148204,1606987530768437867,imu_link,0.0051339054480195045,0.007361533585935831,0.3963726758956909,0.9180458784103394,0.0,0.0,0.0,0.0,0.0,0.0,0.0,0.0,0.0,46.7093391418457,0.5412567257881165,0.874529242515564,0.0,0.0,0.0,0.0,0.0,0.0,0.0,0.0,0.0,-0.0006929659866727889,0.0031093135476112366,0.06116458401083946,0.0,0.0,0.0,0.0,0.0,0.0,0.0,0.0,0.0
1606991132841232637,4148205,1606987530768498870,imu_link,0.005133366212248802,0.007360853720456362,0.3963700234889984,0.9180470108985901,0.0,0.0,0.0,0.0,0.0,0.0,0.0,0.0,0.0,46.70901107788086,0.5412121415138245,0.8744400143623352,0.0,0.0,0.0,0.0,0.0,0.0,0.0,0.0,0.0,-0.008036484010517597,-0.008702774532139301,0.05555061995983124,0.0,0.0,0.0,0.0,0.0,0.0,0.0,0.0,0.0
1606991132841242785,4148206,1606987530768589826,imu_link,0.005133366212248802,0.007360853720456362,0.3963700234889984,0.9180470108985901,0.0,0.0,0.0,0.0,0.0,0.0,0.0,0.0,0.0,46.70901107788086,0.5412121415138245,0.8744400143623352,0.0,0.0,0.0,0.0,0.0,0.0,0.0,0.0,0.0,-0.008036484010517597,-0.008702774532139301,0.05555061995983124,0.0,0.0,0.0,0.0,0.0,0.0,0.0,0.0,0.0
1606991132841253753,4148207,1606987530768672064,imu_link,0.005132791120558977,0.007361275143921375,0.3963696360588074,0.9180471897125244,0.0,0.0,0.0,0.0,0.0,0.0,0.0,0.0,0.0,46.708961486816406,0.5412830114364624,0.8743984699249268,0.0,0.0,0.0,0.0,0.0,0.0,0.0,0.0,0.0,-0.006193893495947123,0.002476664027199149,0.017405467107892036,0.0,0.0,0.0,0.0,0.0,0.0,0.0,0.0,0.0
1606991132841279071,4148208,1606987530768737546,imu_link,0.005132791120558977,0.007361275143921375,0.3963696360588074,0.9180471897125244,0.0,0.0,0.0,0.0,0.0,0.0,0.0,0.0,0.0,46.708961486816406,0.5412830114364624,0.8743984699249268,0.0,0.0,0.0,0.0,0.0,0.0,0.0,0.0,0.0,-0.006193893495947123,0.002476664027199149,0.017405467107892036,0.0,0.0,0.0,0.0,0.0,0.0,0.0,0.0,0.0
1606991132844814965,4148209,1606987530768795455,imu_link,0.005131831858307123,0.007362197618931532,0.3963679373264313,0.9180479049682617,0.0,0.0,0.0,0.0,0.0,0.0,0.0,0.0,0.0,46.7087516784668,0.5414252281188965,0.8743385076522827,0.0,0.0,0.0,0.0,0.0,0.0,0.0,0.0,0.0,-0.0032885861583054066,0.00597579637542367,0.008399221114814281,0.0,0.0,0.0,0.0,0.0,0.0,0.0,0.0,0.0
1606991132844835720,4148210,1606987530768854650,imu_link,0.005131831858307123,0.007362197618931532,0.3963679373264313,0.9180479049682617,0.0,0.0,0.0,0.0,0.0,0.0,0.0,0.0,0.0,46.7087516784668,0.5414252281188965,0.8743385076522827,0.0,0.0,0.0,0.0,0.0,0.0,0.0,0.0,0.0,-0.0032885861583054066,0.00597579637542367,0.008399221114814281,0.0,0.0,0.0,0.0,0.0,0.0,0.0,0.0,0.0
1606991132844859676,4148211,1606987530768913685,imu_link,0.005130315199494362,0.007361784111708403,0.39636915922164917,0.9180474281311035,0.0,0.0,0.0,0.0,0.0,0.0,0.0,0.0,0.0,46.708900451660156,0.5414494872093201,0.8741608262062073,0.0,0.0,0.0,0.0,0.0,0.0,0.0,0.0,0.0,0.001863754470832646,-0.004628792405128479,0.028487520292401314,0.0,0.0,0.0,0.0,0.0,0.0,0.0,0.0,0.0
1606991132844867535,4148212,1606987530781987823,imu_link,0.005130315199494362,0.007361784111708403,0.39636915922164917,0.9180474281311035,0.0,0.0,0.0,0.0,0.0,0.0,0.0,0.0,0.0,46.708900451660156,0.5414494872093201,0.8741608262062073,0.0,0.0,0.0,0.0,0.0,0.0,0.0,0.0,0.0,0.001863754470832646,-0.004628792405128479,0.028487520292401314,0.0,0.0,0.0,0.0,0.0,0.0,0.0,0.0,0.0
1606991132854652186,4148213,1606987530782079519,imu_link,0.00513121671974659,0.007363245356827974,0.3963700234889984,0.9180470108985901,0.0,0.0,0.0,0.0,0.0,0.0,0.0,0.0,0.0,46.70901870727539,0.5415614247322083,0.8743225336074829,0.0,0.0,0.0,0.0,0.0,0.0,0.0,0.0,0.0,0.007035812363028526,0.002491770312190056,0.04492231085896492,0.0,0.0,0.0,0.0,0.0,0.0,0.0,0.0,0.0
1606991132854684014,4148214,1606987530782147705,imu_link,0.00513121671974659,0.007363245356827974,0.3963700234889984,0.9180470108985901,0.0,0.0,0.0,0.0,0.0,0.0,0.0,0.0,0.0,46.70901870727539,0.5415614247322083,0.8743225336074829,0.0,0.0,0.0,0.0,0.0,0.0,0.0,0.0,0.0,0.007035812363028526,0.002491770312190056,0.04492231085896492,0.0,0.0,0.0,0.0,0.0,0.0,0.0,0.0,0.0
1606991132854743211,4148215,1606987530782225513,imu_link,0.005130572710186243,0.007364756427705288,0.39636924862861633,0.9180473685264587,0.0,0.0,0.0,0.0,0.0,0.0,0.0,0.0,0.0,46.70891571044922,0.5417503714561462,0.8743229508399963,0.0,0.0,0.0,0.0,0.0,0.0,0.0,0.0,0.0,0.009021557867527008,-0.002884180285036564,0.055697448551654816,0.0,0.0,0.0,0.0,0.0,0.0,0.0,0.0,0.0
1606991132854758159,4148216,1606987530782289842,imu_link,0.005130572710186243,0.007364756427705288,0.39636924862861633,0.9180473685264587,0.0,0.0,0.0,0.0,0.0,0.0,0.0,0.0,0.0,46.70891571044922,0.5417503714561462,0.8743229508399963,0.0,0.0,0.0,0.0,0.0,0.0,0.0,0.0,0.0,0.009021557867527008,-0.002884180285036564,0.055697448551654816,0.0,0.0,0.0,0.0,0.0,0.0,0.0,0.0,0.0
1606991132854787103,4148217,1606987530782402246,imu_link,0.0051324511878192425,0.007365517318248749,0.3963726758956909,0.9180458784103394,0.0,0.0,0.0,0.0,0.0,0.0,0.0,0.0,0.0,46.70934295654297,0.5417418479919434,0.8745572566986084,0.0,0.0,0.0,0.0,0.0,0.0,0.0,0.0,0.0,-0.003324751043692231,-0.0009235016768798232,0.049464400857686996,0.0,0.0,0.0,0.0,0.0,0.0,0.0,0.0,0.0
1606991132891866323,4148218,1606987530782469048,imu_link,0.0051324511878192425,0.007365517318248749,0.3963726758956909,0.9180458784103394,0.0,0.0,0.0,0.0,0.0,0.0,0.0,0.0,0.0,46.70934295654297,0.5417418479919434,0.8745572566986084,0.0,0.0,0.0,0.0,0.0,0.0,0.0,0.0,0.0,-0.003324751043692231,-0.0009235016768798232,0.049464400857686996,0.0,0.0,0.0,0.0,0.0,0.0,0.0,0.0,0.0
1606991132891906696,4148219,1606987530782543212,imu_link,0.005132431164383888,0.007365312427282333,0.3963714838027954,0.9180464148521423,0.0,0.0,0.0,0.0,0.0,0.0,0.0,0.0,0.0,46.70919418334961,0.5417223572731018,0.8745450973510742,0.0,0.0,0.0,0.0,0.0,0.0,0.0,0.0,0.0,-0.0011679140152409673,-0.0061597516760230064,0.03274587541818619,0.0,0.0,0.0,0.0,0.0,0.0,0.0,0.0,0.0
1606991132891917621,4148220,1606987530782606414,imu_link,0.005132431164383888,0.007365312427282333,0.3963714838027954,0.9180464148521423,0.0,0.0,0.0,0.0,0.0,0.0,0.0,0.0,0.0,46.70919418334961,0.5417223572731018,0.8745450973510742,0.0,0.0,0.0,0.0,0.0,0.0,0.0,0.0,0.0,-0.0011679140152409673,-0.0061597516760230064,0.03274587541818619,0.0,0.0,0.0,0.0,0.0,0.0,0.0,0.0,0.0
1606991132891938217,4148221,1606987530782709401,imu_link,0.005132043734192848,0.0073647028766572475,0.39637303352355957,0.918045699596405,0.0,0.0,0.0,0.0,0.0,0.0,0.0,0.0,0.0,46.70939254760742,0.5416742563247681,0.8744775652885437,0.0,0.0,0.0,0.0,0.0,0.0,0.0,0.0,0.0,-0.00457433657720685,-0.019480353221297264,0.02872299589216709,0.0,0.0,0.0,0.0,0.0,0.0,0.0,0.0,0.0
1606991132956098679,4148222,1606987530782774066,imu_link,0.005132043734192848,0.0073647028766572475,0.39637303352355957,0.918045699596405,0.0,0.0,0.0,0.0,0.0,0.0,0.0,0.0,0.0,46.70939254760742,0.5416742563247681,0.8744775652885437,0.0,0.0,0.0,0.0,0.0,0.0,0.0,0.0,0.0,-0.00457433657720685,-0.019480353221297264,0.02872299589216709,0.0,0.0,0.0,0.0,0.0,0.0,0.0,0.0,0.0
1606991132956112958,4148223,1606987530794922380,imu_link,0.005133305676281452,0.00736388610675931,0.39637282490730286,0.9180458188056946,0.0,0.0,0.0,0.0,0.0,0.0,0.0,0.0,0.0,46.70935821533203,0.5415313243865967,0.8745731711387634,0.0,0.0,0.0,0.0,0.0,0.0,0.0,0.0,0.0,0.00702284649014473,-0.019645104184746742,0.02951335534453392,0.0,0.0,0.0,0.0,0.0,0.0,0.0,0.0,0.0
1606991132956120327,4148224,1606987530795060532,imu_link,0.005133305676281452,0.00736388610675931,0.39637282490730286,0.9180458188056946,0.0,0.0,0.0,0.0,0.0,0.0,0.0,0.0,0.0,46.70935821533203,0.5415313243865967,0.8745731711387634,0.0,0.0,0.0,0.0,0.0,0.0,0.0,0.0,0.0,0.00702284649014473,-0.019645104184746742,0.02951335534453392,0.0,0.0,0.0,0.0,0.0,0.0,0.0,0.0,0.0
1606991132956126405,4148225,1606987530795139537,imu_link,0.00513438368216157,0.007366986945271492,0.39637279510498047,0.9180458188056946,0.0,0.0,0.0,0.0,0.0,0.0,0.0,0.0,0.0,46.70935821533203,0.5418084859848022,0.8748274445533752,0.0,0.0,0.0,0.0,0.0,0.0,0.0,0.0,0.0,0.019554972648620605,-0.003244403749704361,0.048056576400995255,0.0,0.0,0.0,0.0,0.0,0.0,0.0,0.0,0.0
1606991132956131003,4148226,1606987530795215134,imu_link,0.00513438368216157,0.007366986945271492,0.39637279510498047,0.9180458188056946,0.0,0.0,0.0,0.0,0.0,0.0,0.0,0.0,0.0,46.70935821533203,0.5418084859848022,0.8748274445533752,0.0,0.0,0.0,0.0,0.0,0.0,0.0,0.0,0.0,0.019554972648620605,-0.003244403749704361,0.048056576400995255,0.0,0.0,0.0,0.0,0.0,0.0,0.0,0.0,0.0
1606991132963955927,4148227,1606987530795287457,imu_link,0.005134622100740671,0.0073659117333590984,0.396372526884079,0.9180459380149841,0.0,0.0,0.0,0.0,0.0,0.0,0.0,0.0,0.0,46.70932388305664,0.5416848063468933,0.8748034238815308,0.0,0.0,0.0,0.0,0.0,0.0,0.0,0.0,0.0,0.01030760258436203,0.022358981892466545,0.06092124804854393,0.0,0.0,0.0,0.0,0.0,0.0,0.0,0.0,0.0
1606991132963982472,4148228,1606987530795375594,imu_link,0.005134622100740671,0.0073659117333590984,0.396372526884079,0.9180459380149841,0.0,0.0,0.0,0.0,0.0,0.0,0.0,0.0,0.0,46.70932388305664,0.5416848063468933,0.8748034238815308,0.0,0.0,0.0,0.0,0.0,0.0,0.0,0.0,0.0,0.01030760258436203,0.022358981892466545,0.06092124804854393,0.0,0.0,0.0,0.0,0.0,0.0,0.0,0.0,0.0
1606991132963996594,4148229,1606987530795449820,imu_link,0.0051302737556397915,0.007368601858615875,0.39636990427970886,0.9180470705032349,0.0,0.0,0.0,0.0,0.0,0.0,0.0,0.0,0.0,46.70899963378906,0.5421679615974426,0.874466598033905,0.0,0.0,0.0,0.0,0.0,0.0,0.0,0.0,0.0,0.005488723516464233,0.007582252379506826,0.056957975029945374,0.0,0.0,0.0,0.0,0.0,0.0,0.0,0.0,0.0
1606991132964002764,4148230,1606987530795521563,imu_link,0.0051302737556397915,0.007368601858615875,0.39636990427970886,0.9180470705032349,0.0,0.0,0.0,0.0,0.0,0.0,0.0,0.0,0.0,46.70899963378906,0.5421679615974426,0.874466598033905,0.0,0.0,0.0,0.0,0.0,0.0,0.0,0.0,0.0,0.005488723516464233,0.007582252379506826,0.056957975029945374,0.0,0.0,0.0,0.0,0.0,0.0,0.0,0.0,0.0
1606991132971392018,4148231,1606987530795595116,imu_link,0.0051295519806444645,0.007367266342043877,0.39636972546577454,0.9180471301078796,0.0,0.0,0.0,0.0,0.0,0.0,0.0,0.0,0.0,46.708980560302734,0.542060375213623,0.8743299841880798,0.0,0.0,0.0,0.0,0.0,0.0,0.0,0.0,0.0,0.00767839141190052,-0.021372603252530098,0.057888906449079514,0.0,0.0,0.0,0.0,0.0,0.0,0.0,0.0,0.0
1606991132971413017,4148232,1606987530795666868,imu_link,0.0051295519806444645,0.007367266342043877,0.39636972546577454,0.9180471301078796,0.0,0.0,0.0,0.0,0.0,0.0,0.0,0.0,0.0,46.708980560302734,0.542060375213623,0.8743299841880798,0.0,0.0,0.0,0.0,0.0,0.0,0.0,0.0,0.0,0.00767839141190052,-0.021372603252530098,0.057888906449079514,0.0,0.0,0.0,0.0,0.0,0.0,0.0,0.0,0.0
1606991132971445642,4148233,1606987530808372246,imu_link,0.005131330341100693,0.0073706237599253654,0.3963659405708313,0.9180487394332886,0.0,0.0,0.0,0.0,0.0,0.0,0.0,0.0,0.0,46.70851135253906,0.5423363447189331,0.8746673464775085,0.0,0.0,0.0,0.0,0.0,0.0,0.0,0.0,0.0,0.011866068467497826,-0.010252458043396473,0.057469941675662994,0.0,0.0,0.0,0.0,0.0,0.0,0.0,0.0,0.0
1606991132971457333,4148234,1606987530808489437,imu_link,0.005131330341100693,0.0073706237599253654,0.3963659405708313,0.9180487394332886,0.0,0.0,0.0,0.0,0.0,0.0,0.0,0.0,0.0,46.70851135253906,0.5423363447189331,0.8746673464775085,0.0,0.0,0.0,0.0,0.0,0.0,0.0,0.0,0.0,0.011866068467497826,-0.010252458043396473,0.057469941675662994,0.0,0.0,0.0,0.0,0.0,0.0,0.0,0.0,0.0
