%time,field.header.seq,field.header.stamp,field.header.frame_id,field.orientation.x,field.orientation.y,field.orientation.z,field.orientation.w,field.orientation_covariance0,field.orientation_covariance1,field.orientation_covariance2,field.orientation_covariance3,field.orientation_covariance4,field.orientation_covariance5,field.orientation_covariance6,field.orientation_covariance7,field.orientation_covariance8,field.angular_velocity.x,field.angular_velocity.y,field.angular_velocity.z,field.angular_velocity_covariance0,field.angular_velocity_covariance1,field.angular_velocity_covariance2,field.angular_velocity_covariance3,field.angular_velocity_covariance4,field.angular_velocity_covariance5,field.angular_velocity_covariance6,field.angular_velocity_covariance7,field.angular_velocity_covariance8,field.linear_acceleration.x,field.linear_acceleration.y,field.linear_acceleration.z,field.linear_acceleration_covariance0,field.linear_acceleration_covariance1,field.linear_acceleration_covariance2,field.linear_acceleration_covariance3,field.linear_acceleration_covariance4,field.linear_acceleration_covariance5,field.linear_acceleration_covariance6,field.linear_acceleration_covariance7,field.linear_acceleration_covariance8
1606990795323423041,3879281,1606987194614007673,imu_link,-0.004888792522251606,0.004864068236202002,-0.3209703266620636,0.9470641613006592,0.0,0.0,0.0,0.0,0.0,0.0,0.0,0.0,0.0,-37.44630813598633,0.3480656147003174,-0.7094929218292236,0.0,0.0,0.0,0.0,0.0,0.0,0.0,0.0,0.0,0.007033179514110088,-0.013437008485198021,0.05926632881164551,0.0,0.0,0.0,0.0,0.0,0.0,0.0,0.0,0.0
1606990795323438112,3879282,1606987194614144174,imu_link,-0.004888792522251606,0.004864068236202002,-0.3209703266620636,0.9470641613006592,0.0,0.0,0.0,0.0,0.0,0.0,0.0,0.0,0.0,-37.44630813598633,0.3480656147003174,-0.7094929218292236,0.0,0.0,0.0,0.0,0.0,0.0,0.0,0.0,0.0,0.007033179514110088,-0.013437008485198021,0.05926632881164551,0.0,0.0,0.0,0.0,0.0,0.0,0.0,0.0,0.0
1606990795323444873,3879283,1606987194614322677,imu_link,-0.004887979011982679,0.004864464979618788,-0.3209697902202606,0.9470643401145935,0.0,0.0,0.0,0.0,0.0,0.0,0.0,0.0,0.0,-37.44624328613281,0.34813904762268066,-0.7094190716743469,0.0,0.0,0.0,0.0,0.0,0.0,0.0,0.0,0.0,0.019940048456192017,0.007260065525770187,0.05792911350727081,0.0,0.0,0.0,0.0,0.0,0.0,0.0,0.0,0.0
1606990795323450253,3879284,1606987194614415497,imu_link,-0.004887979011982679,0.004864464979618788,-0.3209697902202606,0.9470643401145935,0.0,0.0,0.0,0.0,0.0,0.0,0.0,0.0,0.0,-37.44624328613281,0.34813904762268066,-0.7094190716743469,0.0,0.0,0.0,0.0,0.0,0.0,0.0,0.0,0.0,0.019940048456192017,0.007260065525770187,0.05792911350727081,0.0,0.0,0.0,0.0,0.0,0.0,0.0,0.0,0.0
1606990795334592988,3879285,1606987194614500163,imu_link,-0.004889149218797684,0.004869281314313412,-0.32097890973091125,0.9470612406730652,0.0,0.0,0.0,0.0,0.0,0.0,0.0,0.0,0.0,-37.44735336303711,0.34861186146736145,-0.7097265720367432,0.0,0.0,0.0,0.0,0.0,0.0,0.0,0.0,0.0,0.019585013389587402,0.005039341747760773,0.05689724534749985,0.0,0.0,0.0,0.0,0.0,0.0,0.0,0.0,0.0
1606990795334618399,3879286,1606987194614577517,imu_link,-0.004889149218797684,0.004869281314313412,-0.32097890973091125,0.9470612406730652,0.0,0.0,0.0,0.0,0.0,0.0,0.0,0.0,0.0,-37.44735336303711,0.34861186146736145,-0.7097265720367432,0.0,0.0,0.0,0.0,0.0,0.0,0.0,0.0,0.0,0.019585013389587402,0.005039341747760773,0.05689724534749985,0.0,0.0,0.0,0.0,0.0,0.0,0.0,0.0,0.0
1606990795334631087,3879287,1606987194614682279,imu_link,-0.00488848565146327,0.004868155345320702,-0.3209783136844635,0.9470614194869995,0.0,0.0,0.0,0.0,0.0,0.0,0.0,0.0,0.0,-37.44728088378906,0.34851452708244324,-0.7096129655838013,0.0,0.0,0.0,0.0,0.0,0.0,0.0,0.0,0.0,0.011878054589033127,-0.009909099899232388,0.04833593964576721,0.0,0.0,0.0,0.0,0.0,0.0,0.0,0.0,0.0
1606990795334648858,3879288,1606987194614770293,imu_link,-0.00488848565146327,0.004868155345320702,-0.3209783136844635,0.9470614194869995,0.0,0.0,0.0,0.0,0.0,0.0,0.0,0.0,0.0,-37.44728088378906,0.34851452708244324,-0.7096129655838013,0.0,0.0,0.0,0.0,0.0,0.0,0.0,0.0,0.0,0.011878054589033127,-0.009909099899232388,0.04833593964576721,0.0,0.0,0.0,0.0,0.0,0.0,0.0,0.0,0.0
1606990795415363233,3879289,1606987194614853385,imu_link,-0.004884915426373482,0.004870116710662842,-0.3209867477416992,0.9470586180686951,0.0,0.0,0.0,0.0,0.0,0.0,0.0,0.0,0.0,-37.44829559326172,0.3488524258136749,-0.7093006372451782,0.0,0.0,0.0,0.0,0.0,0.0,0.0,0.0,0.0,0.008028734475374222,-0.007316125091165304,0.0638224259018898,0.0,0.0,0.0,0.0,0.0,0.0,0.0,0.0,0.0
1606990795415386573,3879290,1606987194614969424,imu_link,-0.004884915426373482,0.004870116710662842,-0.3209867477416992,0.9470586180686951,0.0,0.0,0.0,0.0,0.0,0.0,0.0,0.0,0.0,-37.44829559326172,0.3488524258136749,-0.7093006372451782,0.0,0.0,0.0,0.0,0.0,0.0,0.0,0.0,0.0,0.008028734475374222,-0.007316125091165304,0.0638224259018898,0.0,0.0,0.0,0.0,0.0,0.0,0.0,0.0,0.0
1606990795415406924,3879291,1606987194615112144,imu_link,-0.004884546156972647,0.0048693399876356125,-0.320984810590744,0.9470592737197876,0.0,0.0,0.0,0.0,0.0,0.0,0.0,0.0,0.0,-37.44806671142578,0.34878313541412354,-0.7092313170433044,0.0,0.0,0.0,0.0,0.0,0.0,0.0,0.0,0.0,0.0029755830764770508,0.005171130411326885,0.08097190409898758,0.0,0.0,0.0,0.0,0.0,0.0,0.0,0.0,0.0
1606990795415418918,3879292,1606987194627892111,imu_link,-0.004884546156972647,0.0048693399876356125,-0.320984810590744,0.9470592737197876,0.0,0.0,0.0,0.0,0.0,0.0,0.0,0.0,0.0,-37.44806671142578,0.34878313541412354,-0.7092313170433044,0.0,0.0,0.0,0.0,0.0,0.0,0.0,0.0,0.0,0.0029755830764770508,0.005171130411326885,0.08097190409898758,0.0,0.0,0.0,0.0,0.0,0.0,0.0,0.0,0.0
1606990795415431584,3879293,1606987194628029163,imu_link,-0.004887400195002556,0.004870597273111343,-0.32098129391670227,0.9470604658126831,0.0,0.0,0.0,0.0,0.0,0.0,0.0,0.0,0.0,-37.44763946533203,0.34881722927093506,-0.709585964679718,0.0,0.0,0.0,0.0,0.0,0.0,0.0,0.0,0.0,-0.016064202412962914,0.001971960999071598,0.08707787096500397,0.0,0.0,0.0,0.0,0.0,0.0,0.0,0.0,0.0
1606990795422631647,3879294,1606987194628213154,imu_link,-0.004887400195002556,0.004870597273111343,-0.32098129391670227,0.9470604658126831,0.0,0.0,0.0,0.0,0.0,0.0,0.0,0.0,0.0,-37.44763946533203,0.34881722927093506,-0.709585964679718,0.0,0.0,0.0,0.0,0.0,0.0,0.0,0.0,0.0,-0.016064202412962914,0.001971960999071598,0.08707787096500397,0.0,0.0,0.0,0.0,0.0,0.0,0.0,0.0,0.0
1606990795422656444,3879295,1606987194628299754,imu_link,-0.004888794384896755,0.004867884796112776,-0.320982426404953,0.9470601081848145,0.0,0.0,0.0,0.0,0.0,0.0,0.0,0.0,0.0,-37.447776794433594,0.3484707772731781,-0.7096379399299622,0.0,0.0,0.0,0.0,0.0,0.0,0.0,0.0,0.0,-0.007770462892949581,-0.001128715230152011,0.06519822776317596,0.0,0.0,0.0,0.0,0.0,0.0,0.0,0.0,0.0
1606990795422691187,3879296,1606987194628388349,imu_link,-0.004888794384896755,0.004867884796112776,-0.320982426404953,0.9470601081848145,0.0,0.0,0.0,0.0,0.0,0.0,0.0,0.0,0.0,-37.447776794433594,0.3484707772731781,-0.7096379399299622,0.0,0.0,0.0,0.0,0.0,0.0,0.0,0.0,0.0,-0.007770462892949581,-0.001128715230152011,0.06519822776317596,0.0,0.0,0.0,0.0,0.0,0.0,0.0,0.0,0.0
1606990795422721096,3879297,1606987194628507420,imu_link,-0.004888770170509815,0.004866516683250666,-0.3209763169288635,0.9470621347427368,0.0,0.0,0.0,0.0,0.0,0.0,0.0,0.0,0.0,-37.4470329284668,0.34832772612571716,-0.7095826864242554,0.0,0.0,0.0,0.0,0.0,0.0,0.0,0.0,0.0,0.00044274955871514976,-0.010656657628715038,0.05098966136574745,0.0,0.0,0.0,0.0,0.0,0.0,0.0,0.0,0.0
1606990795441821084,3879298,1606987194628601778,imu_link,-0.004888770170509815,0.004866516683250666,-0.3209763169288635,0.9470621347427368,0.0,0.0,0.0,0.0,0.0,0.0,0.0,0.0,0.0,-37.4470329284668,0.34832772612571716,-0.7095826864242554,0.0,0.0,0.0,0.0,0.0,0.0,0.0,0.0,0.0,0.00044274955871514976,-0.010656657628715038,0.05098966136574745,0.0,0.0,0.0,0.0,0.0,0.0,0.0,0.0,0.0
1606990795441848487,3879299,1606987194628755289,imu_link,-0.004888318944722414,0.0048651001416146755,-0.32097604870796204,0.9470621943473816,0.0,0.0,0.0,0.0,0.0,0.0,0.0,0.0,0.0,-37.44700241088867,0.3481907546520233,-0.7094815969467163,0.0,0.0,0.0,0.0,0.0,0.0,0.0,0.0,0.0,-0.018704377114772797,-0.01327747106552124,0.05311653017997742,0.0,0.0,0.0,0.0,0.0,0.0,0.0,0.0,0.0
1606990795441858367,3879300,1606987194628843067,imu_link,-0.004888318944722414,0.0048651001416146755,-0.32097604870796204,0.9470621943473816,0.0,0.0,0.0,0.0,0.0,0.0,0.0,0.0,0.0,-37.44700241088867,0.3481907546520233,-0.7094815969467163,0.0,0.0,0.0,0.0,0.0,0.0,0.0,0.0,0.0,-0.018704377114772797,-0.01327747106552124,0.05311653017997742,0.0,0.0,0.0,0.0,0.0,0.0,0.0,0.0,0.0
1606990795441868348,3879301,1606987194628928098,imu_link,-0.0048866281285882,0.004861962981522083,-0.3209758698940277,0.9470623135566711,0.0,0.0,0.0,0.0,0.0,0.0,0.0,0.0,0.0,-37.44697570800781,0.34791263937950134,-0.7091825604438782,0.0,0.0,0.0,0.0,0.0,0.0,0.0,0.0,0.0,-0.024185268208384514,0.012317296117544174,0.04634903371334076,0.0,0.0,0.0,0.0,0.0,0.0,0.0,0.0,0.0
1606990795441899813,3879302,1606987194629012940,imu_link,-0.0048866281285882,0.004861962981522083,-0.3209758698940277,0.9470623135566711,0.0,0.0,0.0,0.0,0.0,0.0,0.0,0.0,0.0,-37.44697570800781,0.34791263937950134,-0.7091825604438782,0.0,0.0,0.0,0.0,0.0,0.0,0.0,0.0,0.0,-0.024185268208384514,0.012317296117544174,0.04634903371334076,0.0,0.0,0.0,0.0,0.0,0.0,0.0,0.0,0.0
1606990795451143231,3879303,1606987194640793669,imu_link,-0.00488642044365406,0.004859914071857929,-0.3209761381149292,0.9470622539520264,0.0,0.0,0.0,0.0,0.0,0.0,0.0,0.0,0.0,-37.44700241088867,0.34769776463508606,-0.7090847492218018,0.0,0.0,0.0,0.0,0.0,0.0,0.0,0.0,0.0,-0.023460298776626587,0.023195510730147362,0.05191696807742119,0.0,0.0,0.0,0.0,0.0,0.0,0.0,0.0,0.0
1606990795451179392,3879304,1606987194640938875,imu_link,-0.00488642044365406,0.004859914071857929,-0.3209761381149292,0.9470622539520264,0.0,0.0,0.0,0.0,0.0,0.0,0.0,0.0,0.0,-37.44700241088867,0.34769776463508606,-0.7090847492218018,0.0,0.0,0.0,0.0,0.0,0.0,0.0,0.0,0.0,-0.023460298776626587,0.023195510730147362,0.05191696807742119,0.0,0.0,0.0,0.0,0.0,0.0,0.0,0.0,0.0
1606990795451197374,3879305,1606987194641092190,imu_link,-0.004891939926892519,0.004857663530856371,-0.32097336649894714,0.9470632076263428,0.0,0.0,0.0,0.0,0.0,0.0,0.0,0.0,0.0,-37.4466667175293,0.3472525477409363,-0.7095999717712402,0.0,0.0,0.0,0.0,0.0,0.0,0.0,0.0,0.0,-0.009189050644636154,0.010935833677649498,0.050619762390851974,0.0,0.0,0.0,0.0,0.0,0.0,0.0,0.0,0.0
1606990795477784560,3879306,1606987194641173879,imu_link,-0.004891939926892519,0.004857663530856371,-0.32097336649894714,0.9470632076263428,0.0,0.0,0.0,0.0,0.0,0.0,0.0,0.0,0.0,-37.4466667175293,0.3472525477409363,-0.7095999717712402,0.0,0.0,0.0,0.0,0.0,0.0,0.0,0.0,0.0,-0.009189050644636154,0.010935833677649498,0.050619762390851974,0.0,0.0,0.0,0.0,0.0,0.0,0.0,0.0,0.0
1606990795477838385,3879307,1606987194641264073,imu_link,-0.004892965313047171,0.004859042353928089,-0.3209719955921173,0.9470636248588562,0.0,0.0,0.0,0.0,0.0,0.0,0.0,0.0,0.0,-37.44650650024414,0.34736549854278564,-0.7097615003585815,0.0,0.0,0.0,0.0,0.0,0.0,0.0,0.0,0.0,-0.004229324869811535,-0.010042112320661545,0.046823836863040924,0.0,0.0,0.0,0.0,0.0,0.0,0.0,0.0,0.0
1606990795477850064,3879308,1606987194641364876,imu_link,-0.004892965313047171,0.004859042353928089,-0.3209719955921173,0.9470636248588562,0.0,0.0,0.0,0.0,0.0,0.0,0.0,0.0,0.0,-37.44650650024414,0.34736549854278564,-0.7097615003585815,0.0,0.0,0.0,0.0,0.0,0.0,0.0,0.0,0.0,-0.004229324869811535,-0.010042112320661545,0.046823836863040924,0.0,0.0,0.0,0.0,0.0,0.0,0.0,0.0,0.0
1606990795477884429,3879309,1606987194641446750,imu_link,-0.004891726188361645,0.00485955597832799,-0.32096827030181885,0.9470648765563965,0.0,0.0,0.0,0.0,0.0,0.0,0.0,0.0,0.0,-37.4460563659668,0.34746962785720825,-0.7096445560455322,0.0,0.0,0.0,0.0,0.0,0.0,0.0,0.0,0.0,-0.015542619861662388,-0.02429121360182762,0.0427217110991478,0.0,0.0,0.0,0.0,0.0,0.0,0.0,0.0,0.0
1606990795484219520,3879310,1606987194641518697,imu_link,-0.004891726188361645,0.00485955597832799,-0.32096827030181885,0.9470648765563965,0.0,0.0,0.0,0.0,0.0,0.0,0.0,0.0,0.0,-37.4460563659668,0.34746962785720825,-0.7096445560455322,0.0,0.0,0.0,0.0,0.0,0.0,0.0,0.0,0.0,-0.015542619861662388,-0.02429121360182762,0.0427217110991478,0.0,0.0,0.0,0.0,0.0,0.0,0.0,0.0,0.0
1606990795484243232,3879311,1606987194641598231,imu_link,-0.004891652148216963,0.004858395084738731,-0.32096827030181885,0.9470648765563965,0.0,0.0,0.0,0.0,0.0,0.0,0.0,0.0,0.0,-37.44605255126953,0.34734636545181274,-0.7095938324928284,0.0,0.0,0.0,0.0,0.0,0.0,0.0,0.0,0.0,-0.002735658548772335,-0.009076766669750214,0.04485436901450157,0.0,0.0,0.0,0.0,0.0,0.0,0.0,0.0,0.0
1606990795484259137,3879312,1606987194641682436,imu_link,-0.004891652148216963,0.004858395084738731,-0.32096827030181885,0.9470648765563965,0.0,0.0,0.0,0.0,0.0,0.0,0.0,0.0,0.0,-37.44605255126953,0.34734636545181274,-0.7095938324928284,0.0,0.0,0.0,0.0,0.0,0.0,0.0,0.0,0.0,-0.002735658548772335,-0.009076766669750214,0.04485436901450157,0.0,0.0,0.0,0.0,0.0,0.0,0.0,0.0,0.0
1606990795484283037,3879313,1606987194654209262,imu_link,-0.0048879762180149555,0.004858078435063362,-0.32096344232559204,0.9470665454864502,0.0,0.0,0.0,0.0,0.0,0.0,0.0,0.0,0.0,-37.44546890258789,0.34745079278945923,-0.7091813683509827,0.0,0.0,0.0,0.0,0.0,0.0,0.0,0.0,0.0,0.002478415844962001,-0.006744779646396637,0.05160843953490257,0.0,0.0,0.0,0.0,0.0,0.0,0.0,0.0,0.0
1606990795507731832,3879314,1606987194654348664,imu_link,-0.0048879762180149555,0.004858078435063362,-0.32096344232559204,0.9470665454864502,0.0,0.0,0.0,0.0,0.0,0.0,0.0,0.0,0.0,-37.44546890258789,0.34745079278945923,-0.7091813683509827,0.0,0.0,0.0,0.0,0.0,0.0,0.0,0.0,0.0,0.002478415844962001,-0.006744779646396637,0.05160843953490257,0.0,0.0,0.0,0.0,0.0,0.0,0.0,0.0,0.0
1606990795507774298,3879315,1606987194654530791,imu_link,-0.004886227659881115,0.004857884254306555,-0.3209640681743622,0.9470663666725159,0.0,0.0,0.0,0.0,0.0,0.0,0.0,0.0,0.0,-37.44554138183594,0.34749358892440796,-0.7089846730232239,0.0,0.0,0.0,0.0,0.0,0.0,0.0,0.0,0.0,-0.0035882152151316404,-0.02878565341234207,0.05416497960686684,0.0,0.0,0.0,0.0,0.0,0.0,0.0,0.0,0.0
1606990795507789320,3879316,1606987194654631459,imu_link,-0.004886227659881115,0.004857884254306555,-0.3209640681743622,0.9470663666725159,0.0,0.0,0.0,0.0,0.0,0.0,0.0,0.0,0.0,-37.44554138183594,0.34749358892440796,-0.7089846730232239,0.0,0.0,0.0,0.0,0.0,0.0,0.0,0.0,0.0,-0.0035882152151316404,-0.02878565341234207,0.05416497960686684,0.0,0.0,0.0,0.0,0.0,0.0,0.0,0.0,0.0
1606990795507820212,3879317,1606987194654710507,imu_link,-0.0048811957240104675,0.004855591803789139,-0.3209647834300995,0.9470661282539368,0.0,0.0,0.0,0.0,0.0,0.0,0.0,0.0,0.0,-37.44562530517578,0.3474293351173401,-0.7083545327186584,0.0,0.0,0.0,0.0,0.0,0.0,0.0,0.0,0.0,0.011511776596307755,-0.011353673413395882,0.0641883835196495,0.0,0.0,0.0,0.0,0.0,0.0,0.0,0.0,0.0
1606990795507858443,3879318,1606987194654792131,imu_link,-0.0048811957240104675,0.004855591803789139,-0.3209647834300995,0.9470661282539368,0.0,0.0,0.0,0.0,0.0,0.0,0.0,0.0,0.0,-37.44562530517578,0.3474293351173401,-0.7083545327186584,0.0,0.0,0.0,0.0,0.0,0.0,0.0,0.0,0.0,0.011511776596307755,-0.011353673413395882,0.0641883835196495,0.0,0.0,0.0,0.0,0.0,0.0,0.0,0.0,0.0
1606990795513895177,3879319,1606987194654900902,imu_link,-0.0048803361132740974,0.004855722654610872,-0.3209646940231323,0.9470661282539368,0.0,0.0,0.0,0.0,0.0,0.0,0.0,0.0,0.0,-37.445613861083984,0.34747523069381714,-0.7082660794258118,0.0,0.0,0.0,0.0,0.0,0.0,0.0,0.0,0.0,0.00934702716767788,0.00816074013710022,0.06348945945501328,0.0,0.0,0.0,0.0,0.0,0.0,0.0,0.0,0.0
1606990795513937281,3879320,1606987194655057976,imu_link,-0.0048803361132740974,0.004855722654610872,-0.3209646940231323,0.9470661282539368,0.0,0.0,0.0,0.0,0.0,0.0,0.0,0.0,0.0,-37.445613861083984,0.34747523069381714,-0.7082660794258118,0.0,0.0,0.0,0.0,0.0,0.0,0.0,0.0,0.0,0.00934702716767788,0.00816074013710022,0.06348945945501328,0.0,0.0,0.0,0.0,0.0,0.0,0.0,0.0,0.0
1606990795513953389,3879321,1606987194655146827,imu_link,-0.004881283268332481,0.004857477732002735,-0.32096463441848755,0.9470661282539368,0.0,0.0,0.0,0.0,0.0,0.0,0.0,0.0,0.0,-37.445613861083984,0.34763088822364807,-0.7084333896636963,0.0,0.0,0.0,0.0,0.0,0.0,0.0,0.0,0.0,0.001017148606479168,0.007777533493936062,0.05686183646321297,0.0,0.0,0.0,0.0,0.0,0.0,0.0,0.0,0.0
1606990795513974110,3879322,1606987194655226110,imu_link,-0.004881283268332481,0.004857477732002735,-0.32096463441848755,0.9470661282539368,0.0,0.0,0.0,0.0,0.0,0.0,0.0,0.0,0.0,-37.445613861083984,0.34763088822364807,-0.7084333896636963,0.0,0.0,0.0,0.0,0.0,0.0,0.0,0.0,0.0,0.001017148606479168,0.007777533493936062,0.05686183646321297,0.0,0.0,0.0,0.0,0.0,0.0,0.0,0.0,0.0
1606990795577367726,3879323,1606987194655310059,imu_link,-0.0048810988664627075,0.004857824649661779,-0.32096341252326965,0.9470665454864502,0.0,0.0,0.0,0.0,0.0,0.0,0.0,0.0,0.0,-37.445465087890625,0.34767624735832214,-0.7084257006645203,0.0,0.0,0.0,0.0,0.0,0.0,0.0,0.0,0.0,0.006210763473063707,0.010128695517778397,0.05494336411356926,0.0,0.0,0.0,0.0,0.0,0.0,0.0,0.0,0.0
1606990795577421273,3879324,1606987194667997948,imu_link,-0.0048810988664627075,0.004857824649661779,-0.32096341252326965,0.9470665454864502,0.0,0.0,0.0,0.0,0.0,0.0,0.0,0.0,0.0,-37.445465087890625,0.34767624735832214,-0.7084257006645203,0.0,0.0,0.0,0.0,0.0,0.0,0.0,0.0,0.0,0.006210763473063707,0.010128695517778397,0.05494336411356926,0.0,0.0,0.0,0.0,0.0,0.0,0.0,0.0,0.0
1606990795577439545,3879325,1606987194668094946,imu_link,-0.004883272107690573,0.004859560634940863,-0.32096433639526367,0.9470663070678711,0.0,0.0,0.0,0.0,0.0,0.0,0.0,0.0,0.0,-37.44557571411133,0.34778404235839844,-0.7087257504463196,0.0,0.0,0.0,0.0,0.0,0.0,0.0,0.0,0.0,0.0015566338552162051,0.0013254324439913034,0.05739671736955643,0.0,0.0,0.0,0.0,0.0,0.0,0.0,0.0,0.0
1606990795577471599,3879326,1606987194668222010,imu_link,-0.004883272107690573,0.004859560634940863,-0.32096433639526367,0.9470663070678711,0.0,0.0,0.0,0.0,0.0,0.0,0.0,0.0,0.0,-37.44557571411133,0.34778404235839844,-0.7087257504463196,0.0,0.0,0.0,0.0,0.0,0.0,0.0,0.0,0.0,0.0015566338552162051,0.0013254324439913034,0.05739671736955643,0.0,0.0,0.0,0.0,0.0,0.0,0.0,0.0,0.0
1606990795584335751,3879327,1606987194668284485,imu_link,-0.00488324323669076,0.004860186018049717,-0.3209643065929413,0.9470663070678711,0.0,0.0,0.0,0.0,0.0,0.0,0.0,0.0,0.0,-37.44557189941406,0.34785300493240356,-0.7087456583976746,0.0,0.0,0.0,0.0,0.0,0.0,0.0,0.0,0.0,0.0022290379274636507,-0.004854908213019371,0.06179273501038551,0.0,0.0,0.0,0.0,0.0,0.0,0.0,0.0,0.0
1606990795584362218,3879328,1606987194668342906,imu_link,-0.00488324323669076,0.004860186018049717,-0.3209643065929413,0.9470663070678711,0.0,0.0,0.0,0.0,0.0,0.0,0.0,0.0,0.0,-37.44557189941406,0.34785300493240356,-0.7087456583976746,0.0,0.0,0.0,0.0,0.0,0.0,0.0,0.0,0.0,0.0022290379274636507,-0.004854908213019371,0.06179273501038551,0.0,0.0,0.0,0.0,0.0,0.0,0.0,0.0,0.0
1606990795584375964,3879329,1606987194668394613,imu_link,-0.004882327746599913,0.00486038951203227,-0.32096636295318604,0.9470655918121338,0.0,0.0,0.0,0.0,0.0,0.0,0.0,0.0,0.0,-37.44581985473633,0.3479071855545044,-0.708654522895813,0.0,0.0,0.0,0.0,0.0,0.0,0.0,0.0,0.0,0.011552452109754086,0.0022434524726122618,0.0544939823448658,0.0,0.0,0.0,0.0,0.0,0.0,0.0,0.0,0.0
1606990795584382321,3879330,1606987194668464057,imu_link,-0.004882327746599913,0.00486038951203227,-0.32096636295318604,0.9470655918121338,0.0,0.0,0.0,0.0,0.0,0.0,0.0,0.0,0.0,-37.44581985473633,0.3479071855545044,-0.708654522895813,0.0,0.0,0.0,0.0,0.0,0.0,0.0,0.0,0.0,0.011552452109754086,0.0022434524726122618,0.0544939823448658,0.0,0.0,0.0,0.0,0.0,0.0,0.0,0.0,0.0
1606990795589777017,3879331,1606987194668520467,imu_link,-0.004883244633674622,0.004860061686486006,-0.3209652602672577,0.9470659494400024,0.0,0.0,0.0,0.0,0.0,0.0,0.0,0.0,0.0,-37.44568634033203,0.34783869981765747,-0.7087415456771851,0.0,0.0,0.0,0.0,0.0,0.0,0.0,0.0,0.0,0.004325922578573227,0.008116422221064568,0.058563850820064545,0.0,0.0,0.0,0.0,0.0,0.0,0.0,0.0,0.0
1606990795589800619,3879332,1606987194668573173,imu_link,-0.004883244633674622,0.004860061686486006,-0.3209652602672577,0.9470659494400024,0.0,0.0,0.0,0.0,0.0,0.0,0.0,0.0,0.0,-37.44568634033203,0.34783869981765747,-0.7087415456771851,0.0,0.0,0.0,0.0,0.0,0.0,0.0,0.0,0.0,0.004325922578573227,0.008116422221064568,0.058563850820064545,0.0,0.0,0.0,0.0,0.0,0.0,0.0,0.0,0.0
1606990795589815048,3879333,1606987194668630669,imu_link,-0.004885043017566204,0.004859311040490866,-0.320963054895401,0.947066605091095,0.0,0.0,0.0,0.0,0.0,0.0,0.0,0.0,0.0,-37.4454231262207,0.34769272804260254,-0.7089083194732666,0.0,0.0,0.0,0.0,0.0,0.0,0.0,0.0,0.0,-0.012728855013847351,0.005883967503905296,0.05250126123428345,0.0,0.0,0.0,0.0,0.0,0.0,0.0,0.0,0.0
1606990795589827994,3879334,1606987194668685483,imu_link,-0.004885043017566204,0.004859311040490866,-0.320963054895401,0.947066605091095,0.0,0.0,0.0,0.0,0.0,0.0,0.0,0.0,0.0,-37.4454231262207,0.34769272804260254,-0.7089083194732666,0.0,0.0,0.0,0.0,0.0,0.0,0.0,0.0,0.0,-0.012728855013847351,0.005883967503905296,0.05250126123428345,0.0,0.0,0.0,0.0,0.0,0.0,0.0,0.0,0.0
1606990795589854125,3879335,1606987194681523675,imu_link,-0.00488311517983675,0.004861007910221815,-0.3209603428840637,0.9470676183700562,0.0,0.0,0.0,0.0,0.0,0.0,0.0,0.0,0.0,-37.445091247558594,0.3479498326778412,-0.7087604403495789,0.0,0.0,0.0,0.0,0.0,0.0,0.0,0.0,0.0,0.001240345649421215,-0.0024179311003535986,0.03967999294400215,0.0,0.0,0.0,0.0,0.0,0.0,0.0,0.0,0.0
1606990795597444531,3879336,1606987194681650109,imu_link,-0.00488311517983675,0.004861007910221815,-0.3209603428840637,0.9470676183700562,0.0,0.0,0.0,0.0,0.0,0.0,0.0,0.0,0.0,-37.445091247558594,0.3479498326778412,-0.7087604403495789,0.0,0.0,0.0,0.0,0.0,0.0,0.0,0.0,0.0,0.001240345649421215,-0.0024179311003535986,0.03967999294400215,0.0,0.0,0.0,0.0,0.0,0.0,0.0,0.0,0.0
1606990795597469037,3879337,1606987194681823181,imu_link,-0.00488214660435915,0.004863149020820856,-0.32096004486083984,0.9470677375793457,0.0,0.0,0.0,0.0,0.0,0.0,0.0,0.0,0.0,-37.44506072998047,0.34821808338165283,-0.7087340354919434,0.0,0.0,0.0,0.0,0.0,0.0,0.0,0.0,0.0,0.007966938428580761,-0.005384503863751888,0.031220482662320137,0.0,0.0,0.0,0.0,0.0,0.0,0.0,0.0,0.0
1606990795597520583,3879338,1606987194681910058,imu_link,-0.00488214660435915,0.004863149020820856,-0.32096004486083984,0.9470677375793457,0.0,0.0,0.0,0.0,0.0,0.0,0.0,0.0,0.0,-37.44506072998047,0.34821808338165283,-0.7087340354919434,0.0,0.0,0.0,0.0,0.0,0.0,0.0,0.0,0.0,0.007966938428580761,-0.005384503863751888,0.031220482662320137,0.0,0.0,0.0,0.0,0.0,0.0,0.0,0.0,0.0
1606990795597530003,3879339,1606987194681979049,imu_link,-0.0048822322860360146,0.004864116664975882,-0.3209610879421234,0.947067379951477,0.0,0.0,0.0,0.0,0.0,0.0,0.0,0.0,0.0,-37.445186614990234,0.3483191430568695,-0.7087792754173279,0.0,0.0,0.0,0.0,0.0,0.0,0.0,0.0,0.0,-0.007053375709801912,-0.0033292281441390514,0.040360335260629654,0.0,0.0,0.0,0.0,0.0,0.0,0.0,0.0,0.0
1606990795622350289,3879340,1606987194682053305,imu_link,-0.0048822322860360146,0.004864116664975882,-0.3209610879421234,0.947067379951477,0.0,0.0,0.0,0.0,0.0,0.0,0.0,0.0,0.0,-37.445186614990234,0.3483191430568695,-0.7087792754173279,0.0,0.0,0.0,0.0,0.0,0.0,0.0,0.0,0.0,-0.007053375709801912,-0.0033292281441390514,0.040360335260629654,0.0,0.0,0.0,0.0,0.0,0.0,0.0,0.0,0.0
1606990795622363484,3879341,1606987194682143442,imu_link,-0.004880779888480902,0.004863309673964977,-0.3209628462791443,0.9470667243003845,0.0,0.0,0.0,0.0,0.0,0.0,0.0,0.0,0.0,-37.445396423339844,0.34828364849090576,-0.7085925936698914,0.0,0.0,0.0,0.0,0.0,0.0,0.0,0.0,0.0,-0.01590246893465519,-0.0004977432545274496,0.05080532282590866,0.0,0.0,0.0,0.0,0.0,0.0,0.0,0.0,0.0
1606990795622368135,3879342,1606987194682241777,imu_link,-0.004880779888480902,0.004863309673964977,-0.3209628462791443,0.9470667243003845,0.0,0.0,0.0,0.0,0.0,0.0,0.0,0.0,0.0,-37.445396423339844,0.34828364849090576,-0.7085925936698914,0.0,0.0,0.0,0.0,0.0,0.0,0.0,0.0,0.0,-0.01590246893465519,-0.0004977432545274496,0.05080532282590866,0.0,0.0,0.0,0.0,0.0,0.0,0.0,0.0,0.0
1606990795622373089,3879343,1606987194682338293,imu_link,-0.004882148001343012,0.0048629892989993095,-0.3209637999534607,0.9470663666725159,0.0,0.0,0.0,0.0,0.0,0.0,0.0,0.0,0.0,-37.445518493652344,0.3481978476047516,-0.7087297439575195,0.0,0.0,0.0,0.0,0.0,0.0,0.0,0.0,0.0,-0.007276992313563824,0.005312440916895866,0.047483690083026886,0.0,0.0,0.0,0.0,0.0,0.0,0.0,0.0,0.0
1606990795630654894,3879344,1606987194682419333,imu_link,-0.004882148001343012,0.0048629892989993095,-0.3209637999534607,0.9470663666725159,0.0,0.0,0.0,0.0,0.0,0.0,0.0,0.0,0.0,-37.445518493652344,0.3481978476047516,-0.7087297439575195,0.0,0.0,0.0,0.0,0.0,0.0,0.0,0.0,0.0,-0.007276992313563824,0.005312440916895866,0.047483690083026886,0.0,0.0,0.0,0.0,0.0,0.0,0.0,0.0,0.0
1606990795630671852,3879345,1606987194682491969,imu_link,-0.004881901666522026,0.004863289184868336,-0.3209686875343323,0.9470647573471069,0.0,0.0,0.0,0.0,0.0,0.0,0.0,0.0,0.0,-37.446109771728516,0.3482357859611511,-0.7087157964706421,0.0,0.0,0.0,0.0,0.0,0.0,0.0,0.0,0.0,0.007324748672544956,0.0036851689219474792,0.05173075571656227,0.0,0.0,0.0,0.0,0.0,0.0,0.0,0.0,0.0
1606990795630677482,3879346,1606987194695327933,imu_link,-0.004881901666522026,0.004863289184868336,-0.3209686875343323,0.9470647573471069,0.0,0.0,0.0,0.0,0.0,0.0,0.0,0.0,0.0,-37.446109771728516,0.3482357859611511,-0.7087157964706421,0.0,0.0,0.0,0.0,0.0,0.0,0.0,0.0,0.0,0.007324748672544956,0.0036851689219474792,0.05173075571656227,0.0,0.0,0.0,0.0,0.0,0.0,0.0,0.0,0.0
1606990795630735145,3879347,1606987194695454622,imu_link,-0.004881898872554302,0.004864128306508064,-0.3209691643714905,0.9470645785331726,0.0,0.0,0.0,0.0,0.0,0.0,0.0,0.0,0.0,-37.4461669921875,0.34832659363746643,-0.7087465524673462,0.0,0.0,0.0,0.0,0.0,0.0,0.0,0.0,0.0,0.0040011657401919365,0.007581246085464954,0.05908462405204773,0.0,0.0,0.0,0.0,0.0,0.0,0.0,0.0,0.0
1606990795639376770,3879348,1606987194695616580,imu_link,-0.004881898872554302,0.004864128306508064,-0.3209691643714905,0.9470645785331726,0.0,0.0,0.0,0.0,0.0,0.0,0.0,0.0,0.0,-37.4461669921875,0.34832659363746643,-0.7087465524673462,0.0,0.0,0.0,0.0,0.0,0.0,0.0,0.0,0.0,0.0040011657401919365,0.007581246085464954,0.05908462405204773,0.0,0.0,0.0,0.0,0.0,0.0,0.0,0.0,0.0
1606990795639401978,3879349,1606987194695707551,imu_link,-0.004884388297796249,0.004864358808845282,-0.32096531987190247,0.9470658898353577,0.0,0.0,0.0,0.0,0.0,0.0,0.0,0.0,0.0,-37.44570541381836,0.3482629358768463,-0.7090237736701965,0.0,0.0,0.0,0.0,0.0,0.0,0.0,0.0,0.0,-0.004956478718668222,0.0034318603575229645,0.05988780036568642,0.0,0.0,0.0,0.0,0.0,0.0,0.0,0.0,0.0
1606990795639471894,3879350,1606987194695787228,imu_link,-0.004884388297796249,0.004864358808845282,-0.32096531987190247,0.9470658898353577,0.0,0.0,0.0,0.0,0.0,0.0,0.0,0.0,0.0,-37.44570541381836,0.3482629358768463,-0.7090237736701965,0.0,0.0,0.0,0.0,0.0,0.0,0.0,0.0,0.0,-0.004956478718668222,0.0034318603575229645,0.05988780036568642,0.0,0.0,0.0,0.0,0.0,0.0,0.0,0.0,0.0
1606990795639478925,3879351,1606987194695882524,imu_link,-0.004885206930339336,0.004864113871008158,-0.32096365094184875,0.9470664262771606,0.0,0.0,0.0,0.0,0.0,0.0,0.0,0.0,0.0,-37.445499420166016,0.3482075035572052,-0.7091029286384583,0.0,0.0,0.0,0.0,0.0,0.0,0.0,0.0,0.0,-0.0021822305861860514,-0.002120712772011757,0.04598155617713928,0.0,0.0,0.0,0.0,0.0,0.0,0.0,0.0,0.0
1606990795639492648,3879352,1606987194695958139,imu_link,-0.004885206930339336,0.004864113871008158,-0.32096365094184875,0.9470664262771606,0.0,0.0,0.0,0.0,0.0,0.0,0.0,0.0,0.0,-37.445499420166016,0.3482075035572052,-0.7091029286384583,0.0,0.0,0.0,0.0,0.0,0.0,0.0,0.0,0.0,-0.0021822305861860514,-0.002120712772011757,0.04598155617713928,0.0,0.0,0.0,0.0,0.0,0.0,0.0,0.0,0.0
1606990795646044541,3879353,1606987194696026493,imu_link,-0.004885483533143997,0.004861337598413229,-0.3209589719772339,0.9470680356025696,0.0,0.0,0.0,0.0,0.0,0.0,0.0,0.0,0.0,-37.44493103027344,0.34789949655532837,-0.7090292572975159,0.0,0.0,0.0,0.0,0.0,0.0,0.0,0.0,0.0,0.0005565548199228942,0.003789113834500313,0.033628519624471664,0.0,0.0,0.0,0.0,0.0,0.0,0.0,0.0,0.0
1606990795646064963,3879354,1606987194696102513,imu_link,-0.004885483533143997,0.004861337598413229,-0.3209589719772339,0.9470680356025696,0.0,0.0,0.0,0.0,0.0,0.0,0.0,0.0,0.0,-37.44493103027344,0.34789949655532837,-0.7090292572975159,0.0,0.0,0.0,0.0,0.0,0.0,0.0,0.0,0.0,0.0005565548199228942,0.003789113834500313,0.033628519624471664,0.0,0.0,0.0,0.0,0.0,0.0,0.0,0.0,0.0
1606990795646093467,3879355,1606987194696176208,imu_link,-0.004887067712843418,0.004861334338784218,-0.3209586441516876,0.9470681548118591,0.0,0.0,0.0,0.0,0.0,0.0,0.0,0.0,0.0,-37.44489288330078,0.34784117341041565,-0.7092008590698242,0.0,0.0,0.0,0.0,0.0,0.0,0.0,0.0,0.0,0.0007541235536336899,-0.005359545350074768,0.04734417423605919,0.0,0.0,0.0,0.0,0.0,0.0,0.0,0.0,0.0
1606990795646105216,3879356,1606987194696244855,imu_link,-0.004887067712843418,0.004861334338784218,-0.3209586441516876,0.9470681548118591,0.0,0.0,0.0,0.0,0.0,0.0,0.0,0.0,0.0,-37.44489288330078,0.34784117341041565,-0.7092008590698242,0.0,0.0,0.0,0.0,0.0,0.0,0.0,0.0,0.0,0.0007541235536336899,-0.005359545350074768,0.04734417423605919,0.0,0.0,0.0,0.0,0.0,0.0,0.0,0.0,0.0
1606990795664122976,3879357,1606987194708362588,imu_link,-0.004885340575128794,0.0048600370064377785,-0.32097214460372925,0.9470636248588562,0.0,0.0,0.0,0.0,0.0,0.0,0.0,0.0,0.0,-37.44652557373047,0.3477537930011749,-0.7089706063270569,0.0,0.0,0.0,0.0,0.0,0.0,0.0,0.0,0.0,-0.004653390496969223,-0.013801136054098606,0.07653994858264923,0.0,0.0,0.0,0.0,0.0,0.0,0.0,0.0,0.0
1606990795664149987,3879358,1606987194708490395,imu_link,-0.004885340575128794,0.0048600370064377785,-0.32097214460372925,0.9470636248588562,0.0,0.0,0.0,0.0,0.0,0.0,0.0,0.0,0.0,-37.44652557373047,0.3477537930011749,-0.7089706063270569,0.0,0.0,0.0,0.0,0.0,0.0,0.0,0.0,0.0,-0.004653390496969223,-0.013801136054098606,0.07653994858264923,0.0,0.0,0.0,0.0,0.0,0.0,0.0,0.0,0.0
1606990795664191677,3879359,1606987194708648775,imu_link,-0.0048853992484509945,0.004860787186771631,-0.32097283005714417,0.9470633864402771,0.0,0.0,0.0,0.0,0.0,0.0,0.0,0.0,0.0,-37.44660568237305,0.3478325307369232,-0.7090047597885132,0.0,0.0,0.0,0.0,0.0,0.0,0.0,0.0,0.0,-0.00046026663039810956,-0.007568292785435915,0.06810156255960464,0.0,0.0,0.0,0.0,0.0,0.0,0.0,0.0,0.0
1606990795664212561,3879360,1606987194708736217,imu_link,-0.0048853992484509945,0.004860787186771631,-0.32097283005714417,0.9470633864402771,0.0,0.0,0.0,0.0,0.0,0.0,0.0,0.0,0.0,-37.44660568237305,0.3478325307369232,-0.7090047597885132,0.0,0.0,0.0,0.0,0.0,0.0,0.0,0.0,0.0,-0.00046026663039810956,-0.007568292785435915,0.06810156255960464,0.0,0.0,0.0,0.0,0.0,0.0,0.0,0.0,0.0
1606990795664255891,3879361,1606987194708812695,imu_link,-0.004884014371782541,0.004864430986344814,-0.32098445296287537,0.9470593333244324,0.0,0.0,0.0,0.0,0.0,0.0,0.0,0.0,0.0,-37.448020935058594,0.3482701778411865,-0.7089928984642029,0.0,0.0,0.0,0.0,0.0,0.0,0.0,0.0,0.0,0.018353382125496864,-0.01474347710609436,0.03851081803441048,0.0,0.0,0.0,0.0,0.0,0.0,0.0,0.0,0.0
1606990795664284250,3879362,1606987194708908869,imu_link,-0.004884014371782541,0.004864430986344814,-0.32098445296287537,0.9470593333244324,0.0,0.0,0.0,0.0,0.0,0.0,0.0,0.0,0.0,-37.448020935058594,0.3482701778411865,-0.7089928984642029,0.0,0.0,0.0,0.0,0.0,0.0,0.0,0.0,0.0,0.018353382125496864,-0.01474347710609436,0.03851081803441048,0.0,0.0,0.0,0.0,0.0,0.0,0.0,0.0,0.0
1606990795664298355,3879363,1606987194708982752,imu_link,-0.004884013440459967,0.004865170922130346,-0.3209848999977112,0.9470592737197876,0.0,0.0,0.0,0.0,0.0,0.0,0.0,0.0,0.0,-37.44806671142578,0.3483502268791199,-0.70902019739151,0.0,0.0,0.0,0.0,0.0,0.0,0.0,0.0,0.0,0.003004291094839573,-0.02219577319920063,0.01854134164750576,0.0,0.0,0.0,0.0,0.0,0.0,0.0,0.0,0.0
1606990795664308835,3879364,1606987194709051102,imu_link,-0.004884013440459967,0.004865170922130346,-0.3209848999977112,0.9470592737197876,0.0,0.0,0.0,0.0,0.0,0.0,0.0,0.0,0.0,-37.44806671142578,0.3483502268791199,-0.70902019739151,0.0,0.0,0.0,0.0,0.0,0.0,0.0,0.0,0.0,0.003004291094839573,-0.02219577319920063,0.01854134164750576,0.0,0.0,0.0,0.0,0.0,0.0,0.0,0.0,0.0
1606990795670902104,3879365,1606987194709124921,imu_link,-0.004878323990851641,0.004864015616476536,-0.32098299264907837,0.9470599293708801,0.0,0.0,0.0,0.0,0.0,0.0,0.0,0.0,0.0,-37.44783401489258,0.34843552112579346,-0.7083594799041748,0.0,0.0,0.0,0.0,0.0,0.0,0.0,0.0,0.0,-0.021223029121756554,-0.001972460187971592,0.029971200972795486,0.0,0.0,0.0,0.0,0.0,0.0,0.0,0.0,0.0
1606990795670934730,3879366,1606987194709198736,imu_link,-0.004878323990851641,0.004864015616476536,-0.32098299264907837,0.9470599293708801,0.0,0.0,0.0,0.0,0.0,0.0,0.0,0.0,0.0,-37.44783401489258,0.34843552112579346,-0.7083594799041748,0.0,0.0,0.0,0.0,0.0,0.0,0.0,0.0,0.0,-0.021223029121756554,-0.001972460187971592,0.029971200972795486,0.0,0.0,0.0,0.0,0.0,0.0,0.0,0.0,0.0
1606990795670944652,3879367,1606987194721776561,imu_link,-0.00488030631095171,0.004862198606133461,-0.32098388671875,0.9470596313476562,0.0,0.0,0.0,0.0,0.0,0.0,0.0,0.0,0.0,-37.447940826416016,0.34816479682922363,-0.7085081338882446,0.0,0.0,0.0,0.0,0.0,0.0,0.0,0.0,0.0,-0.003859051736071706,0.00877587590366602,0.0439191572368145,0.0,0.0,0.0,0.0,0.0,0.0,0.0,0.0,0.0
1606990795670976056,3879368,1606987194721915250,imu_link,-0.00488030631095171,0.004862198606133461,-0.32098388671875,0.9470596313476562,0.0,0.0,0.0,0.0,0.0,0.0,0.0,0.0,0.0,-37.447940826416016,0.34816479682922363,-0.7085081338882446,0.0,0.0,0.0,0.0,0.0,0.0,0.0,0.0,0.0,-0.003859051736071706,0.00877587590366602,0.0439191572368145,0.0,0.0,0.0,0.0,0.0,0.0,0.0,0.0,0.0
1606990795670989835,3879369,1606987194722048069,imu_link,-0.004880993161350489,0.004861499648541212,-0.3209831714630127,0.9470598697662354,0.0,0.0,0.0,0.0,0.0,0.0,0.0,0.0,0.0,-37.44785690307617,0.34806421399116516,-0.7085566520690918,0.0,0.0,0.0,0.0,0.0,0.0,0.0,0.0,0.0,-0.0006039600120857358,0.012263502925634384,0.03982938826084137,0.0,0.0,0.0,0.0,0.0,0.0,0.0,0.0,0.0
1606990795681538581,3879370,1606987194722129822,imu_link,-0.004880993161350489,0.004861499648541212,-0.3209831714630127,0.9470598697662354,0.0,0.0,0.0,0.0,0.0,0.0,0.0,0.0,0.0,-37.44785690307617,0.34806421399116516,-0.7085566520690918,0.0,0.0,0.0,0.0,0.0,0.0,0.0,0.0,0.0,-0.0006039600120857358,0.012263502925634384,0.03982938826084137,0.0,0.0,0.0,0.0,0.0,0.0,0.0,0.0,0.0
1606990795681550616,3879371,1606987194722211215,imu_link,-0.004879348911345005,0.004860338289290667,-0.3209810256958008,0.9470605850219727,0.0,0.0,0.0,0.0,0.0,0.0,0.0,0.0,0.0,-37.447601318359375,0.3480002284049988,-0.7083346843719482,0.0,0.0,0.0,0.0,0.0,0.0,0.0,0.0,0.0,-0.017701417207717896,0.0025441404432058334,0.04237695410847664,0.0,0.0,0.0,0.0,0.0,0.0,0.0,0.0,0.0
1606990795681559932,3879372,1606987194722288461,imu_link,-0.004879348911345005,0.004860338289290667,-0.3209810256958008,0.9470605850219727,0.0,0.0,0.0,0.0,0.0,0.0,0.0,0.0,0.0,-37.447601318359375,0.3480002284049988,-0.7083346843719482,0.0,0.0,0.0,0.0,0.0,0.0,0.0,0.0,0.0,-0.017701417207717896,0.0025441404432058334,0.04237695410847664,0.0,0.0,0.0,0.0,0.0,0.0,0.0,0.0,0.0
1606990795681568400,3879373,1606987194722381075,imu_link,-0.004880900029093027,0.004860828630626202,-0.32098305225372314,0.9470598697662354,0.0,0.0,0.0,0.0,0.0,0.0,0.0,0.0,0.0,-37.44784164428711,0.347994863986969,-0.708521842956543,0.0,0.0,0.0,0.0,0.0,0.0,0.0,0.0,0.0,-0.0009845294989645481,-0.00712435320019722,0.04757985100150108,0.0,0.0,0.0,0.0,0.0,0.0,0.0,0.0,0.0
1606990795747897678,3879374,1606987194722454717,imu_link,-0.004880900029093027,0.004860828630626202,-0.32098305225372314,0.9470598697662354,0.0,0.0,0.0,0.0,0.0,0.0,0.0,0.0,0.0,-37.44784164428711,0.347994863986969,-0.708521842956543,0.0,0.0,0.0,0.0,0.0,0.0,0.0,0.0,0.0,-0.0009845294989645481,-0.00712435320019722,0.04757985100150108,0.0,0.0,0.0,0.0,0.0,0.0,0.0,0.0,0.0
1606990795747923520,3879375,1606987194722533232,imu_link,-0.0048782797530293465,0.00486214691773057,-0.32098275423049927,0.9470599889755249,0.0,0.0,0.0,0.0,0.0,0.0,0.0,0.0,0.0,-37.44780349731445,0.34823450446128845,-0.7082858681678772,0.0,0.0,0.0,0.0,0.0,0.0,0.0,0.0,0.0,0.00047819444444030523,-0.016042819246649742,0.04899881035089493,0.0,0.0,0.0,0.0,0.0,0.0,0.0,0.0,0.0
1606990795747955062,3879376,1606987194722612508,imu_link,-0.0048782797530293465,0.00486214691773057,-0.32098275423049927,0.9470599889755249,0.0,0.0,0.0,0.0,0.0,0.0,0.0,0.0,0.0,-37.44780349731445,0.34823450446128845,-0.7082858681678772,0.0,0.0,0.0,0.0,0.0,0.0,0.0,0.0,0.0,0.00047819444444030523,-0.016042819246649742,0.04899881035089493,0.0,0.0,0.0,0.0,0.0,0.0,0.0,0.0,0.0
1606990795748039410,3879377,1606987194722683571,imu_link,-0.004873105324804783,0.004862247034907341,-0.3209855854511261,0.9470590949058533,0.0,0.0,0.0,0.0,0.0,0.0,0.0,0.0,0.0,-37.448150634765625,0.34843361377716064,-0.7077289819717407,0.0,0.0,0.0,0.0,0.0,0.0,0.0,0.0,0.0,-0.022911403328180313,-0.012896504253149033,0.0575929619371891,0.0,0.0,0.0,0.0,0.0,0.0,0.0,0.0,0.0
1606990795749729371,3879378,1606987194735482200,imu_link,-0.004873105324804783,0.004862247034907341,-0.3209855854511261,0.9470590949058533,0.0,0.0,0.0,0.0,0.0,0.0,0.0,0.0,0.0,-37.448150634765625,0.34843361377716064,-0.7077289819717407,0.0,0.0,0.0,0.0,0.0,0.0,0.0,0.0,0.0,-0.022911403328180313,-0.012896504253149033,0.0575929619371891,0.0,0.0,0.0,0.0,0.0,0.0,0.0,0.0,0.0
1606990795749774309,3879379,1606987194735603676,imu_link,-0.00487331859767437,0.00486211571842432,-0.32098454236984253,0.9470594525337219,0.0,0.0,0.0,0.0,0.0,0.0,0.0,0.0,0.0,-37.448020935058594,0.34841230511665344,-0.7077468037605286,0.0,0.0,0.0,0.0,0.0,0.0,0.0,0.0,0.0,-0.022672027349472046,-0.003966351039707661,0.06472253799438477,0.0,0.0,0.0,0.0,0.0,0.0,0.0,0.0,0.0
1606990795749796515,3879380,1606987194735753535,imu_link,-0.00487331859767437,0.00486211571842432,-0.32098454236984253,0.9470594525337219,0.0,0.0,0.0,0.0,0.0,0.0,0.0,0.0,0.0,-37.448020935058594,0.34841230511665344,-0.7077468037605286,0.0,0.0,0.0,0.0,0.0,0.0,0.0,0.0,0.0,-0.022672027349472046,-0.003966351039707661,0.06472253799438477,0.0,0.0,0.0,0.0,0.0,0.0,0.0,0.0,0.0
1606990795749813156,3879381,1606987194735848861,imu_link,-0.004874324891716242,0.004858217667788267,-0.32098713517189026,0.9470586180686951,0.0,0.0,0.0,0.0,0.0,0.0,0.0,0.0,0.0,-37.448333740234375,0.34795039892196655,-0.7077136635780334,0.0,0.0,0.0,0.0,0.0,0.0,0.0,0.0,0.0,-0.005105637479573488,0.000489629979711026,0.0540592260658741,0.0,0.0,0.0,0.0,0.0,0.0,0.0,0.0,0.0
1606990795758256768,3879382,1606987194735926419,imu_link,-0.004874324891716242,0.004858217667788267,-0.32098713517189026,0.9470586180686951,0.0,0.0,0.0,0.0,0.0,0.0,0.0,0.0,0.0,-37.448333740234375,0.34795039892196655,-0.7077136635780334,0.0,0.0,0.0,0.0,0.0,0.0,0.0,0.0,0.0,-0.005105637479573488,0.000489629979711026,0.0540592260658741,0.0,0.0,0.0,0.0,0.0,0.0,0.0,0.0,0.0
1606990795758310787,3879383,1606987194736002920,imu_link,-0.00487526785582304,0.004857403691858053,-0.32098495960235596,0.9470593333244324,0.0,0.0,0.0,0.0,0.0,0.0,0.0,0.0,0.0,-37.44806671142578,0.3478289544582367,-0.7077853083610535,0.0,0.0,0.0,0.0,0.0,0.0,0.0,0.0,0.0,0.00913436058908701,0.006604212336242199,0.04146748408675194,0.0,0.0,0.0,0.0,0.0,0.0,0.0,0.0,0.0
1606990795758332052,3879384,1606987194736097833,imu_link,-0.00487526785582304,0.004857403691858053,-0.32098495960235596,0.9470593333244324,0.0,0.0,0.0,0.0,0.0,0.0,0.0,0.0,0.0,-37.44806671142578,0.3478289544582367,-0.7077853083610535,0.0,0.0,0.0,0.0,0.0,0.0,0.0,0.0,0.0,0.00913436058908701,0.006604212336242199,0.04146748408675194,0.0,0.0,0.0,0.0,0.0,0.0,0.0,0.0,0.0
1606990795758348532,3879385,1606987194736172397,imu_link,-0.004877839703112841,0.0048590898513793945,-0.3209877014160156,0.947058379650116,0.0,0.0,0.0,0.0,0.0,0.0,0.0,0.0,0.0,-37.448402404785156,0.34791529178619385,-0.7081273794174194,0.0,0.0,0.0,0.0,0.0,0.0,0.0,0.0,0.0,0.011088571511209011,-0.011080698110163212,0.027461757883429527,0.0,0.0,0.0,0.0,0.0,0.0,0.0,0.0,0.0
1606990795758384427,3879386,1606987194736240903,imu_link,-0.004877839703112841,0.0048590898513793945,-0.3209877014160156,0.947058379650116,0.0,0.0,0.0,0.0,0.0,0.0,0.0,0.0,0.0,-37.448402404785156,0.34791529178619385,-0.7081273794174194,0.0,0.0,0.0,0.0,0.0,0.0,0.0,0.0,0.0,0.011088571511209011,-0.011080698110163212,0.027461757883429527,0.0,0.0,0.0,0.0,0.0,0.0,0.0,0.0,0.0
1606990795763190789,3879387,1606987194736308637,imu_link,-0.004879411309957504,0.004859601613134146,-0.3209875226020813,0.9470584392547607,0.0,0.0,0.0,0.0,0.0,0.0,0.0,0.0,0.0,-37.44838333129883,0.34791311621665955,-0.7083167433738708,0.0,0.0,0.0,0.0,0.0,0.0,0.0,0.0,0.0,-0.002234754152595997,-0.003476035548374057,0.029672306030988693,0.0,0.0,0.0,0.0,0.0,0.0,0.0,0.0,0.0
1606990795763235674,3879388,1606987194736376005,imu_link,-0.004879411309957504,0.004859601613134146,-0.3209875226020813,0.9470584392547607,0.0,0.0,0.0,0.0,0.0,0.0,0.0,0.0,0.0,-37.44838333129883,0.34791311621665955,-0.7083167433738708,0.0,0.0,0.0,0.0,0.0,0.0,0.0,0.0,0.0,-0.002234754152595997,-0.003476035548374057,0.029672306030988693,0.0,0.0,0.0,0.0,0.0,0.0,0.0,0.0,0.0
1606990795763256320,3879389,1606987194748887372,imu_link,-0.0048790061846375465,0.004861712455749512,-0.3209913372993469,0.9470571279525757,0.0,0.0,0.0,0.0,0.0,0.0,0.0,0.0,0.0,-37.44884490966797,0.34815430641174316,-0.7083518505096436,0.0,0.0,0.0,0.0,0.0,0.0,0.0,0.0,0.0,-0.009425114840269089,0.013076169416308403,0.053371209651231766,0.0,0.0,0.0,0.0,0.0,0.0,0.0,0.0,0.0
1606990795763295448,3879390,1606987194748957637,imu_link,-0.0048790061846375465,0.004861712455749512,-0.3209913372993469,0.9470571279525757,0.0,0.0,0.0,0.0,0.0,0.0,0.0,0.0,0.0,-37.44884490966797,0.34815430641174316,-0.7083518505096436,0.0,0.0,0.0,0.0,0.0,0.0,0.0,0.0,0.0,-0.009425114840269089,0.013076169416308403,0.053371209651231766,0.0,0.0,0.0,0.0,0.0,0.0,0.0,0.0,0.0
1606990795793524780,3879391,1606987194749008602,imu_link,-0.004879698157310486,0.004860994406044483,-0.3209899663925171,0.9470576047897339,0.0,0.0,0.0,0.0,0.0,0.0,0.0,0.0,0.0,-37.44867706298828,0.34805190563201904,-0.7083999514579773,0.0,0.0,0.0,0.0,0.0,0.0,0.0,0.0,0.0,-0.004769936669617891,0.00708745839074254,0.06473726779222488,0.0,0.0,0.0,0.0,0.0,0.0,0.0,0.0,0.0
1606990795793551840,3879392,1606987194749052229,imu_link,-0.004879698157310486,0.004860994406044483,-0.3209899663925171,0.9470576047897339,0.0,0.0,0.0,0.0,0.0,0.0,0.0,0.0,0.0,-37.44867706298828,0.34805190563201904,-0.7083999514579773,0.0,0.0,0.0,0.0,0.0,0.0,0.0,0.0,0.0,-0.004769936669617891,0.00708745839074254,0.06473726779222488,0.0,0.0,0.0,0.0,0.0,0.0,0.0,0.0,0.0
1606990795793564776,3879393,1606987194749088943,imu_link,-0.004880088847130537,0.004861762747168541,-0.320995956659317,0.9470555186271667,0.0,0.0,0.0,0.0,0.0,0.0,0.0,0.0,0.0,-37.449405670166016,0.3481164276599884,-0.7084729075431824,0.0,0.0,0.0,0.0,0.0,0.0,0.0,0.0,0.0,-0.00470259552821517,0.004874760285019875,0.04532695189118385,0.0,0.0,0.0,0.0,0.0,0.0,0.0,0.0,0.0
1606990795793580841,3879394,1606987194749134023,imu_link,-0.004880088847130537,0.004861762747168541,-0.320995956659317,0.9470555186271667,0.0,0.0,0.0,0.0,0.0,0.0,0.0,0.0,0.0,-37.449405670166016,0.3481164276599884,-0.7084729075431824,0.0,0.0,0.0,0.0,0.0,0.0,0.0,0.0,0.0,-0.00470259552821517,0.004874760285019875,0.04532695189118385,0.0,0.0,0.0,0.0,0.0,0.0,0.0,0.0,0.0
1606990795793590075,3879395,1606987194749173189,imu_link,-0.004878849256783724,0.0048638381995260715,-0.3209979832172394,0.9470548629760742,0.0,0.0,0.0,0.0,0.0,0.0,0.0,0.0,0.0,-37.449649810791016,0.3483857214450836,-0.7084154486656189,0.0,0.0,0.0,0.0,0.0,0.0,0.0,0.0,0.0,0.00178565236274153,-0.003486128756776452,0.05810926482081413,0.0,0.0,0.0,0.0,0.0,0.0,0.0,0.0,0.0
1606990795804282074,3879396,1606987194749208861,imu_link,-0.004878849256783724,0.0048638381995260715,-0.3209979832172394,0.9470548629760742,0.0,0.0,0.0,0.0,0.0,0.0,0.0,0.0,0.0,-37.449649810791016,0.3483857214450836,-0.7084154486656189,0.0,0.0,0.0,0.0,0.0,0.0,0.0,0.0,0.0,0.00178565236274153,-0.003486128756776452,0.05810926482081413,0.0,0.0,0.0,0.0,0.0,0.0,0.0,0.0,0.0
1606990795804327729,3879397,1606987194749245256,imu_link,-0.004876940511167049,0.004866361152380705,-0.32099881768226624,0.9470545649528503,0.0,0.0,0.0,0.0,0.0,0.0,0.0,0.0,0.0,-37.44975280761719,0.34872913360595703,-0.7083015441894531,0.0,0.0,0.0,0.0,0.0,0.0,0.0,0.0,0.0,0.010730649344623089,-0.02028065361082554,0.0787462666630745,0.0,0.0,0.0,0.0,0.0,0.0,0.0,0.0,0.0
1606990795804340024,3879398,1606987194749283417,imu_link,-0.004876940511167049,0.004866361152380705,-0.32099881768226624,0.9470545649528503,0.0,0.0,0.0,0.0,0.0,0.0,0.0,0.0,0.0,-37.44975280761719,0.34872913360595703,-0.7083015441894531,0.0,0.0,0.0,0.0,0.0,0.0,0.0,0.0,0.0,0.010730649344623089,-0.02028065361082554,0.0787462666630745,0.0,0.0,0.0,0.0,0.0,0.0,0.0,0.0,0.0
1606990795804350561,3879399,1606987194749320777,imu_link,-0.004875256679952145,0.004863268230110407,-0.3209981322288513,0.9470548033714294,0.0,0.0,0.0,0.0,0.0,0.0,0.0,0.0,0.0,-37.449668884277344,0.3484559953212738,-0.7080046534538269,0.0,0.0,0.0,0.0,0.0,0.0,0.0,0.0,0.0,0.00333611574023962,-0.02562074363231659,0.07054932415485382,0.0,0.0,0.0,0.0,0.0,0.0,0.0,0.0,0.0
1606990795816755228,3879400,1606987194761841741,imu_link,-0.004875256679952145,0.004863268230110407,-0.3209981322288513,0.9470548033714294,0.0,0.0,0.0,0.0,0.0,0.0,0.0,0.0,0.0,-37.449668884277344,0.3484559953212738,-0.7080046534538269,0.0,0.0,0.0,0.0,0.0,0.0,0.0,0.0,0.0,0.00333611574023962,-0.02562074363231659,0.07054932415485382,0.0,0.0,0.0,0.0,0.0,0.0,0.0,0.0,0.0
1606990795816774088,3879401,1606987194761938414,imu_link,-0.004870258737355471,0.0048619708977639675,-0.3209967613220215,0.9470552802085876,0.0,0.0,0.0,0.0,0.0,0.0,0.0,0.0,0.0,-37.449501037597656,0.3485000431537628,-0.7074140310287476,0.0,0.0,0.0,0.0,0.0,0.0,0.0,0.0,0.0,-0.015025004744529724,-0.0017402137164026499,0.07443907856941223,0.0,0.0,0.0,0.0,0.0,0.0,0.0,0.0,0.0
1606990795816783730,3879402,1606987194762067848,imu_link,-0.004870258737355471,0.0048619708977639675,-0.3209967613220215,0.9470552802085876,0.0,0.0,0.0,0.0,0.0,0.0,0.0,0.0,0.0,-37.449501037597656,0.3485000431537628,-0.7074140310287476,0.0,0.0,0.0,0.0,0.0,0.0,0.0,0.0,0.0,-0.015025004744529724,-0.0017402137164026499,0.07443907856941223,0.0,0.0,0.0,0.0,0.0,0.0,0.0,0.0,0.0
1606990795816811510,3879403,1606987194762133369,imu_link,-0.004869506694376469,0.004862571135163307,-0.32099786400794983,0.947054922580719,0.0,0.0,0.0,0.0,0.0,0.0,0.0,0.0,0.0,-37.44963455200195,0.34859204292297363,-0.7073547840118408,0.0,0.0,0.0,0.0,0.0,0.0,0.0,0.0,0.0,-0.011187632568180561,0.011485567316412926,0.04868902638554573,0.0,0.0,0.0,0.0,0.0,0.0,0.0,0.0,0.0
1606990795816828725,3879404,1606987194762184831,imu_link,-0.004869506694376469,0.004862571135163307,-0.32099786400794983,0.947054922580719,0.0,0.0,0.0,0.0,0.0,0.0,0.0,0.0,0.0,-37.44963455200195,0.34859204292297363,-0.7073547840118408,0.0,0.0,0.0,0.0,0.0,0.0,0.0,0.0,0.0,-0.011187632568180561,0.011485567316412926,0.04868902638554573,0.0,0.0,0.0,0.0,0.0,0.0,0.0,0.0,0.0
1606990795823559031,3879405,1606987194762256888,imu_link,-0.004873116500675678,0.004864080343395472,-0.3209957480430603,0.9470556378364563,0.0,0.0,0.0,0.0,0.0,0.0,0.0,0.0,0.0,-37.449378967285156,0.3486246168613434,-0.7078014016151428,0.0,0.0,0.0,0.0,0.0,0.0,0.0,0.0,0.0,0.006055830977857113,0.006025594659149647,0.03681502118706703,0.0,0.0,0.0,0.0,0.0,0.0,0.0,0.0,0.0
1606990795823580756,3879406,1606987194762312347,imu_link,-0.004873116500675678,0.004864080343395472,-0.3209957480430603,0.9470556378364563,0.0,0.0,0.0,0.0,0.0,0.0,0.0,0.0,0.0,-37.449378967285156,0.3486246168613434,-0.7078014016151428,0.0,0.0,0.0,0.0,0.0,0.0,0.0,0.0,0.0,0.006055830977857113,0.006025594659149647,0.03681502118706703,0.0,0.0,0.0,0.0,0.0,0.0,0.0,0.0,0.0
1606990795823594233,3879407,1606987194762363649,imu_link,-0.004872855264693499,0.004863212816417217,-0.3209940791130066,0.9470561742782593,0.0,0.0,0.0,0.0,0.0,0.0,0.0,0.0,0.0,-37.44917297363281,0.3485413193702698,-0.7077405452728271,0.0,0.0,0.0,0.0,0.0,0.0,0.0,0.0,0.0,-0.0003886398335453123,-0.0007328501669690013,0.05178277567028999,0.0,0.0,0.0,0.0,0.0,0.0,0.0,0.0,0.0
1606990795823602308,3879408,1606987194762420948,imu_link,-0.004872855264693499,0.004863212816417217,-0.3209940791130066,0.9470561742782593,0.0,0.0,0.0,0.0,0.0,0.0,0.0,0.0,0.0,-37.44917297363281,0.3485413193702698,-0.7077405452728271,0.0,0.0,0.0,0.0,0.0,0.0,0.0,0.0,0.0,-0.0003886398335453123,-0.0007328501669690013,0.05178277567028999,0.0,0.0,0.0,0.0,0.0,0.0,0.0,0.0,0.0
1606990795866901767,3879409,1606987194762477786,imu_link,-0.004872698802500963,0.004862816073000431,-0.32098865509033203,0.9470580220222473,0.0,0.0,0.0,0.0,0.0,0.0,0.0,0.0,0.0,-37.44852066040039,0.3485080897808075,-0.7077069282531738,0.0,0.0,0.0,0.0,0.0,0.0,0.0,0.0,0.0,-0.015408343635499477,0.00017548701725900173,0.05185523256659508,0.0,0.0,0.0,0.0,0.0,0.0,0.0,0.0,0.0
1606990795866921026,3879410,1606987194775635895,imu_link,-0.004872698802500963,0.004862816073000431,-0.32098865509033203,0.9470580220222473,0.0,0.0,0.0,0.0,0.0,0.0,0.0,0.0,0.0,-37.44852066040039,0.3485080897808075,-0.7077069282531738,0.0,0.0,0.0,0.0,0.0,0.0,0.0,0.0,0.0,-0.015408343635499477,0.00017548701725900173,0.05185523256659508,0.0,0.0,0.0,0.0,0.0,0.0,0.0,0.0,0.0
1606990795866930628,3879411,1606987194775731342,imu_link,-0.0048708743415772915,0.0048632691614329815,-0.3209870457649231,0.9470585584640503,0.0,0.0,0.0,0.0,0.0,0.0,0.0,0.0,0.0,-37.448326110839844,0.3486255705356598,-0.7075250148773193,0.0,0.0,0.0,0.0,0.0,0.0,0.0,0.0,0.0,-0.0002226377255283296,0.010565530508756638,0.050476450473070145,0.0,0.0,0.0,0.0,0.0,0.0,0.0,0.0,0.0
1606990795866945849,3879412,1606987194775856268,imu_link,-0.0048708743415772915,0.0048632691614329815,-0.3209870457649231,0.9470585584640503,0.0,0.0,0.0,0.0,0.0,0.0,0.0,0.0,0.0,-37.448326110839844,0.3486255705356598,-0.7075250148773193,0.0,0.0,0.0,0.0,0.0,0.0,0.0,0.0,0.0,-0.0002226377255283296,0.010565530508756638,0.050476450473070145,0.0,0.0,0.0,0.0,0.0,0.0,0.0,0.0,0.0
1606990795873974886,3879413,1606987194775923403,imu_link,-0.0048734028823673725,0.004863903857767582,-0.32098397612571716,0.9470596313476562,0.0,0.0,0.0,0.0,0.0,0.0,0.0,0.0,0.0,-37.44795227050781,0.3486037254333496,-0.7078216671943665,0.0,0.0,0.0,0.0,0.0,0.0,0.0,0.0,0.0,0.01777557283639908,0.00914829969406128,0.042803920805454254,0.0,0.0,0.0,0.0,0.0,0.0,0.0,0.0,0.0
1606990795873992888,3879414,1606987194775981100,imu_link,-0.0048734028823673725,0.004863903857767582,-0.32098397612571716,0.9470596313476562,0.0,0.0,0.0,0.0,0.0,0.0,0.0,0.0,0.0,-37.44795227050781,0.3486037254333496,-0.7078216671943665,0.0,0.0,0.0,0.0,0.0,0.0,0.0,0.0,0.0,0.01777557283639908,0.00914829969406128,0.042803920805454254,0.0,0.0,0.0,0.0,0.0,0.0,0.0,0.0,0.0
1606990795873998038,3879415,1606987194776036959,imu_link,-0.004874438047409058,0.0048627592623233795,-0.32098153233528137,0.9470604658126831,0.0,0.0,0.0,0.0,0.0,0.0,0.0,0.0,0.0,-37.44765853881836,0.34844326972961426,-0.7078909873962402,0.0,0.0,0.0,0.0,0.0,0.0,0.0,0.0,0.0,0.0019221357069909573,0.003373008221387863,0.05435406044125557,0.0,0.0,0.0,0.0,0.0,0.0,0.0,0.0,0.0
1606990795874004783,3879416,1606987194776111121,imu_link,-0.004874438047409058,0.0048627592623233795,-0.32098153233528137,0.9470604658126831,0.0,0.0,0.0,0.0,0.0,0.0,0.0,0.0,0.0,-37.44765853881836,0.34844326972961426,-0.7078909873962402,0.0,0.0,0.0,0.0,0.0,0.0,0.0,0.0,0.0,0.0019221357069909573,0.003373008221387863,0.05435406044125557,0.0,0.0,0.0,0.0,0.0,0.0,0.0,0.0,0.0
1606990795884196903,3879417,1606987194776167067,imu_link,-0.004876002203673124,0.0048624081537127495,-0.3209788501262665,0.9470613598823547,0.0,0.0,0.0,0.0,0.0,0.0,0.0,0.0,0.0,-37.44733810424805,0.34834960103034973,-0.7080468535423279,0.0,0.0,0.0,0.0,0.0,0.0,0.0,0.0,0.0,-0.002768628764897585,-0.006950469687581062,0.056463152170181274,0.0,0.0,0.0,0.0,0.0,0.0,0.0,0.0,0.0
1606990795884232154,3879418,1606987194776218072,imu_link,-0.004876002203673124,0.0048624081537127495,-0.3209788501262665,0.9470613598823547,0.0,0.0,0.0,0.0,0.0,0.0,0.0,0.0,0.0,-37.44733810424805,0.34834960103034973,-0.7080468535423279,0.0,0.0,0.0,0.0,0.0,0.0,0.0,0.0,0.0,-0.002768628764897585,-0.006950469687581062,0.056463152170181274,0.0,0.0,0.0,0.0,0.0,0.0,0.0,0.0,0.0
1606990795884260351,3879419,1606987194776275378,imu_link,-0.004876917228102684,0.004861718509346247,-0.32097819447517395,0.9470615386962891,0.0,0.0,0.0,0.0,0.0,0.0,0.0,0.0,0.0,-37.44725799560547,0.34824153780937195,-0.7081205248832703,0.0,0.0,0.0,0.0,0.0,0.0,0.0,0.0,0.0,0.005619407165795565,0.0027894596569240093,0.03248900920152664,0.0,0.0,0.0,0.0,0.0,0.0,0.0,0.0,0.0
1606990795884268154,3879420,1606987194776330743,imu_link,-0.004876917228102684,0.004861718509346247,-0.32097819447517395,0.9470615386962891,0.0,0.0,0.0,0.0,0.0,0.0,0.0,0.0,0.0,-37.44725799560547,0.34824153780937195,-0.7081205248832703,0.0,0.0,0.0,0.0,0.0,0.0,0.0,0.0,0.0,0.005619407165795565,0.0027894596569240093,0.03248900920152664,0.0,0.0,0.0,0.0,0.0,0.0,0.0,0.0,0.0
1606990795884283126,3879421,1606987194789132540,imu_link,-0.004877170547842979,0.004862986970692873,-0.320978045463562,0.9470615983009338,0.0,0.0,0.0,0.0,0.0,0.0,0.0,0.0,0.0,-37.447242736816406,0.3483699858188629,-0.7081946134567261,0.0,0.0,0.0,0.0,0.0,0.0,0.0,0.0,0.0,-0.0029779281467199326,0.0018301375675946474,0.04639086499810219,0.0,0.0,0.0,0.0,0.0,0.0,0.0,0.0,0.0
1606990795884307771,3879422,1606987194789250052,imu_link,-0.004877170547842979,0.004862986970692873,-0.320978045463562,0.9470615983009338,0.0,0.0,0.0,0.0,0.0,0.0,0.0,0.0,0.0,-37.447242736816406,0.3483699858188629,-0.7081946134567261,0.0,0.0,0.0,0.0,0.0,0.0,0.0,0.0,0.0,-0.0029779281467199326,0.0018301375675946474,0.04639086499810219,0.0,0.0,0.0,0.0,0.0,0.0,0.0,0.0,0.0
1606990795884348618,3879423,1606987194789397068,imu_link,-0.004878500010818243,0.004863624926656485,-0.3209782838821411,0.9470615386962891,0.0,0.0,0.0,0.0,0.0,0.0,0.0,0.0,0.0,-37.447269439697266,0.3483901619911194,-0.7083624601364136,0.0,0.0,0.0,0.0,0.0,0.0,0.0,0.0,0.0,-0.006239658687263727,-0.006254951003938913,0.049197226762771606,0.0,0.0,0.0,0.0,0.0,0.0,0.0,0.0,0.0
1606990795884372079,3879424,1606987194789481075,imu_link,-0.004878500010818243,0.004863624926656485,-0.3209782838821411,0.9470615386962891,0.0,0.0,0.0,0.0,0.0,0.0,0.0,0.0,0.0,-37.447269439697266,0.3483901619911194,-0.7083624601364136,0.0,0.0,0.0,0.0,0.0,0.0,0.0,0.0,0.0,-0.006239658687263727,-0.006254951003938913,0.049197226762771606,0.0,0.0,0.0,0.0,0.0,0.0,0.0,0.0,0.0
1606990795886371497,3879425,1606987194789545051,imu_link,-0.004877673927694559,0.004862154833972454,-0.3209781348705292,0.9470615983009338,0.0,0.0,0.0,0.0,0.0,0.0,0.0,0.0,0.0,-37.44724655151367,0.34826114773750305,-0.7082186341285706,0.0,0.0,0.0,0.0,0.0,0.0,0.0,0.0,0.0,0.0023884507827460766,0.0017350711859762669,0.027919283136725426,0.0,0.0,0.0,0.0,0.0,0.0,0.0,0.0,0.0
1606990795886404871,3879426,1606987194789606742,imu_link,-0.004877673927694559,0.004862154833972454,-0.3209781348705292,0.9470615983009338,0.0,0.0,0.0,0.0,0.0,0.0,0.0,0.0,0.0,-37.44724655151367,0.34826114773750305,-0.7082186341285706,0.0,0.0,0.0,0.0,0.0,0.0,0.0,0.0,0.0,0.0023884507827460766,0.0017350711859762669,0.027919283136725426,0.0,0.0,0.0,0.0,0.0,0.0,0.0,0.0,0.0
1606990795886422329,3879427,1606987194789693570,imu_link,-0.004877598024904728,0.004863947629928589,-0.32097896933555603,0.94706130027771,0.0,0.0,0.0,0.0,0.0,0.0,0.0,0.0,0.0,-37.447349548339844,0.3484579026699066,-0.7082766890525818,0.0,0.0,0.0,0.0,0.0,0.0,0.0,0.0,0.0,0.006599687971174717,0.015338415279984474,0.026977142319083214,0.0,0.0,0.0,0.0,0.0,0.0,0.0,0.0,0.0
1606990795886498969,3879428,1606987194789759667,imu_link,-0.004877598024904728,0.004863947629928589,-0.32097896933555603,0.94706130027771,0.0,0.0,0.0,0.0,0.0,0.0,0.0,0.0,0.0,-37.447349548339844,0.3484579026699066,-0.7082766890525818,0.0,0.0,0.0,0.0,0.0,0.0,0.0,0.0,0.0,0.006599687971174717,0.015338415279984474,0.026977142319083214,0.0,0.0,0.0,0.0,0.0,0.0,0.0,0.0,0.0
1606990795890822541,3879429,1606987194789895237,imu_link,-0.004880269058048725,0.004864415619522333,-0.32098087668418884,0.9470606446266174,0.0,0.0,0.0,0.0,0.0,0.0,0.0,0.0,0.0,-37.44758224487305,0.3484089970588684,-0.7085845470428467,0.0,0.0,0.0,0.0,0.0,0.0,0.0,0.0,0.0,0.0028196547646075487,0.018837757408618927,0.03432624042034149,0.0,0.0,0.0,0.0,0.0,0.0,0.0,0.0,0.0
1606990795890846128,3879430,1606987194789960692,imu_link,-0.004880269058048725,0.004864415619522333,-0.32098087668418884,0.9470606446266174,0.0,0.0,0.0,0.0,0.0,0.0,0.0,0.0,0.0,-37.44758224487305,0.3484089970588684,-0.7085845470428467,0.0,0.0,0.0,0.0,0.0,0.0,0.0,0.0,0.0,0.0028196547646075487,0.018837757408618927,0.03432624042034149,0.0,0.0,0.0,0.0,0.0,0.0,0.0,0.0,0.0
1606990795890871213,3879431,1606987194790031793,imu_link,-0.004880556836724281,0.004864959511905909,-0.3209795653820038,0.9470610618591309,0.0,0.0,0.0,0.0,0.0,0.0,0.0,0.0,0.0,-37.44742202758789,0.3484584391117096,-0.7086352705955505,0.0,0.0,0.0,0.0,0.0,0.0,0.0,0.0,0.0,-0.007140799891203642,0.0034093414433300495,0.055147334933280945,0.0,0.0,0.0,0.0,0.0,0.0,0.0,0.0,0.0
1606990795890896486,3879432,1606987194802932395,imu_link,-0.004880556836724281,0.004864959511905909,-0.3209795653820038,0.9470610618591309,0.0,0.0,0.0,0.0,0.0,0.0,0.0,0.0,0.0,-37.44742202758789,0.3484584391117096,-0.7086352705955505,0.0,0.0,0.0,0.0,0.0,0.0,0.0,0.0,0.0,-0.007140799891203642,0.0034093414433300495,0.055147334933280945,0.0,0.0,0.0,0.0,0.0,0.0,0.0,0.0,0.0
1606990795926585568,3879433,1606987194803062083,imu_link,-0.004882577806711197,0.004862702451646328,-0.32098233699798584,0.9470601081848145,0.0,0.0,0.0,0.0,0.0,0.0,0.0,0.0,0.0,-37.44776153564453,0.3481370210647583,-0.7087726593017578,0.0,0.0,0.0,0.0,0.0,0.0,0.0,0.0,0.0,-0.0001500649086665362,0.0047596837393939495,0.059726450592279434,0.0,0.0,0.0,0.0,0.0,0.0,0.0,0.0,0.0
1606990795926624418,3879434,1606987194803211240,imu_link,-0.004882577806711197,0.004862702451646328,-0.32098233699798584,0.9470601081848145,0.0,0.0,0.0,0.0,0.0,0.0,0.0,0.0,0.0,-37.44776153564453,0.3481370210647583,-0.7087726593017578,0.0,0.0,0.0,0.0,0.0,0.0,0.0,0.0,0.0,-0.0001500649086665362,0.0047596837393939495,0.059726450592279434,0.0,0.0,0.0,0.0,0.0,0.0,0.0,0.0,0.0
1606990795926642903,3879435,1606987194803279069,imu_link,-0.004882758483290672,0.004858975298702717,-0.320980042219162,0.9470609426498413,0.0,0.0,0.0,0.0,0.0,0.0,0.0,0.0,0.0,-37.447471618652344,0.3477276563644409,-0.7086542248725891,0.0,0.0,0.0,0.0,0.0,0.0,0.0,0.0,0.0,0.006151630077511072,0.01056189276278019,0.057042885571718216,0.0,0.0,0.0,0.0,0.0,0.0,0.0,0.0,0.0
1606990795926683176,3879436,1606987194803408280,imu_link,-0.004882758483290672,0.004858975298702717,-0.320980042219162,0.9470609426498413,0.0,0.0,0.0,0.0,0.0,0.0,0.0,0.0,0.0,-37.447471618652344,0.3477276563644409,-0.7086542248725891,0.0,0.0,0.0,0.0,0.0,0.0,0.0,0.0,0.0,0.006151630077511072,0.01056189276278019,0.057042885571718216,0.0,0.0,0.0,0.0,0.0,0.0,0.0,0.0,0.0
1606990795926705310,3879437,1606987194803475696,imu_link,-0.004886169917881489,0.004860133398324251,-0.3209800124168396,0.9470609426498413,0.0,0.0,0.0,0.0,0.0,0.0,0.0,0.0,0.0,-37.447471618652344,0.34772783517837524,-0.7090671062469482,0.0,0.0,0.0,0.0,0.0,0.0,0.0,0.0,0.0,0.0037698850501328707,-0.007001472637057304,0.043844711035490036,0.0,0.0,0.0,0.0,0.0,0.0,0.0,0.0,0.0
1606990795989071146,3879438,1606987194803560112,imu_link,-0.004886169917881489,0.004860133398324251,-0.3209800124168396,0.9470609426498413,0.0,0.0,0.0,0.0,0.0,0.0,0.0,0.0,0.0,-37.447471618652344,0.34772783517837524,-0.7090671062469482,0.0,0.0,0.0,0.0,0.0,0.0,0.0,0.0,0.0,0.0037698850501328707,-0.007001472637057304,0.043844711035490036,0.0,0.0,0.0,0.0,0.0,0.0,0.0,0.0,0.0
1606990795989162206,3879439,1606987194803626706,imu_link,-0.004884764552116394,0.00486016133800149,-0.3209788501262665,0.9470613598823547,0.0,0.0,0.0,0.0,0.0,0.0,0.0,0.0,0.0,-37.44733428955078,0.3477834463119507,-0.708915114402771,0.0,0.0,0.0,0.0,0.0,0.0,0.0,0.0,0.0,-0.005639105569571257,-0.020639685913920403,0.03155945613980293,0.0,0.0,0.0,0.0,0.0,0.0,0.0,0.0,0.0
1606990795989198838,3879440,1606987194803693685,imu_link,-0.004884764552116394,0.00486016133800149,-0.3209788501262665,0.9470613598823547,0.0,0.0,0.0,0.0,0.0,0.0,0.0,0.0,0.0,-37.44733428955078,0.3477834463119507,-0.708915114402771,0.0,0.0,0.0,0.0,0.0,0.0,0.0,0.0,0.0,-0.005639105569571257,-0.020639685913920403,0.03155945613980293,0.0,0.0,0.0,0.0,0.0,0.0,0.0,0.0,0.0
1606990795989217386,3879441,1606987194803758483,imu_link,-0.0048813773319125175,0.004857273306697607,-0.32097795605659485,0.9470615983009338,0.0,0.0,0.0,0.0,0.0,0.0,0.0,0.0,0.0,-37.44722366333008,0.3475952744483948,-0.7084410190582275,0.0,0.0,0.0,0.0,0.0,0.0,0.0,0.0,0.0,-0.014855974353849888,-0.01223564799875021,0.03889916464686394,0.0,0.0,0.0,0.0,0.0,0.0,0.0,0.0,0.0
1606990795989234693,3879442,1606987194803823213,imu_link,-0.0048813773319125175,0.004857273306697607,-0.32097795605659485,0.9470615983009338,0.0,0.0,0.0,0.0,0.0,0.0,0.0,0.0,0.0,-37.44722366333008,0.3475952744483948,-0.7084410190582275,0.0,0.0,0.0,0.0,0.0,0.0,0.0,0.0,0.0,-0.014855974353849888,-0.01223564799875021,0.03889916464686394,0.0,0.0,0.0,0.0,0.0,0.0,0.0,0.0,0.0
1606990795989253880,3879443,1606987194816423227,imu_link,-0.004881429020315409,0.004857257008552551,-0.3209781050682068,0.9470615386962891,0.0,0.0,0.0,0.0,0.0,0.0,0.0,0.0,0.0,-37.447242736816406,0.34759145975112915,-0.7084460258483887,0.0,0.0,0.0,0.0,0.0,0.0,0.0,0.0,0.0,-0.015720317140221596,0.001960466615855694,0.04928714409470558,0.0,0.0,0.0,0.0,0.0,0.0,0.0,0.0,0.0
1606990795989300751,3879444,1606987194816540963,imu_link,-0.004881429020315409,0.004857257008552551,-0.3209781050682068,0.9470615386962891,0.0,0.0,0.0,0.0,0.0,0.0,0.0,0.0,0.0,-37.447242736816406,0.34759145975112915,-0.7084460258483887,0.0,0.0,0.0,0.0,0.0,0.0,0.0,0.0,0.0,-0.015720317140221596,0.001960466615855694,0.04928714409470558,0.0,0.0,0.0,0.0,0.0,0.0,0.0,0.0,0.0
1606990795989324092,3879445,1606987194816653768,imu_link,-0.004883387126028538,0.004852126352488995,-0.32097509503364563,0.947062611579895,0.0,0.0,0.0,0.0,0.0,0.0,0.0,0.0,0.0,-37.44687271118164,0.34696492552757263,-0.7084686160087585,0.0,0.0,0.0,0.0,0.0,0.0,0.0,0.0,0.0,-0.014393418096005917,0.008242893032729626,0.046354372054338455,0.0,0.0,0.0,0.0,0.0,0.0,0.0,0.0,0.0
1606990795989346734,3879446,1606987194816731973,imu_link,-0.004883387126028538,0.004852126352488995,-0.32097509503364563,0.947062611579895,0.0,0.0,0.0,0.0,0.0,0.0,0.0,0.0,0.0,-37.44687271118164,0.34696492552757263,-0.7084686160087585,0.0,0.0,0.0,0.0,0.0,0.0,0.0,0.0,0.0,-0.014393418096005917,0.008242893032729626,0.046354372054338455,0.0,0.0,0.0,0.0,0.0,0.0,0.0,0.0,0.0
1606990795989363245,3879447,1606987194816800404,imu_link,-0.004882474895566702,0.004852687940001488,-0.32097548246383667,0.9470624923706055,0.0,0.0,0.0,0.0,0.0,0.0,0.0,0.0,0.0,-37.44691848754883,0.3470591902732849,-0.708390474319458,0.0,0.0,0.0,0.0,0.0,0.0,0.0,0.0,0.0,-0.007974979467689991,0.009454961866140366,0.03127863630652428,0.0,0.0,0.0,0.0,0.0,0.0,0.0,0.0,0.0
1606990795989435204,3879448,1606987194816884787,imu_link,-0.004882474895566702,0.004852687940001488,-0.32097548246383667,0.9470624923706055,0.0,0.0,0.0,0.0,0.0,0.0,0.0,0.0,0.0,-37.44691848754883,0.3470591902732849,-0.708390474319458,0.0,0.0,0.0,0.0,0.0,0.0,0.0,0.0,0.0,-0.007974979467689991,0.009454961866140366,0.03127863630652428,0.0,0.0,0.0,0.0,0.0,0.0,0.0,0.0,0.0
1606990795989465531,3879449,1606987194816952019,imu_link,-0.0048843626864254475,0.004853894934058189,-0.3209744691848755,0.9470627903938293,0.0,0.0,0.0,0.0,0.0,0.0,0.0,0.0,0.0,-37.44679641723633,0.3471214473247528,-0.70863938331604,0.0,0.0,0.0,0.0,0.0,0.0,0.0,0.0,0.0,-0.00820654071867466,0.00949261337518692,0.04379112645983696,0.0,0.0,0.0,0.0,0.0,0.0,0.0,0.0,0.0
1606990795989535250,3879450,1606987194817016969,imu_link,-0.0048843626864254475,0.004853894934058189,-0.3209744691848755,0.9470627903938293,0.0,0.0,0.0,0.0,0.0,0.0,0.0,0.0,0.0,-37.44679641723633,0.3471214473247528,-0.70863938331604,0.0,0.0,0.0,0.0,0.0,0.0,0.0,0.0,0.0,-0.00820654071867466,0.00949261337518692,0.04379112645983696,0.0,0.0,0.0,0.0,0.0,0.0,0.0,0.0,0.0
1606990795989555358,3879451,1606987194817075513,imu_link,-0.004882569424808025,0.004852734971791506,-0.3209734857082367,0.9470632076263428,0.0,0.0,0.0,0.0,0.0,0.0,0.0,0.0,0.0,-37.44667434692383,0.34706228971481323,-0.7084016799926758,0.0,0.0,0.0,0.0,0.0,0.0,0.0,0.0,0.0,-0.006682975217700005,0.002994090784341097,0.04719454422593117,0.0,0.0,0.0,0.0,0.0,0.0,0.0,0.0,0.0
1606990795989583326,3879452,1606987194817139605,imu_link,-0.004882569424808025,0.004852734971791506,-0.3209734857082367,0.9470632076263428,0.0,0.0,0.0,0.0,0.0,0.0,0.0,0.0,0.0,-37.44667434692383,0.34706228971481323,-0.7084016799926758,0.0,0.0,0.0,0.0,0.0,0.0,0.0,0.0,0.0,-0.006682975217700005,0.002994090784341097,0.04719454422593117,0.0,0.0,0.0,0.0,0.0,0.0,0.0,0.0,0.0
1606990795989638759,3879453,1606987194817211788,imu_link,-0.004884008318185806,0.00485169468447566,-0.32097771763801575,0.9470617175102234,0.0,0.0,0.0,0.0,0.0,0.0,0.0,0.0,0.0,-37.44718933105469,0.34689322113990784,-0.7085211277008057,0.0,0.0,0.0,0.0,0.0,0.0,0.0,0.0,0.0,0.0033543575555086136,0.0012826337479054928,0.0417223684489727,0.0,0.0,0.0,0.0,0.0,0.0,0.0,0.0,0.0
1606990795989675576,3879454,1606987194829303043,imu_link,-0.004884008318185806,0.00485169468447566,-0.32097771763801575,0.9470617175102234,0.0,0.0,0.0,0.0,0.0,0.0,0.0,0.0,0.0,-37.44718933105469,0.34689322113990784,-0.7085211277008057,0.0,0.0,0.0,0.0,0.0,0.0,0.0,0.0,0.0,0.0033543575555086136,0.0012826337479054928,0.0417223684489727,0.0,0.0,0.0,0.0,0.0,0.0,0.0,0.0,0.0
1606990795989686374,3879455,1606987194829413635,imu_link,-0.0048827845603227615,0.004853353835642338,-0.3209799826145172,0.9470609426498413,0.0,0.0,0.0,0.0,0.0,0.0,0.0,0.0,0.0,-37.44746398925781,0.3471166491508484,-0.7084502577781677,0.0,0.0,0.0,0.0,0.0,0.0,0.0,0.0,0.0,0.004022554028779268,0.0015590208349749446,0.03283598646521568,0.0,0.0,0.0,0.0,0.0,0.0,0.0,0.0,0.0
1606990795993297139,3879456,1606987194829566328,imu_link,-0.0048827845603227615,0.004853353835642338,-0.3209799826145172,0.9470609426498413,0.0,0.0,0.0,0.0,0.0,0.0,0.0,0.0,0.0,-37.44746398925781,0.3471166491508484,-0.7084502577781677,0.0,0.0,0.0,0.0,0.0,0.0,0.0,0.0,0.0,0.004022554028779268,0.0015590208349749446,0.03283598646521568,0.0,0.0,0.0,0.0,0.0,0.0,0.0,0.0,0.0
1606990795993316356,3879457,1606987194829642159,imu_link,-0.004882489796727896,0.004851972684264183,-0.3209855556488037,0.9470590949058533,0.0,0.0,0.0,0.0,0.0,0.0,0.0,0.0,0.0,-37.448143005371094,0.3469734489917755,-0.7083694338798523,0.0,0.0,0.0,0.0,0.0,0.0,0.0,0.0,0.0,-0.013741509988904,0.0008424089755862951,0.029516790062189102,0.0,0.0,0.0,0.0,0.0,0.0,0.0,0.0,0.0
1606990795993334857,3879458,1606987194829764402,imu_link,-0.004882489796727896,0.004851972684264183,-0.3209855556488037,0.9470590949058533,0.0,0.0,0.0,0.0,0.0,0.0,0.0,0.0,0.0,-37.448143005371094,0.3469734489917755,-0.7083694338798523,0.0,0.0,0.0,0.0,0.0,0.0,0.0,0.0,0.0,-0.013741509988904,0.0008424089755862951,0.029516790062189102,0.0,0.0,0.0,0.0,0.0,0.0,0.0,0.0,0.0
1606990795993345621,3879459,1606987194829855313,imu_link,-0.004882435780018568,0.004855681210756302,-0.3209856152534485,0.9470590949058533,0.0,0.0,0.0,0.0,0.0,0.0,0.0,0.0,0.0,-37.448150634765625,0.34737786650657654,-0.7085000276565552,0.0,0.0,0.0,0.0,0.0,0.0,0.0,0.0,0.0,-0.01602078601717949,0.006941976025700569,0.04669266566634178,0.0,0.0,0.0,0.0,0.0,0.0,0.0,0.0,0.0
1606990795997873077,3879460,1606987194829918800,imu_link,-0.004882435780018568,0.004855681210756302,-0.3209856152534485,0.9470590949058533,0.0,0.0,0.0,0.0,0.0,0.0,0.0,0.0,0.0,-37.448150634765625,0.34737786650657654,-0.7085000276565552,0.0,0.0,0.0,0.0,0.0,0.0,0.0,0.0,0.0,-0.01602078601717949,0.006941976025700569,0.04669266566634178,0.0,0.0,0.0,0.0,0.0,0.0,0.0,0.0,0.0
1606990795997897741,3879461,1606987194829989620,imu_link,-0.004886103328317404,0.004852196667343378,-0.3209858238697052,0.9470589756965637,0.0,0.0,0.0,0.0,0.0,0.0,0.0,0.0,0.0,-37.44817352294922,0.34686461091041565,-0.7087699770927429,0.0,0.0,0.0,0.0,0.0,0.0,0.0,0.0,0.0,-0.01069466769695282,0.0019839818123728037,0.05478314682841301,0.0,0.0,0.0,0.0,0.0,0.0,0.0,0.0,0.0
1606990795997908611,3879462,1606987194830054277,imu_link,-0.004886103328317404,0.004852196667343378,-0.3209858238697052,0.9470589756965637,0.0,0.0,0.0,0.0,0.0,0.0,0.0,0.0,0.0,-37.44817352294922,0.34686461091041565,-0.7087699770927429,0.0,0.0,0.0,0.0,0.0,0.0,0.0,0.0,0.0,-0.01069466769695282,0.0019839818123728037,0.05478314682841301,0.0,0.0,0.0,0.0,0.0,0.0,0.0,0.0,0.0
1606990795997919740,3879463,1606987194830115559,imu_link,-0.004885467700660229,0.004850736353546381,-0.3209870457649231,0.9470585584640503,0.0,0.0,0.0,0.0,0.0,0.0,0.0,0.0,0.0,-37.44831848144531,0.3467286229133606,-0.7086477875709534,0.0,0.0,0.0,0.0,0.0,0.0,0.0,0.0,0.0,-0.010008109733462334,-0.011310512199997902,0.06732416898012161,0.0,0.0,0.0,0.0,0.0,0.0,0.0,0.0,0.0
1606990795997929490,3879464,1606987194843375862,imu_link,-0.004885467700660229,0.004850736353546381,-0.3209870457649231,0.9470585584640503,0.0,0.0,0.0,0.0,0.0,0.0,0.0,0.0,0.0,-37.44831848144531,0.3467286229133606,-0.7086477875709534,0.0,0.0,0.0,0.0,0.0,0.0,0.0,0.0,0.0,-0.010008109733462334,-0.011310512199997902,0.06732416898012161,0.0,0.0,0.0,0.0,0.0,0.0,0.0,0.0,0.0
1606990796025326697,3879465,1606987194843500382,imu_link,-0.0048836600035429,0.004848025739192963,-0.32098549604415894,0.947059154510498,0.0,0.0,0.0,0.0,0.0,0.0,0.0,0.0,0.0,-37.4481201171875,0.3465021252632141,-0.7083513140678406,0.0,0.0,0.0,0.0,0.0,0.0,0.0,0.0,0.0,-0.010068210773169994,-0.005912078078836203,0.06264280527830124,0.0,0.0,0.0,0.0,0.0,0.0,0.0,0.0,0.0
1606990796025341162,3879466,1606987194843642222,imu_link,-0.0048836600035429,0.004848025739192963,-0.32098549604415894,0.947059154510498,0.0,0.0,0.0,0.0,0.0,0.0,0.0,0.0,0.0,-37.4481201171875,0.3465021252632141,-0.7083513140678406,0.0,0.0,0.0,0.0,0.0,0.0,0.0,0.0,0.0,-0.010068210773169994,-0.005912078078836203,0.06264280527830124,0.0,0.0,0.0,0.0,0.0,0.0,0.0,0.0,0.0
1606990796025349587,3879467,1606987194843729761,imu_link,-0.004883741494268179,0.004846601281315088,-0.3209843933582306,0.9470595121383667,0.0,0.0,0.0,0.0,0.0,0.0,0.0,0.0,0.0,-37.44799041748047,0.34634533524513245,-0.7083072066307068,0.0,0.0,0.0,0.0,0.0,0.0,0.0,0.0,0.0,-0.004060081206262112,-0.0008185875485651195,0.05481443554162979,0.0,0.0,0.0,0.0,0.0,0.0,0.0,0.0,0.0
1606990796025361426,3879468,1606987194843812781,imu_link,-0.004883741494268179,0.004846601281315088,-0.3209843933582306,0.9470595121383667,0.0,0.0,0.0,0.0,0.0,0.0,0.0,0.0,0.0,-37.44799041748047,0.34634533524513245,-0.7083072066307068,0.0,0.0,0.0,0.0,0.0,0.0,0.0,0.0,0.0,-0.004060081206262112,-0.0008185875485651195,0.05481443554162979,0.0,0.0,0.0,0.0,0.0,0.0,0.0,0.0,0.0
1606990796031608598,3879469,1606987194843884618,imu_link,-0.004884055349975824,0.004845805466175079,-0.3209834098815918,0.9470598697662354,0.0,0.0,0.0,0.0,0.0,0.0,0.0,0.0,0.0,-37.44786834716797,0.34624817967414856,-0.7083117365837097,0.0,0.0,0.0,0.0,0.0,0.0,0.0,0.0,0.0,0.010770486667752266,-0.0035585016012191772,0.04203157126903534,0.0,0.0,0.0,0.0,0.0,0.0,0.0,0.0,0.0
1606990796031633231,3879470,1606987194843977077,imu_link,-0.004884055349975824,0.004845805466175079,-0.3209834098815918,0.9470598697662354,0.0,0.0,0.0,0.0,0.0,0.0,0.0,0.0,0.0,-37.44786834716797,0.34624817967414856,-0.7083117365837097,0.0,0.0,0.0,0.0,0.0,0.0,0.0,0.0,0.0,0.010770486667752266,-0.0035585016012191772,0.04203157126903534,0.0,0.0,0.0,0.0,0.0,0.0,0.0,0.0,0.0
1606990796031642110,3879471,1606987194844051029,imu_link,-0.004885469563305378,0.004844654817134142,-0.32098308205604553,0.9470599889755249,0.0,0.0,0.0,0.0,0.0,0.0,0.0,0.0,0.0,-37.44783020019531,0.3460715413093567,-0.7084226608276367,0.0,0.0,0.0,0.0,0.0,0.0,0.0,0.0,0.0,0.008065380156040192,-0.0074683367274701595,0.04930511862039566,0.0,0.0,0.0,0.0,0.0,0.0,0.0,0.0,0.0
1606990796031647653,3879472,1606987194844126876,imu_link,-0.004885469563305378,0.004844654817134142,-0.32098308205604553,0.9470599889755249,0.0,0.0,0.0,0.0,0.0,0.0,0.0,0.0,0.0,-37.44783020019531,0.3460715413093567,-0.7084226608276367,0.0,0.0,0.0,0.0,0.0,0.0,0.0,0.0,0.0,0.008065380156040192,-0.0074683367274701595,0.04930511862039566,0.0,0.0,0.0,0.0,0.0,0.0,0.0,0.0,0.0
1606990796031657911,3879473,1606987194844209931,imu_link,-0.004882104694843292,0.004847371485084295,-0.3209816813468933,0.9470604658126831,0.0,0.0,0.0,0.0,0.0,0.0,0.0,0.0,0.0,-37.447662353515625,0.3464911878108978,-0.7081568837165833,0.0,0.0,0.0,0.0,0.0,0.0,0.0,0.0,0.0,0.004286432638764381,-0.004648929461836815,0.07077118754386902,0.0,0.0,0.0,0.0,0.0,0.0,0.0,0.0,0.0
1606990796042121864,3879474,1606987194844287541,imu_link,-0.004882104694843292,0.004847371485084295,-0.3209816813468933,0.9470604658126831,0.0,0.0,0.0,0.0,0.0,0.0,0.0,0.0,0.0,-37.447662353515625,0.3464911878108978,-0.7081568837165833,0.0,0.0,0.0,0.0,0.0,0.0,0.0,0.0,0.0,0.004286432638764381,-0.004648929461836815,0.07077118754386902,0.0,0.0,0.0,0.0,0.0,0.0,0.0,0.0,0.0
1606990796042137453,3879475,1606987194856546094,imu_link,-0.004880950786173344,0.004847603850066662,-0.3209814727306366,0.9470605254173279,0.0,0.0,0.0,0.0,0.0,0.0,0.0,0.0,0.0,-37.44763946533203,0.34655898809432983,-0.708040177822113,0.0,0.0,0.0,0.0,0.0,0.0,0.0,0.0,0.0,0.009945424273610115,0.004200609866529703,0.057374197989702225,0.0,0.0,0.0,0.0,0.0,0.0,0.0,0.0,0.0
1606990796042199241,3879476,1606987194856674893,imu_link,-0.004880950786173344,0.004847603850066662,-0.3209814727306366,0.9470605254173279,0.0,0.0,0.0,0.0,0.0,0.0,0.0,0.0,0.0,-37.44763946533203,0.34655898809432983,-0.708040177822113,0.0,0.0,0.0,0.0,0.0,0.0,0.0,0.0,0.0,0.009945424273610115,0.004200609866529703,0.057374197989702225,0.0,0.0,0.0,0.0,0.0,0.0,0.0,0.0,0.0
1606990796042208926,3879477,1606987194856814038,imu_link,-0.004882282577455044,0.0048503088764846325,-0.32097747921943665,0.9470618963241577,0.0,0.0,0.0,0.0,0.0,0.0,0.0,0.0,0.0,-37.44715881347656,0.3468065857887268,-0.7082827687263489,0.0,0.0,0.0,0.0,0.0,0.0,0.0,0.0,0.0,-0.012967966496944427,0.00469682551920414,0.03626268357038498,0.0,0.0,0.0,0.0,0.0,0.0,0.0,0.0,0.0
1606990796048751529,3879478,1606987194856899436,imu_link,-0.004882282577455044,0.0048503088764846325,-0.32097747921943665,0.9470618963241577,0.0,0.0,0.0,0.0,0.0,0.0,0.0,0.0,0.0,-37.44715881347656,0.3468065857887268,-0.7082827687263489,0.0,0.0,0.0,0.0,0.0,0.0,0.0,0.0,0.0,-0.012967966496944427,0.00469682551920414,0.03626268357038498,0.0,0.0,0.0,0.0,0.0,0.0,0.0,0.0,0.0
1606990796048787324,3879479,1606987194856978075,imu_link,-0.00488295080140233,0.00485179154202342,-0.320977121591568,0.9470618963241577,0.0,0.0,0.0,0.0,0.0,0.0,0.0,0.0,0.0,-37.447120666503906,0.34694308042526245,-0.7084097862243652,0.0,0.0,0.0,0.0,0.0,0.0,0.0,0.0,0.0,-0.021231215447187424,0.0007960906950756907,0.02649511955678463,0.0,0.0,0.0,0.0,0.0,0.0,0.0,0.0,0.0
1606990796048841466,3879480,1606987194857054822,imu_link,-0.00488295080140233,0.00485179154202342,-0.320977121591568,0.9470618963241577,0.0,0.0,0.0,0.0,0.0,0.0,0.0,0.0,0.0,-37.447120666503906,0.34694308042526245,-0.7084097862243652,0.0,0.0,0.0,0.0,0.0,0.0,0.0,0.0,0.0,-0.021231215447187424,0.0007960906950756907,0.02649511955678463,0.0,0.0,0.0,0.0,0.0,0.0,0.0,0.0,0.0
1606990796048854587,3879481,1606987194857150786,imu_link,-0.004884619265794754,0.004848272539675236,-0.32097524404525757,0.947062611579895,0.0,0.0,0.0,0.0,0.0,0.0,0.0,0.0,0.0,-37.44688415527344,0.34650126099586487,-0.7084606289863586,0.0,0.0,0.0,0.0,0.0,0.0,0.0,0.0,0.0,0.013128465041518211,-0.007512315176427364,0.048057205975055695,0.0,0.0,0.0,0.0,0.0,0.0,0.0,0.0,0.0
1606990796048863367,3879482,1606987194857224156,imu_link,-0.004884619265794754,0.004848272539675236,-0.32097524404525757,0.947062611579895,0.0,0.0,0.0,0.0,0.0,0.0,0.0,0.0,0.0,-37.44688415527344,0.34650126099586487,-0.7084606289863586,0.0,0.0,0.0,0.0,0.0,0.0,0.0,0.0,0.0,0.013128465041518211,-0.007512315176427364,0.048057205975055695,0.0,0.0,0.0,0.0,0.0,0.0,0.0,0.0,0.0
1606990796054547696,3879483,1606987194857313631,imu_link,-0.004885150119662285,0.0048475563526153564,-0.3209763467311859,0.9470621943473816,0.0,0.0,0.0,0.0,0.0,0.0,0.0,0.0,0.0,-37.447017669677734,0.34640318155288696,-0.7084923386573792,0.0,0.0,0.0,0.0,0.0,0.0,0.0,0.0,0.0,0.01879969984292984,7.738306885585189e-05,0.0650269016623497,0.0,0.0,0.0,0.0,0.0,0.0,0.0,0.0,0.0
1606990796054576708,3879484,1606987194857378269,imu_link,-0.004885150119662285,0.0048475563526153564,-0.3209763467311859,0.9470621943473816,0.0,0.0,0.0,0.0,0.0,0.0,0.0,0.0,0.0,-37.447017669677734,0.34640318155288696,-0.7084923386573792,0.0,0.0,0.0,0.0,0.0,0.0,0.0,0.0,0.0,0.01879969984292984,7.738306885585189e-05,0.0650269016623497,0.0,0.0,0.0,0.0,0.0,0.0,0.0,0.0,0.0
1606990796054589062,3879485,1606987194857443236,imu_link,-0.00488465279340744,0.004850705154240131,-0.3209770619869232,0.9470620155334473,0.0,0.0,0.0,0.0,0.0,0.0,0.0,0.0,0.0,-37.447105407714844,0.34676268696784973,-0.7085544466972351,0.0,0.0,0.0,0.0,0.0,0.0,0.0,0.0,0.0,0.008207220584154129,0.007670726161450148,0.05627264827489853,0.0,0.0,0.0,0.0,0.0,0.0,0.0,0.0,0.0
1606990796054603575,3879486,1606987194870377275,imu_link,-0.00488465279340744,0.004850705154240131,-0.3209770619869232,0.9470620155334473,0.0,0.0,0.0,0.0,0.0,0.0,0.0,0.0,0.0,-37.447105407714844,0.34676268696784973,-0.7085544466972351,0.0,0.0,0.0,0.0,0.0,0.0,0.0,0.0,0.0,0.008207220584154129,0.007670726161450148,0.05627264827489853,0.0,0.0,0.0,0.0,0.0,0.0,0.0,0.0,0.0
1606990796064090206,3879487,1606987194870485445,imu_link,-0.0048829298466444016,0.004850177094340324,-0.32097846269607544,0.9470615386962891,0.0,0.0,0.0,0.0,0.0,0.0,0.0,0.0,0.0,-37.4472770690918,0.34676769375801086,-0.7083486318588257,0.0,0.0,0.0,0.0,0.0,0.0,0.0,0.0,0.0,0.011871494352817535,0.012928991578519344,0.06195840612053871,0.0,0.0,0.0,0.0,0.0,0.0,0.0,0.0,0.0
1606990796064141459,3879488,1606987194870634350,imu_link,-0.0048829298466444016,0.004850177094340324,-0.32097846269607544,0.9470615386962891,0.0,0.0,0.0,0.0,0.0,0.0,0.0,0.0,0.0,-37.4472770690918,0.34676769375801086,-0.7083486318588257,0.0,0.0,0.0,0.0,0.0,0.0,0.0,0.0,0.0,0.011871494352817535,0.012928991578519344,0.06195840612053871,0.0,0.0,0.0,0.0,0.0,0.0,0.0,0.0,0.0
1606990796064168446,3879489,1606987194870701549,imu_link,-0.00488444184884429,0.004852721933275461,-0.32097765803337097,0.9470617771148682,0.0,0.0,0.0,0.0,0.0,0.0,0.0,0.0,0.0,-37.44718551635742,0.34698882699012756,-0.7086060643196106,0.0,0.0,0.0,0.0,0.0,0.0,0.0,0.0,0.0,-0.004134755115956068,0.008011105470359325,0.09362691640853882,0.0,0.0,0.0,0.0,0.0,0.0,0.0,0.0,0.0
1606990796064179747,3879490,1606987194870770252,imu_link,-0.00488444184884429,0.004852721933275461,-0.32097765803337097,0.9470617771148682,0.0,0.0,0.0,0.0,0.0,0.0,0.0,0.0,0.0,-37.44718551635742,0.34698882699012756,-0.7086060643196106,0.0,0.0,0.0,0.0,0.0,0.0,0.0,0.0,0.0,-0.004134755115956068,0.008011105470359325,0.09362691640853882,0.0,0.0,0.0,0.0,0.0,0.0,0.0,0.0,0.0
1606990796064197874,3879491,1606987194870840687,imu_link,-0.004886906128376722,0.004851586185395718,-0.3209775984287262,0.9470617771148682,0.0,0.0,0.0,0.0,0.0,0.0,0.0,0.0,0.0,-37.44717788696289,0.34677496552467346,-0.7088316679000854,0.0,0.0,0.0,0.0,0.0,0.0,0.0,0.0,0.0,-0.011255449615418911,0.0005917416419833899,0.0938611850142479,0.0,0.0,0.0,0.0,0.0,0.0,0.0,0.0,0.0
1606990796192882633,3879492,1606987194870974935,imu_link,-0.004886906128376722,0.004851586185395718,-0.3209775984287262,0.9470617771148682,0.0,0.0,0.0,0.0,0.0,0.0,0.0,0.0,0.0,-37.44717788696289,0.34677496552467346,-0.7088316679000854,0.0,0.0,0.0,0.0,0.0,0.0,0.0,0.0,0.0,-0.011255449615418911,0.0005917416419833899,0.0938611850142479,0.0,0.0,0.0,0.0,0.0,0.0,0.0,0.0,0.0
1606990796192922865,3879493,1606987194871060351,imu_link,-0.004887647461146116,0.0048493752256035805,-0.32098448276519775,0.9470594525337219,0.0,0.0,0.0,0.0,0.0,0.0,0.0,0.0,0.0,-37.44800567626953,0.3465026617050171,-0.7088332176208496,0.0,0.0,0.0,0.0,0.0,0.0,0.0,0.0,0.0,0.015333261340856552,-0.003261885605752468,0.06376482546329498,0.0,0.0,0.0,0.0,0.0,0.0,0.0,0.0,0.0
1606990796192932712,3879494,1606987194871137311,imu_link,-0.004887647461146116,0.0048493752256035805,-0.32098448276519775,0.9470594525337219,0.0,0.0,0.0,0.0,0.0,0.0,0.0,0.0,0.0,-37.44800567626953,0.3465026617050171,-0.7088332176208496,0.0,0.0,0.0,0.0,0.0,0.0,0.0,0.0,0.0,0.015333261340856552,-0.003261885605752468,0.06376482546329498,0.0,0.0,0.0,0.0,0.0,0.0,0.0,0.0,0.0
1606990796192940228,3879495,1606987194871210471,imu_link,-0.0048883031122386456,0.004849516786634922,-0.32098308205604553,0.9470599293708801,0.0,0.0,0.0,0.0,0.0,0.0,0.0,0.0,0.0,-37.44783401489258,0.3464949131011963,-0.7089091539382935,0.0,0.0,0.0,0.0,0.0,0.0,0.0,0.0,0.0,0.011873790994286537,-0.02068442665040493,0.04733148217201233,0.0,0.0,0.0,0.0,0.0,0.0,0.0,0.0,0.0
1606990796200110843,3879496,1606987194871284768,imu_link,-0.0048883031122386456,0.004849516786634922,-0.32098308205604553,0.9470599293708801,0.0,0.0,0.0,0.0,0.0,0.0,0.0,0.0,0.0,-37.44783401489258,0.3464949131011963,-0.7089091539382935,0.0,0.0,0.0,0.0,0.0,0.0,0.0,0.0,0.0,0.011873790994286537,-0.02068442665040493,0.04733148217201233,0.0,0.0,0.0,0.0,0.0,0.0,0.0,0.0,0.0
1606990796200131708,3879497,1606987194883869104,imu_link,-0.004880127497017384,0.004851640667766333,-0.32098954916000366,0.9470577836036682,0.0,0.0,0.0,0.0,0.0,0.0,0.0,0.0,0.0,-37.44861602783203,0.3470213711261749,-0.7081023454666138,0.0,0.0,0.0,0.0,0.0,0.0,0.0,0.0,0.0,0.007726254872977734,-0.008482933044433594,0.04707128554582596,0.0,0.0,0.0,0.0,0.0,0.0,0.0,0.0,0.0
1606990796200147842,3879498,1606987194883997116,imu_link,-0.004880127497017384,0.004851640667766333,-0.32098954916000366,0.9470577836036682,0.0,0.0,0.0,0.0,0.0,0.0,0.0,0.0,0.0,-37.44861602783203,0.3470213711261749,-0.7081023454666138,0.0,0.0,0.0,0.0,0.0,0.0,0.0,0.0,0.0,0.007726254872977734,-0.008482933044433594,0.04707128554582596,0.0,0.0,0.0,0.0,0.0,0.0,0.0,0.0,0.0
1606990796200161152,3879499,1606987194884136698,imu_link,-0.004881648812443018,0.004852898884564638,-0.3209860324859619,0.947058916091919,0.0,0.0,0.0,0.0,0.0,0.0,0.0,0.0,0.0,-37.44819641113281,0.347104549407959,-0.7083125114440918,0.0,0.0,0.0,0.0,0.0,0.0,0.0,0.0,0.0,0.012232176959514618,0.013054742477834225,0.04331228882074356,0.0,0.0,0.0,0.0,0.0,0.0,0.0,0.0,0.0
1606990796254080079,3879500,1606987194884221921,imu_link,-0.004881648812443018,0.004852898884564638,-0.3209860324859619,0.947058916091919,0.0,0.0,0.0,0.0,0.0,0.0,0.0,0.0,0.0,-37.44819641113281,0.347104549407959,-0.7083125114440918,0.0,0.0,0.0,0.0,0.0,0.0,0.0,0.0,0.0,0.012232176959514618,0.013054742477834225,0.04331228882074356,0.0,0.0,0.0,0.0,0.0,0.0,0.0,0.0,0.0
1606990796254121712,3879501,1606987194884293674,imu_link,-0.004886170383542776,0.004854610655456781,-0.3209882378578186,0.9470581412315369,0.0,0.0,0.0,0.0,0.0,0.0,0.0,0.0,0.0,-37.44846725463867,0.3471223711967468,-0.7088670134544373,0.0,0.0,0.0,0.0,0.0,0.0,0.0,0.0,0.0,0.00226927874609828,0.01665857434272766,0.05123292654752731,0.0,0.0,0.0,0.0,0.0,0.0,0.0,0.0,0.0
1606990796254146590,3879502,1606987194884384292,imu_link,-0.004886170383542776,0.004854610655456781,-0.3209882378578186,0.9470581412315369,0.0,0.0,0.0,0.0,0.0,0.0,0.0,0.0,0.0,-37.44846725463867,0.3471223711967468,-0.7088670134544373,0.0,0.0,0.0,0.0,0.0,0.0,0.0,0.0,0.0,0.00226927874609828,0.01665857434272766,0.05123292654752731,0.0,0.0,0.0,0.0,0.0,0.0,0.0,0.0,0.0
1606990796254158333,3879503,1606987194884457516,imu_link,-0.004884222988039255,0.004854275844991207,-0.3209863305091858,0.9470587968826294,0.0,0.0,0.0,0.0,0.0,0.0,0.0,0.0,0.0,-37.44823455810547,0.34715908765792847,-0.7086426019668579,0.0,0.0,0.0,0.0,0.0,0.0,0.0,0.0,0.0,0.0009667106787674129,0.012756435200572014,0.046090275049209595,0.0,0.0,0.0,0.0,0.0,0.0,0.0,0.0,0.0
1606990796254182249,3879504,1606987194884534721,imu_link,-0.004884222988039255,0.004854275844991207,-0.3209863305091858,0.9470587968826294,0.0,0.0,0.0,0.0,0.0,0.0,0.0,0.0,0.0,-37.44823455810547,0.34715908765792847,-0.7086426019668579,0.0,0.0,0.0,0.0,0.0,0.0,0.0,0.0,0.0,0.0009667106787674129,0.012756435200572014,0.046090275049209595,0.0,0.0,0.0,0.0,0.0,0.0,0.0,0.0,0.0
1606990796286340681,3879505,1606987194884607708,imu_link,-0.0048871710896492004,0.004855495411902666,-0.3209879398345947,0.9470582604408264,0.0,0.0,0.0,0.0,0.0,0.0,0.0,0.0,0.0,-37.448429107666016,0.3471817374229431,-0.709007978439331,0.0,0.0,0.0,0.0,0.0,0.0,0.0,0.0,0.0,-0.01200947631150484,-0.00026046036509796977,0.03975322097539902,0.0,0.0,0.0,0.0,0.0,0.0,0.0,0.0,0.0
1606990796286371614,3879506,1606987194884680053,imu_link,-0.0048871710896492004,0.004855495411902666,-0.3209879398345947,0.9470582604408264,0.0,0.0,0.0,0.0,0.0,0.0,0.0,0.0,0.0,-37.448429107666016,0.3471817374229431,-0.709007978439331,0.0,0.0,0.0,0.0,0.0,0.0,0.0,0.0,0.0,-0.01200947631150484,-0.00026046036509796977,0.03975322097539902,0.0,0.0,0.0,0.0,0.0,0.0,0.0,0.0,0.0
1606990796286423997,3879507,1606987194884744602,imu_link,-0.0048862057738006115,0.004856870975345373,-0.3209872543811798,0.9470584988594055,0.0,0.0,0.0,0.0,0.0,0.0,0.0,0.0,0.0,-37.44834899902344,0.3473670780658722,-0.7089535593986511,0.0,0.0,0.0,0.0,0.0,0.0,0.0,0.0,0.0,-0.0031084248330444098,-0.0060797990299761295,0.055956773459911346,0.0,0.0,0.0,0.0,0.0,0.0,0.0,0.0,0.0
1606990796286450583,3879508,1606987194896777077,imu_link,-0.0048862057738006115,0.004856870975345373,-0.3209872543811798,0.9470584988594055,0.0,0.0,0.0,0.0,0.0,0.0,0.0,0.0,0.0,-37.44834899902344,0.3473670780658722,-0.7089535593986511,0.0,0.0,0.0,0.0,0.0,0.0,0.0,0.0,0.0,-0.0031084248330444098,-0.0060797990299761295,0.055956773459911346,0.0,0.0,0.0,0.0,0.0,0.0,0.0,0.0,0.0
1606990796300187571,3879509,1606987194896915241,imu_link,-0.004884062800556421,0.0048563312739133835,-0.32097578048706055,0.9470624327659607,0.0,0.0,0.0,0.0,0.0,0.0,0.0,0.0,0.0,-37.446956634521484,0.34739595651626587,-0.7086969614028931,0.0,0.0,0.0,0.0,0.0,0.0,0.0,0.0,0.0,0.009514032863080502,0.0017975653754547238,0.0773463249206543,0.0,0.0,0.0,0.0,0.0,0.0,0.0,0.0,0.0
1606990796300238652,3879510,1606987194897114618,imu_link,-0.004884062800556421,0.0048563312739133835,-0.32097578048706055,0.9470624327659607,0.0,0.0,0.0,0.0,0.0,0.0,0.0,0.0,0.0,-37.446956634521484,0.34739595651626587,-0.7086969614028931,0.0,0.0,0.0,0.0,0.0,0.0,0.0,0.0,0.0,0.009514032863080502,0.0017975653754547238,0.0773463249206543,0.0,0.0,0.0,0.0,0.0,0.0,0.0,0.0,0.0
1606990796300258742,3879511,1606987194897209222,imu_link,-0.00488436920568347,0.004856635816395283,-0.320974737405777,0.9470626711845398,0.0,0.0,0.0,0.0,0.0,0.0,0.0,0.0,0.0,-37.446834564208984,0.3474184572696686,-0.7087411284446716,0.0,0.0,0.0,0.0,0.0,0.0,0.0,0.0,0.0,-0.0009555171127431095,0.004365335218608379,0.09213229268789291,0.0,0.0,0.0,0.0,0.0,0.0,0.0,0.0,0.0
1606990796300287613,3879512,1606987194897339438,imu_link,-0.00488436920568347,0.004856635816395283,-0.320974737405777,0.9470626711845398,0.0,0.0,0.0,0.0,0.0,0.0,0.0,0.0,0.0,-37.446834564208984,0.3474184572696686,-0.7087411284446716,0.0,0.0,0.0,0.0,0.0,0.0,0.0,0.0,0.0,-0.0009555171127431095,0.004365335218608379,0.09213229268789291,0.0,0.0,0.0,0.0,0.0,0.0,0.0,0.0,0.0
1606990796300312282,3879513,1606987194897447749,imu_link,-0.004884468391537666,0.004855753388255835,-0.3209661841392517,0.9470657110214233,0.0,0.0,0.0,0.0,0.0,0.0,0.0,0.0,0.0,-37.445796966552734,0.34732550382614136,-0.7087162137031555,0.0,0.0,0.0,0.0,0.0,0.0,0.0,0.0,0.0,-0.014825944788753986,0.0021400272380560637,0.07503985613584518,0.0,0.0,0.0,0.0,0.0,0.0,0.0,0.0,0.0
1606990796357093642,3879514,1606987194897530861,imu_link,-0.004884468391537666,0.004855753388255835,-0.3209661841392517,0.9470657110214233,0.0,0.0,0.0,0.0,0.0,0.0,0.0,0.0,0.0,-37.445796966552734,0.34732550382614136,-0.7087162137031555,0.0,0.0,0.0,0.0,0.0,0.0,0.0,0.0,0.0,-0.014825944788753986,0.0021400272380560637,0.07503985613584518,0.0,0.0,0.0,0.0,0.0,0.0,0.0,0.0,0.0
1606990796357152216,3879515,1606987194897615688,imu_link,-0.004883005749434233,0.004855816252529621,-0.3209662139415741,0.9470657110214233,0.0,0.0,0.0,0.0,0.0,0.0,0.0,0.0,0.0,-37.44580078125,0.34738612174987793,-0.7085597515106201,0.0,0.0,0.0,0.0,0.0,0.0,0.0,0.0,0.0,-0.010291062295436859,-0.0016999586950987577,0.05935139209032059,0.0,0.0,0.0,0.0,0.0,0.0,0.0,0.0,0.0
1606990796357187747,3879516,1606987194897701917,imu_link,-0.004883005749434233,0.004855816252529621,-0.3209662139415741,0.9470657110214233,0.0,0.0,0.0,0.0,0.0,0.0,0.0,0.0,0.0,-37.44580078125,0.34738612174987793,-0.7085597515106201,0.0,0.0,0.0,0.0,0.0,0.0,0.0,0.0,0.0,-0.010291062295436859,-0.0016999586950987577,0.05935139209032059,0.0,0.0,0.0,0.0,0.0,0.0,0.0,0.0,0.0
1606990796357220209,3879517,1606987194897781782,imu_link,-0.004885037429630756,0.004854576662182808,-0.32097119092941284,0.9470639228820801,0.0,0.0,0.0,0.0,0.0,0.0,0.0,0.0,0.0,-37.4463996887207,0.3471730947494507,-0.7087365388870239,0.0,0.0,0.0,0.0,0.0,0.0,0.0,0.0,0.0,-0.0036442389246076345,0.005516109988093376,0.059601135551929474,0.0,0.0,0.0,0.0,0.0,0.0,0.0,0.0,0.0
1606990796416406203,3879518,1606987194910506403,imu_link,-0.004885037429630756,0.004854576662182808,-0.32097119092941284,0.9470639228820801,0.0,0.0,0.0,0.0,0.0,0.0,0.0,0.0,0.0,-37.4463996887207,0.3471730947494507,-0.7087365388870239,0.0,0.0,0.0,0.0,0.0,0.0,0.0,0.0,0.0,-0.0036442389246076345,0.005516109988093376,0.059601135551929474,0.0,0.0,0.0,0.0,0.0,0.0,0.0,0.0,0.0
1606990796416460737,3879519,1606987194910610185,imu_link,-0.004886013921350241,0.0048528709448874,-0.32097190618515015,0.947063684463501,0.0,0.0,0.0,0.0,0.0,0.0,0.0,0.0,0.0,-37.44649124145508,0.3469514846801758,-0.7087799906730652,0.0,0.0,0.0,0.0,0.0,0.0,0.0,0.0,0.0,-0.007275065872818232,-0.001722034765407443,0.06556796282529831,0.0,0.0,0.0,0.0,0.0,0.0,0.0,0.0,0.0
1606990796416483939,3879520,1606987194910714459,imu_link,-0.004886013921350241,0.0048528709448874,-0.32097190618515015,0.947063684463501,0.0,0.0,0.0,0.0,0.0,0.0,0.0,0.0,0.0,-37.44649124145508,0.3469514846801758,-0.7087799906730652,0.0,0.0,0.0,0.0,0.0,0.0,0.0,0.0,0.0,-0.007275065872818232,-0.001722034765407443,0.06556796282529831,0.0,0.0,0.0,0.0,0.0,0.0,0.0,0.0,0.0
1606990796416498480,3879521,1606987194910832029,imu_link,-0.004886369686573744,0.004850263707339764,-0.320975124835968,0.947062611579895,0.0,0.0,0.0,0.0,0.0,0.0,0.0,0.0,0.0,-37.44687271118164,0.346653014421463,-0.7087238430976868,0.0,0.0,0.0,0.0,0.0,0.0,0.0,0.0,0.0,-0.0017054834170266986,-0.0020351118873804808,0.04791884496808052,0.0,0.0,0.0,0.0,0.0,0.0,0.0,0.0,0.0
1606990796416512919,3879522,1606987194910901317,imu_link,-0.004886369686573744,0.004850263707339764,-0.320975124835968,0.947062611579895,0.0,0.0,0.0,0.0,0.0,0.0,0.0,0.0,0.0,-37.44687271118164,0.346653014421463,-0.7087238430976868,0.0,0.0,0.0,0.0,0.0,0.0,0.0,0.0,0.0,-0.0017054834170266986,-0.0020351118873804808,0.04791884496808052,0.0,0.0,0.0,0.0,0.0,0.0,0.0,0.0,0.0
1606990796426926441,3879523,1606987194911000339,imu_link,-0.004887836053967476,0.004847800824791193,-0.3209741413593292,0.9470629692077637,0.0,0.0,0.0,0.0,0.0,0.0,0.0,0.0,0.0,-37.446754455566406,0.3463325798511505,-0.7087920904159546,0.0,0.0,0.0,0.0,0.0,0.0,0.0,0.0,0.0,0.006356113124638796,0.007235472556203604,0.021897615864872932,0.0,0.0,0.0,0.0,0.0,0.0,0.0,0.0,0.0
1606990796426961350,3879524,1606987194911084974,imu_link,-0.004887836053967476,0.004847800824791193,-0.3209741413593292,0.9470629692077637,0.0,0.0,0.0,0.0,0.0,0.0,0.0,0.0,0.0,-37.446754455566406,0.3463325798511505,-0.7087920904159546,0.0,0.0,0.0,0.0,0.0,0.0,0.0,0.0,0.0,0.006356113124638796,0.007235472556203604,0.021897615864872932,0.0,0.0,0.0,0.0,0.0,0.0,0.0,0.0,0.0
1606990796426973997,3879525,1606987194911142235,imu_link,-0.004890337120741606,0.004848398268222809,-0.32097238302230835,0.9470635652542114,0.0,0.0,0.0,0.0,0.0,0.0,0.0,0.0,0.0,-37.4465446472168,0.346306711435318,-0.7090848088264465,0.0,0.0,0.0,0.0,0.0,0.0,0.0,0.0,0.0,0.001597943832166493,0.0025778808631002903,0.030719410628080368,0.0,0.0,0.0,0.0,0.0,0.0,0.0,0.0,0.0
1606990796426984979,3879526,1606987194911201816,imu_link,-0.004890337120741606,0.004848398268222809,-0.32097238302230835,0.9470635652542114,0.0,0.0,0.0,0.0,0.0,0.0,0.0,0.0,0.0,-37.4465446472168,0.346306711435318,-0.7090848088264465,0.0,0.0,0.0,0.0,0.0,0.0,0.0,0.0,0.0,0.001597943832166493,0.0025778808631002903,0.030719410628080368,0.0,0.0,0.0,0.0,0.0,0.0,0.0,0.0,0.0
1606990796432686341,3879527,1606987194911260826,imu_link,-0.004890086594969034,0.004846934229135513,-0.3209731876850128,0.9470632672309875,0.0,0.0,0.0,0.0,0.0,0.0,0.0,0.0,0.0,-37.44663619995117,0.34615644812583923,-0.7090040445327759,0.0,0.0,0.0,0.0,0.0,0.0,0.0,0.0,0.0,-0.0027139284648001194,0.013607040978968143,0.0406898558139801,0.0,0.0,0.0,0.0,0.0,0.0,0.0,0.0,0.0
1606990796432709641,3879528,1606987194911321037,imu_link,-0.004890086594969034,0.004846934229135513,-0.3209731876850128,0.9470632672309875,0.0,0.0,0.0,0.0,0.0,0.0,0.0,0.0,0.0,-37.44663619995117,0.34615644812583923,-0.7090040445327759,0.0,0.0,0.0,0.0,0.0,0.0,0.0,0.0,0.0,-0.0027139284648001194,0.013607040978968143,0.0406898558139801,0.0,0.0,0.0,0.0,0.0,0.0,0.0,0.0,0.0
1606990796432718026,3879529,1606987194923968747,imu_link,-0.004891732707619667,0.00484710605815053,-0.3209730386734009,0.9470633268356323,0.0,0.0,0.0,0.0,0.0,0.0,0.0,0.0,0.0,-37.44662094116211,0.3461146652698517,-0.7091889381408691,0.0,0.0,0.0,0.0,0.0,0.0,0.0,0.0,0.0,-5.211911047808826e-05,0.004938783124089241,0.054985277354717255,0.0,0.0,0.0,0.0,0.0,0.0,0.0,0.0,0.0
1606990796432747648,3879530,1606987194924070369,imu_link,-0.004891732707619667,0.00484710605815053,-0.3209730386734009,0.9470633268356323,0.0,0.0,0.0,0.0,0.0,0.0,0.0,0.0,0.0,-37.44662094116211,0.3461146652698517,-0.7091889381408691,0.0,0.0,0.0,0.0,0.0,0.0,0.0,0.0,0.0,-5.211911047808826e-05,0.004938783124089241,0.054985277354717255,0.0,0.0,0.0,0.0,0.0,0.0,0.0,0.0,0.0
1606990796432766532,3879531,1606987194924175453,imu_link,-0.004890854470431805,0.0048464210703969,-0.32097309827804565,0.9470633268356323,0.0,0.0,0.0,0.0,0.0,0.0,0.0,0.0,0.0,-37.44662094116211,0.34607261419296265,-0.7090685367584229,0.0,0.0,0.0,0.0,0.0,0.0,0.0,0.0,0.0,0.011395753361284733,0.005635756067931652,0.04706190899014473,0.0,0.0,0.0,0.0,0.0,0.0,0.0,0.0,0.0
1606990796439576650,3879532,1606987194924253522,imu_link,-0.004890854470431805,0.0048464210703969,-0.32097309827804565,0.9470633268356323,0.0,0.0,0.0,0.0,0.0,0.0,0.0,0.0,0.0,-37.44662094116211,0.34607261419296265,-0.7090685367584229,0.0,0.0,0.0,0.0,0.0,0.0,0.0,0.0,0.0,0.011395753361284733,0.005635756067931652,0.04706190899014473,0.0,0.0,0.0,0.0,0.0,0.0,0.0,0.0,0.0
1606990796439615726,3879533,1606987194924327588,imu_link,-0.00489040557295084,0.004848592448979616,-0.3209740221500397,0.9470630288124084,0.0,0.0,0.0,0.0,0.0,0.0,0.0,0.0,0.0,-37.446739196777344,0.3463241159915924,-0.7090998888015747,0.0,0.0,0.0,0.0,0.0,0.0,0.0,0.0,0.0,0.01763446070253849,0.011500752530992031,0.03554492071270943,0.0,0.0,0.0,0.0,0.0,0.0,0.0,0.0,0.0
1606990796439627642,3879534,1606987194924392648,imu_link,-0.00489040557295084,0.004848592448979616,-0.3209740221500397,0.9470630288124084,0.0,0.0,0.0,0.0,0.0,0.0,0.0,0.0,0.0,-37.446739196777344,0.3463241159915924,-0.7090998888015747,0.0,0.0,0.0,0.0,0.0,0.0,0.0,0.0,0.0,0.01763446070253849,0.011500752530992031,0.03554492071270943,0.0,0.0,0.0,0.0,0.0,0.0,0.0,0.0,0.0
1606990796439649544,3879535,1606987194924479219,imu_link,-0.004893386270850897,0.004846688359975815,-0.32097527384757996,0.947062611579895,0.0,0.0,0.0,0.0,0.0,0.0,0.0,0.0,0.0,-37.4468879699707,0.3460068702697754,-0.7093538641929626,0.0,0.0,0.0,0.0,0.0,0.0,0.0,0.0,0.0,-0.0045689782127738,0.006490666419267654,0.049359556287527084,0.0,0.0,0.0,0.0,0.0,0.0,0.0,0.0,0.0
1606990796592701175,3879536,1606987194924556387,imu_link,-0.004893386270850897,0.004846688359975815,-0.32097527384757996,0.947062611579895,0.0,0.0,0.0,0.0,0.0,0.0,0.0,0.0,0.0,-37.4468879699707,0.3460068702697754,-0.7093538641929626,0.0,0.0,0.0,0.0,0.0,0.0,0.0,0.0,0.0,-0.0045689782127738,0.006490666419267654,0.049359556287527084,0.0,0.0,0.0,0.0,0.0,0.0,0.0,0.0,0.0
1606990796592740669,3879537,1606987194924630943,imu_link,-0.004895568359643221,0.004845852963626385,-0.32097598910331726,0.9470623135566711,0.0,0.0,0.0,0.0,0.0,0.0,0.0,0.0,0.0,-37.44697952270508,0.3458353877067566,-0.7095602750778198,0.0,0.0,0.0,0.0,0.0,0.0,0.0,0.0,0.0,-0.006169463042169809,0.010988624766469002,0.061280958354473114,0.0,0.0,0.0,0.0,0.0,0.0,0.0,0.0,0.0
1606990796592751533,3879538,1606987194924702504,imu_link,-0.004895568359643221,0.004845852963626385,-0.32097598910331726,0.9470623135566711,0.0,0.0,0.0,0.0,0.0,0.0,0.0,0.0,0.0,-37.44697952270508,0.3458353877067566,-0.7095602750778198,0.0,0.0,0.0,0.0,0.0,0.0,0.0,0.0,0.0,-0.006169463042169809,0.010988624766469002,0.061280958354473114,0.0,0.0,0.0,0.0,0.0,0.0,0.0,0.0,0.0
1606990796592756905,3879539,1606987194924774582,imu_link,-0.004894436802715063,0.004846515599638224,-0.32097408175468445,0.9470629692077637,0.0,0.0,0.0,0.0,0.0,0.0,0.0,0.0,0.0,-37.44675064086914,0.34595030546188354,-0.7094610929489136,0.0,0.0,0.0,0.0,0.0,0.0,0.0,0.0,0.0,0.0046221106313169,0.00541571294888854,0.04973652586340904,0.0,0.0,0.0,0.0,0.0,0.0,0.0,0.0,0.0
1606990796592767674,3879540,1606987194937876149,imu_link,-0.004894436802715063,0.004846515599638224,-0.32097408175468445,0.9470629692077637,0.0,0.0,0.0,0.0,0.0,0.0,0.0,0.0,0.0,-37.44675064086914,0.34595030546188354,-0.7094610929489136,0.0,0.0,0.0,0.0,0.0,0.0,0.0,0.0,0.0,0.0046221106313169,0.00541571294888854,0.04973652586340904,0.0,0.0,0.0,0.0,0.0,0.0,0.0,0.0,0.0
1606990796604028077,3879541,1606987194938000580,imu_link,-0.004894850309938192,0.004846435040235519,-0.320978045463562,0.9470615983009338,0.0,0.0,0.0,0.0,0.0,0.0,0.0,0.0,0.0,-37.447227478027344,0.34592342376708984,-0.7095044255256653,0.0,0.0,0.0,0.0,0.0,0.0,0.0,0.0,0.0,-0.0032278206199407578,-0.006681250873953104,0.025578845292329788,0.0,0.0,0.0,0.0,0.0,0.0,0.0,0.0,0.0
1606990796604108867,3879542,1606987194938146980,imu_link,-0.004894850309938192,0.004846435040235519,-0.320978045463562,0.9470615983009338,0.0,0.0,0.0,0.0,0.0,0.0,0.0,0.0,0.0,-37.447227478027344,0.34592342376708984,-0.7095044255256653,0.0,0.0,0.0,0.0,0.0,0.0,0.0,0.0,0.0,-0.0032278206199407578,-0.006681250873953104,0.025578845292329788,0.0,0.0,0.0,0.0,0.0,0.0,0.0,0.0,0.0
1606990796604119721,3879543,1606987194938231740,imu_link,-0.00489587290212512,0.0048471614718437195,-0.32097676396369934,0.9470620155334473,0.0,0.0,0.0,0.0,0.0,0.0,0.0,0.0,0.0,-37.44707489013672,0.34596556425094604,-0.709641695022583,0.0,0.0,0.0,0.0,0.0,0.0,0.0,0.0,0.0,-0.006620602682232857,-0.006890364922583103,0.03334800526499748,0.0,0.0,0.0,0.0,0.0,0.0,0.0,0.0,0.0
1606990796604154703,3879544,1606987194938303907,imu_link,-0.00489587290212512,0.0048471614718437195,-0.32097676396369934,0.9470620155334473,0.0,0.0,0.0,0.0,0.0,0.0,0.0,0.0,0.0,-37.44707489013672,0.34596556425094604,-0.709641695022583,0.0,0.0,0.0,0.0,0.0,0.0,0.0,0.0,0.0,-0.006620602682232857,-0.006890364922583103,0.03334800526499748,0.0,0.0,0.0,0.0,0.0,0.0,0.0,0.0,0.0
1606990796638151834,3879545,1606987194938398541,imu_link,-0.004894969519227743,0.004847095347940922,-0.32097938656806946,0.9470611810684204,0.0,0.0,0.0,0.0,0.0,0.0,0.0,0.0,0.0,-37.4473876953125,0.34598973393440247,-0.7095421552658081,0.0,0.0,0.0,0.0,0.0,0.0,0.0,0.0,0.0,0.0032803891226649284,-0.002326373476535082,0.060152582824230194,0.0,0.0,0.0,0.0,0.0,0.0,0.0,0.0,0.0
1606990796638177924,3879546,1606987194938471104,imu_link,-0.004894969519227743,0.004847095347940922,-0.32097938656806946,0.9470611810684204,0.0,0.0,0.0,0.0,0.0,0.0,0.0,0.0,0.0,-37.4473876953125,0.34598973393440247,-0.7095421552658081,0.0,0.0,0.0,0.0,0.0,0.0,0.0,0.0,0.0,0.0032803891226649284,-0.002326373476535082,0.060152582824230194,0.0,0.0,0.0,0.0,0.0,0.0,0.0,0.0,0.0
1606990796638188561,3879547,1606987194938616886,imu_link,-0.004895369987934828,0.004846374969929457,-0.3209800124168396,0.9470609426498413,0.0,0.0,0.0,0.0,0.0,0.0,0.0,0.0,0.0,-37.44746398925781,0.34589630365371704,-0.7095593214035034,0.0,0.0,0.0,0.0,0.0,0.0,0.0,0.0,0.0,-0.006956066470593214,-0.007511167787015438,0.08622171729803085,0.0,0.0,0.0,0.0,0.0,0.0,0.0,0.0,0.0
1606990796638198327,3879548,1606987194938691636,imu_link,-0.004895369987934828,0.004846374969929457,-0.3209800124168396,0.9470609426498413,0.0,0.0,0.0,0.0,0.0,0.0,0.0,0.0,0.0,-37.44746398925781,0.34589630365371704,-0.7095593214035034,0.0,0.0,0.0,0.0,0.0,0.0,0.0,0.0,0.0,-0.006956066470593214,-0.007511167787015438,0.08622171729803085,0.0,0.0,0.0,0.0,0.0,0.0,0.0,0.0,0.0
1606990796638216289,3879549,1606987194938759593,imu_link,-0.004894700367003679,0.004848077427595854,-0.3209764361381531,0.9470621943473816,0.0,0.0,0.0,0.0,0.0,0.0,0.0,0.0,0.0,-37.44702911376953,0.34610843658447266,-0.7095479369163513,0.0,0.0,0.0,0.0,0.0,0.0,0.0,0.0,0.0,-0.008469593711197376,-0.01327750738710165,0.07657964527606964,0.0,0.0,0.0,0.0,0.0,0.0,0.0,0.0,0.0
1606990796646347846,3879550,1606987194938831168,imu_link,-0.004894700367003679,0.004848077427595854,-0.3209764361381531,0.9470621943473816,0.0,0.0,0.0,0.0,0.0,0.0,0.0,0.0,0.0,-37.44702911376953,0.34610843658447266,-0.7095479369163513,0.0,0.0,0.0,0.0,0.0,0.0,0.0,0.0,0.0,-0.008469593711197376,-0.01327750738710165,0.07657964527606964,0.0,0.0,0.0,0.0,0.0,0.0,0.0,0.0,0.0
1606990796646381255,3879551,1606987194950763639,imu_link,-0.004894241224974394,0.0048484764993190765,-0.3209790587425232,0.94706130027771,0.0,0.0,0.0,0.0,0.0,0.0,0.0,0.0,0.0,-37.447349548339844,0.3461666405200958,-0.7095138430595398,0.0,0.0,0.0,0.0,0.0,0.0,0.0,0.0,0.0,0.011886924505233765,0.003833713009953499,0.030279256403446198,0.0,0.0,0.0,0.0,0.0,0.0,0.0,0.0,0.0
1606990796646395362,3879552,1606987194950889927,imu_link,-0.004894241224974394,0.0048484764993190765,-0.3209790587425232,0.94706130027771,0.0,0.0,0.0,0.0,0.0,0.0,0.0,0.0,0.0,-37.447349548339844,0.3461666405200958,-0.7095138430595398,0.0,0.0,0.0,0.0,0.0,0.0,0.0,0.0,0.0,0.011886924505233765,0.003833713009953499,0.030279256403446198,0.0,0.0,0.0,0.0,0.0,0.0,0.0,0.0,0.0
1606990796646407275,3879553,1606987194951082056,imu_link,-0.0048950184136629105,0.004849351942539215,-0.3209756016731262,0.9470624327659607,0.0,0.0,0.0,0.0,0.0,0.0,0.0,0.0,0.0,-37.44693374633789,0.34623560309410095,-0.7096291184425354,0.0,0.0,0.0,0.0,0.0,0.0,0.0,0.0,0.0,0.02049504593014717,0.010056612081825733,0.02742309309542179,0.0,0.0,0.0,0.0,0.0,0.0,0.0,0.0,0.0
1606990796654252191,3879554,1606987194951167850,imu_link,-0.0048950184136629105,0.004849351942539215,-0.3209756016731262,0.9470624327659607,0.0,0.0,0.0,0.0,0.0,0.0,0.0,0.0,0.0,-37.44693374633789,0.34623560309410095,-0.7096291184425354,0.0,0.0,0.0,0.0,0.0,0.0,0.0,0.0,0.0,0.02049504593014717,0.010056612081825733,0.02742309309542179,0.0,0.0,0.0,0.0,0.0,0.0,0.0,0.0,0.0
1606990796654289578,3879555,1606987194951247301,imu_link,-0.00489680003374815,0.0048511638306081295,-0.3209756910800934,0.9470623731613159,0.0,0.0,0.0,0.0,0.0,0.0,0.0,0.0,0.0,-37.44694900512695,0.34636667370796204,-0.7098892331123352,0.0,0.0,0.0,0.0,0.0,0.0,0.0,0.0,0.0,0.011675157584249973,-0.020386967808008194,0.0803786963224411,0.0,0.0,0.0,0.0,0.0,0.0,0.0,0.0,0.0
1606990796654334457,3879556,1606987194951339666,imu_link,-0.00489680003374815,0.0048511638306081295,-0.3209756910800934,0.9470623731613159,0.0,0.0,0.0,0.0,0.0,0.0,0.0,0.0,0.0,-37.44694900512695,0.34636667370796204,-0.7098892331123352,0.0,0.0,0.0,0.0,0.0,0.0,0.0,0.0,0.0,0.011675157584249973,-0.020386967808008194,0.0803786963224411,0.0,0.0,0.0,0.0,0.0,0.0,0.0,0.0,0.0
1606990796654376812,3879557,1606987194951414380,imu_link,-0.004893357865512371,0.004850869998335838,-0.3209758996963501,0.9470623135566711,0.0,0.0,0.0,0.0,0.0,0.0,0.0,0.0,0.0,-37.44697189331055,0.3464612066745758,-0.7095049023628235,0.0,0.0,0.0,0.0,0.0,0.0,0.0,0.0,0.0,0.0017512926133349538,-0.018170837312936783,0.11111567914485931,0.0,0.0,0.0,0.0,0.0,0.0,0.0,0.0,0.0
1606990796654392779,3879558,1606987194951489559,imu_link,-0.004893357865512371,0.004850869998335838,-0.3209758996963501,0.9470623135566711,0.0,0.0,0.0,0.0,0.0,0.0,0.0,0.0,0.0,-37.44697189331055,0.3464612066745758,-0.7095049023628235,0.0,0.0,0.0,0.0,0.0,0.0,0.0,0.0,0.0,0.0017512926133349538,-0.018170837312936783,0.11111567914485931,0.0,0.0,0.0,0.0,0.0,0.0,0.0,0.0,0.0
1606990796663409097,3879559,1606987194951561940,imu_link,-0.00489439582452178,0.00484892213717103,-0.3209754228591919,0.9470624923706055,0.0,0.0,0.0,0.0,0.0,0.0,0.0,0.0,0.0,-37.4469108581543,0.3462120294570923,-0.7095456719398499,0.0,0.0,0.0,0.0,0.0,0.0,0.0,0.0,0.0,-0.000811482488643378,0.0022817598655819893,0.09078266471624374,0.0,0.0,0.0,0.0,0.0,0.0,0.0,0.0,0.0
1606990796663467605,3879560,1606987194951635283,imu_link,-0.00489439582452178,0.00484892213717103,-0.3209754228591919,0.9470624923706055,0.0,0.0,0.0,0.0,0.0,0.0,0.0,0.0,0.0,-37.4469108581543,0.3462120294570923,-0.7095456719398499,0.0,0.0,0.0,0.0,0.0,0.0,0.0,0.0,0.0,-0.000811482488643378,0.0022817598655819893,0.09078266471624374,0.0,0.0,0.0,0.0,0.0,0.0,0.0,0.0,0.0
1606990796663480271,3879561,1606987194964190206,imu_link,-0.004893853794783354,0.004848959390074015,-0.32097384333610535,0.9470630288124084,0.0,0.0,0.0,0.0,0.0,0.0,0.0,0.0,0.0,-37.446720123291016,0.3462371826171875,-0.7094876170158386,0.0,0.0,0.0,0.0,0.0,0.0,0.0,0.0,0.0,-0.0069100819528102875,0.0010353073012083769,0.046325940638780594,0.0,0.0,0.0,0.0,0.0,0.0,0.0,0.0,0.0
1606990796663582878,3879562,1606987194964330621,imu_link,-0.004893853794783354,0.004848959390074015,-0.32097384333610535,0.9470630288124084,0.0,0.0,0.0,0.0,0.0,0.0,0.0,0.0,0.0,-37.446720123291016,0.3462371826171875,-0.7094876170158386,0.0,0.0,0.0,0.0,0.0,0.0,0.0,0.0,0.0,-0.0069100819528102875,0.0010353073012083769,0.046325940638780594,0.0,0.0,0.0,0.0,0.0,0.0,0.0,0.0,0.0
1606990796671964176,3879563,1606987194964464250,imu_link,-0.004894851706922054,0.004848997574299574,-0.32097116112709045,0.9470639228820801,0.0,0.0,0.0,0.0,0.0,0.0,0.0,0.0,0.0,-37.44639205932617,0.3462066054344177,-0.7095963358879089,0.0,0.0,0.0,0.0,0.0,0.0,0.0,0.0,0.0,-0.006712493021041155,-0.006188965868204832,0.03873439505696297,0.0,0.0,0.0,0.0,0.0,0.0,0.0,0.0,0.0
1606990796671998469,3879564,1606987194964562628,imu_link,-0.004894851706922054,0.004848997574299574,-0.32097116112709045,0.9470639228820801,0.0,0.0,0.0,0.0,0.0,0.0,0.0,0.0,0.0,-37.44639205932617,0.3462066054344177,-0.7095963358879089,0.0,0.0,0.0,0.0,0.0,0.0,0.0,0.0,0.0,-0.006712493021041155,-0.006188965868204832,0.03873439505696297,0.0,0.0,0.0,0.0,0.0,0.0,0.0,0.0,0.0
1606990796672019274,3879565,1606987194964650035,imu_link,-0.004896458238363266,0.004850213415920734,-0.3209668695926666,0.9470653533935547,0.0,0.0,0.0,0.0,0.0,0.0,0.0,0.0,0.0,-37.44587707519531,0.3462826907634735,-0.7098139524459839,0.0,0.0,0.0,0.0,0.0,0.0,0.0,0.0,0.0,-0.012685113586485386,0.0046997577883303165,0.042265769094228745,0.0,0.0,0.0,0.0,0.0,0.0,0.0,0.0,0.0
1606990796672108529,3879566,1606987194964731950,imu_link,-0.004896458238363266,0.004850213415920734,-0.3209668695926666,0.9470653533935547,0.0,0.0,0.0,0.0,0.0,0.0,0.0,0.0,0.0,-37.44587707519531,0.3462826907634735,-0.7098139524459839,0.0,0.0,0.0,0.0,0.0,0.0,0.0,0.0,0.0,-0.012685113586485386,0.0046997577883303165,0.042265769094228745,0.0,0.0,0.0,0.0,0.0,0.0,0.0,0.0,0.0
1606990796672144762,3879567,1606987194964831640,imu_link,-0.0048986030742526054,0.004848839249461889,-0.32096755504608154,0.9470651745796204,0.0,0.0,0.0,0.0,0.0,0.0,0.0,0.0,0.0,-37.44596481323242,0.34605416655540466,-0.7099963426589966,0.0,0.0,0.0,0.0,0.0,0.0,0.0,0.0,0.0,-0.009406168013811111,0.010782125405967236,0.03395644202828407,0.0,0.0,0.0,0.0,0.0,0.0,0.0,0.0,0.0
1606990796718662554,3879568,1606987194964917113,imu_link,-0.0048986030742526054,0.004848839249461889,-0.32096755504608154,0.9470651745796204,0.0,0.0,0.0,0.0,0.0,0.0,0.0,0.0,0.0,-37.44596481323242,0.34605416655540466,-0.7099963426589966,0.0,0.0,0.0,0.0,0.0,0.0,0.0,0.0,0.0,-0.009406168013811111,0.010782125405967236,0.03395644202828407,0.0,0.0,0.0,0.0,0.0,0.0,0.0,0.0,0.0
1606990796718687533,3879569,1606987194964998000,imu_link,-0.004899414721876383,0.0048464578576385975,-0.32096463441848755,0.9470661282539368,0.0,0.0,0.0,0.0,0.0,0.0,0.0,0.0,0.0,-37.44560623168945,0.3457680642604828,-0.7099958062171936,0.0,0.0,0.0,0.0,0.0,0.0,0.0,0.0,0.0,0.0020701840985566378,0.004240615759044886,0.042005907744169235,0.0,0.0,0.0,0.0,0.0,0.0,0.0,0.0,0.0
1606990796718701564,3879570,1606987194965070418,imu_link,-0.004899414721876383,0.0048464578576385975,-0.32096463441848755,0.9470661282539368,0.0,0.0,0.0,0.0,0.0,0.0,0.0,0.0,0.0,-37.44560623168945,0.3457680642604828,-0.7099958062171936,0.0,0.0,0.0,0.0,0.0,0.0,0.0,0.0,0.0,0.0020701840985566378,0.004240615759044886,0.042005907744169235,0.0,0.0,0.0,0.0,0.0,0.0,0.0,0.0,0.0
1606990796718718929,3879571,1606987194965152749,imu_link,-0.004899762105196714,0.004844198934733868,-0.32096418738365173,0.9470663070678711,0.0,0.0,0.0,0.0,0.0,0.0,0.0,0.0,0.0,-37.4455451965332,0.34551042318344116,-0.7099502086639404,0.0,0.0,0.0,0.0,0.0,0.0,0.0,0.0,0.0,-0.00037132855504751205,0.006316277664154768,0.04708710312843323,0.0,0.0,0.0,0.0,0.0,0.0,0.0,0.0,0.0
1606990796723861423,3879572,1606987194978025595,imu_link,-0.004899762105196714,0.004844198934733868,-0.32096418738365173,0.9470663070678711,0.0,0.0,0.0,0.0,0.0,0.0,0.0,0.0,0.0,-37.4455451965332,0.34551042318344116,-0.7099502086639404,0.0,0.0,0.0,0.0,0.0,0.0,0.0,0.0,0.0,-0.00037132855504751205,0.006316277664154768,0.04708710312843323,0.0,0.0,0.0,0.0,0.0,0.0,0.0,0.0,0.0
1606990796723912269,3879573,1606987194978176449,imu_link,-0.004902023822069168,0.004843618255108595,-0.32096391916275024,0.9470663666725159,0.0,0.0,0.0,0.0,0.0,0.0,0.0,0.0,0.0,-37.445518493652344,0.34536445140838623,-0.7101742029190063,0.0,0.0,0.0,0.0,0.0,0.0,0.0,0.0,0.0,0.00826131459325552,-0.0029717315919697285,0.053209204226732254,0.0,0.0,0.0,0.0,0.0,0.0,0.0,0.0,0.0
1606990796723943248,3879574,1606987194978310329,imu_link,-0.004902023822069168,0.004843618255108595,-0.32096391916275024,0.9470663666725159,0.0,0.0,0.0,0.0,0.0,0.0,0.0,0.0,0.0,-37.445518493652344,0.34536445140838623,-0.7101742029190063,0.0,0.0,0.0,0.0,0.0,0.0,0.0,0.0,0.0,0.00826131459325552,-0.0029717315919697285,0.053209204226732254,0.0,0.0,0.0,0.0,0.0,0.0,0.0,0.0,0.0
1606990796723951583,3879575,1606987194978397175,imu_link,-0.004901840351521969,0.0048452103510499,-0.32096371054649353,0.9470664262771606,0.0,0.0,0.0,0.0,0.0,0.0,0.0,0.0,0.0,-37.445491790771484,0.34554412961006165,-0.710212767124176,0.0,0.0,0.0,0.0,0.0,0.0,0.0,0.0,0.0,0.014833123423159122,-0.009324154816567898,0.06475549936294556,0.0,0.0,0.0,0.0,0.0,0.0,0.0,0.0,0.0
1606990796765021576,3879576,1606987194978482047,imu_link,-0.004901840351521969,0.0048452103510499,-0.32096371054649353,0.9470664262771606,0.0,0.0,0.0,0.0,0.0,0.0,0.0,0.0,0.0,-37.445491790771484,0.34554412961006165,-0.710212767124176,0.0,0.0,0.0,0.0,0.0,0.0,0.0,0.0,0.0,0.014833123423159122,-0.009324154816567898,0.06475549936294556,0.0,0.0,0.0,0.0,0.0,0.0,0.0,0.0,0.0
1606990796765054891,3879577,1606987194978566472,imu_link,-0.00489928899332881,0.004847798962146044,-0.32096344232559204,0.9470665454864502,0.0,0.0,0.0,0.0,0.0,0.0,0.0,0.0,0.0,-37.44546127319336,0.3459191620349884,-0.7100310325622559,0.0,0.0,0.0,0.0,0.0,0.0,0.0,0.0,0.0,-0.003932034596800804,-0.012364995665848255,0.05354192480444908,0.0,0.0,0.0,0.0,0.0,0.0,0.0,0.0,0.0
1606990796765076982,3879578,1606987194978669024,imu_link,-0.00489928899332881,0.004847798962146044,-0.32096344232559204,0.9470665454864502,0.0,0.0,0.0,0.0,0.0,0.0,0.0,0.0,0.0,-37.44546127319336,0.3459191620349884,-0.7100310325622559,0.0,0.0,0.0,0.0,0.0,0.0,0.0,0.0,0.0,-0.003932034596800804,-0.012364995665848255,0.05354192480444908,0.0,0.0,0.0,0.0,0.0,0.0,0.0,0.0,0.0
1606990796765107279,3879579,1606987194978761759,imu_link,-0.004900104831904173,0.004844795912504196,-0.32096245884895325,0.9470669031143188,0.0,0.0,0.0,0.0,0.0,0.0,0.0,0.0,0.0,-37.445343017578125,0.34556397795677185,-0.7100088000297546,0.0,0.0,0.0,0.0,0.0,0.0,0.0,0.0,0.0,-0.014500738121569157,-0.005876033566892147,0.06063937023282051,0.0,0.0,0.0,0.0,0.0,0.0,0.0,0.0,0.0
1606990796765140554,3879580,1606987194978846856,imu_link,-0.004900104831904173,0.004844795912504196,-0.32096245884895325,0.9470669031143188,0.0,0.0,0.0,0.0,0.0,0.0,0.0,0.0,0.0,-37.445343017578125,0.34556397795677185,-0.7100088000297546,0.0,0.0,0.0,0.0,0.0,0.0,0.0,0.0,0.0,-0.014500738121569157,-0.005876033566892147,0.06063937023282051,0.0,0.0,0.0,0.0,0.0,0.0,0.0,0.0,0.0
1606990796771979011,3879581,1606987194978931787,imu_link,-0.004900575149804354,0.004842229187488556,-0.3209710717201233,0.9470639824867249,0.0,0.0,0.0,0.0,0.0,0.0,0.0,0.0,0.0,-37.446380615234375,0.3452616035938263,-0.7099685072898865,0.0,0.0,0.0,0.0,0.0,0.0,0.0,0.0,0.0,-0.0071340035647153854,0.01768355630338192,0.03985561802983284,0.0,0.0,0.0,0.0,0.0,0.0,0.0,0.0,0.0
1606990796772060915,3879582,1606987194979051520,imu_link,-0.004900575149804354,0.004842229187488556,-0.3209710717201233,0.9470639824867249,0.0,0.0,0.0,0.0,0.0,0.0,0.0,0.0,0.0,-37.446380615234375,0.3452616035938263,-0.7099685072898865,0.0,0.0,0.0,0.0,0.0,0.0,0.0,0.0,0.0,-0.0071340035647153854,0.01768355630338192,0.03985561802983284,0.0,0.0,0.0,0.0,0.0,0.0,0.0,0.0,0.0
1606990796772085632,3879583,1606987194991574562,imu_link,-0.004902866668999195,0.004842099733650684,-0.32096949219703674,0.9470645189285278,0.0,0.0,0.0,0.0,0.0,0.0,0.0,0.0,0.0,-37.446189880371094,0.3451644480228424,-0.7102118134498596,0.0,0.0,0.0,0.0,0.0,0.0,0.0,0.0,0.0,-0.00035073584876954556,0.024210281670093536,0.03243511542677879,0.0,0.0,0.0,0.0,0.0,0.0,0.0,0.0,0.0
1606990796772100590,3879584,1606987194991722529,imu_link,-0.004902866668999195,0.004842099733650684,-0.32096949219703674,0.9470645189285278,0.0,0.0,0.0,0.0,0.0,0.0,0.0,0.0,0.0,-37.446189880371094,0.3451644480228424,-0.7102118134498596,0.0,0.0,0.0,0.0,0.0,0.0,0.0,0.0,0.0,-0.00035073584876954556,0.024210281670093536,0.03243511542677879,0.0,0.0,0.0,0.0,0.0,0.0,0.0,0.0,0.0
1606990796797955615,3879585,1606987194991883201,imu_link,-0.004907486494630575,0.004842707421630621,-0.32097622752189636,0.9470621943473816,0.0,0.0,0.0,0.0,0.0,0.0,0.0,0.0,0.0,-37.44700622558594,0.3450554311275482,-0.7107380032539368,0.0,0.0,0.0,0.0,0.0,0.0,0.0,0.0,0.0,0.005100048612803221,0.016889335587620735,0.07404162734746933,0.0,0.0,0.0,0.0,0.0,0.0,0.0,0.0,0.0
1606990796797971882,3879586,1606987194991979384,imu_link,-0.004907486494630575,0.004842707421630621,-0.32097622752189636,0.9470621943473816,0.0,0.0,0.0,0.0,0.0,0.0,0.0,0.0,0.0,-37.44700622558594,0.3450554311275482,-0.7107380032539368,0.0,0.0,0.0,0.0,0.0,0.0,0.0,0.0,0.0,0.005100048612803221,0.016889335587620735,0.07404162734746933,0.0,0.0,0.0,0.0,0.0,0.0,0.0,0.0,0.0
1606990796797988675,3879587,1606987194992069888,imu_link,-0.004908260889351368,0.004841194022446871,-0.3209770917892456,0.9470618963241577,0.0,0.0,0.0,0.0,0.0,0.0,0.0,0.0,0.0,-37.44710922241211,0.34486204385757446,-0.7107667922973633,0.0,0.0,0.0,0.0,0.0,0.0,0.0,0.0,0.0,0.013544856570661068,0.01495480164885521,0.08264756202697754,0.0,0.0,0.0,0.0,0.0,0.0,0.0,0.0,0.0
1606990796797993859,3879588,1606987194992150700,imu_link,-0.004908260889351368,0.004841194022446871,-0.3209770917892456,0.9470618963241577,0.0,0.0,0.0,0.0,0.0,0.0,0.0,0.0,0.0,-37.44710922241211,0.34486204385757446,-0.7107667922973633,0.0,0.0,0.0,0.0,0.0,0.0,0.0,0.0,0.0,0.013544856570661068,0.01495480164885521,0.08264756202697754,0.0,0.0,0.0,0.0,0.0,0.0,0.0,0.0,0.0
1606990796798038876,3879589,1606987194992255688,imu_link,-0.004910852760076523,0.004843439906835556,-0.32097530364990234,0.9470624923706055,0.0,0.0,0.0,0.0,0.0,0.0,0.0,0.0,0.0,-37.446895599365234,0.34501177072525024,-0.7111300230026245,0.0,0.0,0.0,0.0,0.0,0.0,0.0,0.0,0.0,0.018938016146421432,0.010980342514812946,0.06530474871397018,0.0,0.0,0.0,0.0,0.0,0.0,0.0,0.0,0.0
1606990796810582108,3879590,1606987194992336771,imu_link,-0.004910852760076523,0.004843439906835556,-0.32097530364990234,0.9470624923706055,0.0,0.0,0.0,0.0,0.0,0.0,0.0,0.0,0.0,-37.446895599365234,0.34501177072525024,-0.7111300230026245,0.0,0.0,0.0,0.0,0.0,0.0,0.0,0.0,0.0,0.018938016146421432,0.010980342514812946,0.06530474871397018,0.0,0.0,0.0,0.0,0.0,0.0,0.0,0.0,0.0
1606990796810601168,3879591,1606987194992500119,imu_link,-0.004910322371870279,0.004841426853090525,-0.32097452878952026,0.9470627903938293,0.0,0.0,0.0,0.0,0.0,0.0,0.0,0.0,0.0,-37.446800231933594,0.34481343626976013,-0.7109980583190918,0.0,0.0,0.0,0.0,0.0,0.0,0.0,0.0,0.0,0.009294289164245129,-0.0015164747601374984,0.03229441121220589,0.0,0.0,0.0,0.0,0.0,0.0,0.0,0.0,0.0
1606990796810607815,3879592,1606987194992588488,imu_link,-0.004910322371870279,0.004841426853090525,-0.32097452878952026,0.9470627903938293,0.0,0.0,0.0,0.0,0.0,0.0,0.0,0.0,0.0,-37.446800231933594,0.34481343626976013,-0.7109980583190918,0.0,0.0,0.0,0.0,0.0,0.0,0.0,0.0,0.0,0.009294289164245129,-0.0015164747601374984,0.03229441121220589,0.0,0.0,0.0,0.0,0.0,0.0,0.0,0.0,0.0
1606990796810613343,3879593,1606987194992669641,imu_link,-0.004909567069262266,0.004840902518481016,-0.32097214460372925,0.9470636248588562,0.0,0.0,0.0,0.0,0.0,0.0,0.0,0.0,0.0,-37.446510314941406,0.3447861075401306,-0.7108958959579468,0.0,0.0,0.0,0.0,0.0,0.0,0.0,0.0,0.0,0.005883640144020319,-0.018844572827219963,0.032227691262960434,0.0,0.0,0.0,0.0,0.0,0.0,0.0,0.0,0.0
1606990796813308650,3879594,1606987195005177082,imu_link,-0.004909567069262266,0.004840902518481016,-0.32097214460372925,0.9470636248588562,0.0,0.0,0.0,0.0,0.0,0.0,0.0,0.0,0.0,-37.446510314941406,0.3447861075401306,-0.7108958959579468,0.0,0.0,0.0,0.0,0.0,0.0,0.0,0.0,0.0,0.005883640144020319,-0.018844572827219963,0.032227691262960434,0.0,0.0,0.0,0.0,0.0,0.0,0.0,0.0,0.0
1606990796813327730,3879595,1606987195005263716,imu_link,-0.004909554962068796,0.004840814042836428,-0.32097116112709045,0.9470639228820801,0.0,0.0,0.0,0.0,0.0,0.0,0.0,0.0,0.0,-37.446388244628906,0.3447776436805725,-0.7108910083770752,0.0,0.0,0.0,0.0,0.0,0.0,0.0,0.0,0.0,0.015953807160258293,-0.024095486849546432,0.03247588500380516,0.0,0.0,0.0,0.0,0.0,0.0,0.0,0.0,0.0
1606990796813338678,3879596,1606987195005347263,imu_link,-0.004909554962068796,0.004840814042836428,-0.32097116112709045,0.9470639228820801,0.0,0.0,0.0,0.0,0.0,0.0,0.0,0.0,0.0,-37.446388244628906,0.3447776436805725,-0.7108910083770752,0.0,0.0,0.0,0.0,0.0,0.0,0.0,0.0,0.0,0.015953807160258293,-0.024095486849546432,0.03247588500380516,0.0,0.0,0.0,0.0,0.0,0.0,0.0,0.0,0.0
1606990796813377987,3879597,1606987195005405685,imu_link,-0.004904864355921745,0.004840535577386618,-0.32096949219703674,0.9470645189285278,0.0,0.0,0.0,0.0,0.0,0.0,0.0,0.0,0.0,-37.446189880371094,0.3449212312698364,-0.7103710770606995,0.0,0.0,0.0,0.0,0.0,0.0,0.0,0.0,0.0,0.02171408012509346,-0.004732491914182901,0.026706894859671593,0.0,0.0,0.0,0.0,0.0,0.0,0.0,0.0,0.0
1606990796813398201,3879598,1606987195005457220,imu_link,-0.004904864355921745,0.004840535577386618,-0.32096949219703674,0.9470645189285278,0.0,0.0,0.0,0.0,0.0,0.0,0.0,0.0,0.0,-37.446189880371094,0.3449212312698364,-0.7103710770606995,0.0,0.0,0.0,0.0,0.0,0.0,0.0,0.0,0.0,0.02171408012509346,-0.004732491914182901,0.026706894859671593,0.0,0.0,0.0,0.0,0.0,0.0,0.0,0.0,0.0
1606990796813415202,3879599,1606987195005526107,imu_link,-0.0049058375880122185,0.0048417095094919205,-0.3209710419178009,0.9470639824867249,0.0,0.0,0.0,0.0,0.0,0.0,0.0,0.0,0.0,-37.446380615234375,0.3450116813182831,-0.7105204463005066,0.0,0.0,0.0,0.0,0.0,0.0,0.0,0.0,0.0,0.014788346365094185,-0.0070918588899075985,0.05451545491814613,0.0,0.0,0.0,0.0,0.0,0.0,0.0,0.0,0.0
1606990796813452727,3879600,1606987195005583419,imu_link,-0.0049058375880122185,0.0048417095094919205,-0.3209710419178009,0.9470639824867249,0.0,0.0,0.0,0.0,0.0,0.0,0.0,0.0,0.0,-37.446380615234375,0.3450116813182831,-0.7105204463005066,0.0,0.0,0.0,0.0,0.0,0.0,0.0,0.0,0.0,0.014788346365094185,-0.0070918588899075985,0.05451545491814613,0.0,0.0,0.0,0.0,0.0,0.0,0.0,0.0,0.0
1606990796813463763,3879601,1606987195005638617,imu_link,-0.004902827087789774,0.004843069240450859,-0.3209713399410248,0.9470638632774353,0.0,0.0,0.0,0.0,0.0,0.0,0.0,0.0,0.0,-37.446414947509766,0.34526973962783813,-0.7102438807487488,0.0,0.0,0.0,0.0,0.0,0.0,0.0,0.0,0.0,0.017037702724337578,-0.03183024004101753,0.044776346534490585,0.0,0.0,0.0,0.0,0.0,0.0,0.0,0.0,0.0
