%time,field.header.seq,field.header.stamp,field.header.frame_id,field.orientation.x,field.orientation.y,field.orientation.z,field.orientation.w,field.orientation_covariance0,field.orientation_covariance1,field.orientation_covariance2,field.orientation_covariance3,field.orientation_covariance4,field.orientation_covariance5,field.orientation_covariance6,field.orientation_covariance7,field.orientation_covariance8,field.angular_velocity.x,field.angular_velocity.y,field.angular_velocity.z,field.angular_velocity_covariance0,field.angular_velocity_covariance1,field.angular_velocity_covariance2,field.angular_velocity_covariance3,field.angular_velocity_covariance4,field.angular_velocity_covariance5,field.angular_velocity_covariance6,field.angular_velocity_covariance7,field.angular_velocity_covariance8,field.linear_acceleration.x,field.linear_acceleration.y,field.linear_acceleration.z,field.linear_acceleration_covariance0,field.linear_acceleration_covariance1,field.linear_acceleration_covariance2,field.linear_acceleration_covariance3,field.linear_acceleration_covariance4,field.linear_acceleration_covariance5,field.linear_acceleration_covariance6,field.linear_acceleration_covariance7,field.linear_acceleration_covariance8
1606991096926850993,4120586,1606987496247953918,imu_link,0.005147907882928848,0.0073858099058270454,0.3952457904815674,0.9185312986373901,0.0,0.0,0.0,0.0,0.0,0.0,0.0,0.0,0.0,46.56876754760742,0.5442503094673157,0.8764383792877197,0.0,0.0,0.0,0.0,0.0,0.0,0.0,0.0,0.0,-0.005419222172349691,-0.01503718551248312,0.06262955069541931,0.0,0.0,0.0,0.0,0.0,0.0,0.0,0.0,0.0
1606991096926877528,4120587,1606987496248005186,imu_link,0.005148108582943678,0.007386902347207069,0.39524784684181213,0.9185304045677185,0.0,0.0,0.0,0.0,0.0,0.0,0.0,0.0,0.0,46.56902313232422,0.5443541407585144,0.8765102028846741,0.0,0.0,0.0,0.0,0.0,0.0,0.0,0.0,0.0,-0.015359967015683651,-0.004627510439604521,0.07093264162540436,0.0,0.0,0.0,0.0,0.0,0.0,0.0,0.0,0.0
1606991096926884601,4120588,1606987496248035516,imu_link,0.005148108582943678,0.007386902347207069,0.39524784684181213,0.9185304045677185,0.0,0.0,0.0,0.0,0.0,0.0,0.0,0.0,0.0,46.56902313232422,0.5443541407585144,0.8765102028846741,0.0,0.0,0.0,0.0,0.0,0.0,0.0,0.0,0.0,-0.015359967015683651,-0.004627510439604521,0.07093264162540436,0.0,0.0,0.0,0.0,0.0,0.0,0.0,0.0,0.0
1606991096926905663,4120589,1606987496248063848,imu_link,0.005147315561771393,0.007389114238321781,0.3952496349811554,0.9185296297073364,0.0,0.0,0.0,0.0,0.0,0.0,0.0,0.0,0.0,46.569252014160156,0.5446212887763977,0.8765280246734619,0.0,0.0,0.0,0.0,0.0,0.0,0.0,0.0,0.0,0.00077015720307827,0.0044730547815561295,0.05959039926528931,0.0,0.0,0.0,0.0,0.0,0.0,0.0,0.0,0.0
1606991096931883341,4120590,1606987496248093710,imu_link,0.005147315561771393,0.007389114238321781,0.3952496349811554,0.9185296297073364,0.0,0.0,0.0,0.0,0.0,0.0,0.0,0.0,0.0,46.569252014160156,0.5446212887763977,0.8765280246734619,0.0,0.0,0.0,0.0,0.0,0.0,0.0,0.0,0.0,0.00077015720307827,0.0044730547815561295,0.05959039926528931,0.0,0.0,0.0,0.0,0.0,0.0,0.0,0.0,0.0
1606991096931904624,4120591,1606987496248126717,imu_link,0.005148005206137896,0.007388440892100334,0.39524969458580017,0.9185295701026917,0.0,0.0,0.0,0.0,0.0,0.0,0.0,0.0,0.0,46.56925964355469,0.5445190668106079,0.8765701055526733,0.0,0.0,0.0,0.0,0.0,0.0,0.0,0.0,0.0,0.008144424296915531,0.004640763159841299,0.05249180272221565,0.0,0.0,0.0,0.0,0.0,0.0,0.0,0.0,0.0
1606991096931914433,4120592,1606987496248153524,imu_link,0.005148005206137896,0.007388440892100334,0.39524969458580017,0.9185295701026917,0.0,0.0,0.0,0.0,0.0,0.0,0.0,0.0,0.0,46.56925964355469,0.5445190668106079,0.8765701055526733,0.0,0.0,0.0,0.0,0.0,0.0,0.0,0.0,0.0,0.008144424296915531,0.004640763159841299,0.05249180272221565,0.0,0.0,0.0,0.0,0.0,0.0,0.0,0.0,0.0
1606991096931922559,4120593,1606987496248179361,imu_link,0.005145258270204067,0.0073885428719222546,0.39525067806243896,0.918529212474823,0.0,0.0,0.0,0.0,0.0,0.0,0.0,0.0,0.0,46.56937789916992,0.5446533560752869,0.8762860894203186,0.0,0.0,0.0,0.0,0.0,0.0,0.0,0.0,0.0,0.0207894928753376,0.005985897034406662,0.044127218425273895,0.0,0.0,0.0,0.0,0.0,0.0,0.0,0.0,0.0
1606991096977327882,4120594,1606987496248202831,imu_link,0.005145258270204067,0.0073885428719222546,0.39525067806243896,0.918529212474823,0.0,0.0,0.0,0.0,0.0,0.0,0.0,0.0,0.0,46.56937789916992,0.5446533560752869,0.8762860894203186,0.0,0.0,0.0,0.0,0.0,0.0,0.0,0.0,0.0,0.0207894928753376,0.005985897034406662,0.044127218425273895,0.0,0.0,0.0,0.0,0.0,0.0,0.0,0.0,0.0
1606991096977365715,4120595,1606987496248228461,imu_link,0.005145892966538668,0.007387811783701181,0.39525192975997925,0.91852867603302,0.0,0.0,0.0,0.0,0.0,0.0,0.0,0.0,0.0,46.56953048706055,0.5445464849472046,0.8763206005096436,0.0,0.0,0.0,0.0,0.0,0.0,0.0,0.0,0.0,0.018366901203989983,-0.01389533281326294,0.039942413568496704,0.0,0.0,0.0,0.0,0.0,0.0,0.0,0.0,0.0
1606991096977388244,4120596,1606987496261787703,imu_link,0.005145892966538668,0.007387811783701181,0.39525192975997925,0.91852867603302,0.0,0.0,0.0,0.0,0.0,0.0,0.0,0.0,0.0,46.56953048706055,0.5445464849472046,0.8763206005096436,0.0,0.0,0.0,0.0,0.0,0.0,0.0,0.0,0.0,0.018366901203989983,-0.01389533281326294,0.039942413568496704,0.0,0.0,0.0,0.0,0.0,0.0,0.0,0.0,0.0
1606991096977416454,4120597,1606987496261862391,imu_link,0.0051455507054924965,0.007390554528683424,0.3952426314353943,0.91853266954422,0.0,0.0,0.0,0.0,0.0,0.0,0.0,0.0,0.0,46.56837844848633,0.5448595285415649,0.876403272151947,0.0,0.0,0.0,0.0,0.0,0.0,0.0,0.0,0.0,0.003730004420503974,-0.002672838047146797,0.031895145773887634,0.0,0.0,0.0,0.0,0.0,0.0,0.0,0.0,0.0
1606991096977472525,4120598,1606987496261955829,imu_link,0.0051455507054924965,0.007390554528683424,0.3952426314353943,0.91853266954422,0.0,0.0,0.0,0.0,0.0,0.0,0.0,0.0,0.0,46.56837844848633,0.5448595285415649,0.876403272151947,0.0,0.0,0.0,0.0,0.0,0.0,0.0,0.0,0.0,0.003730004420503974,-0.002672838047146797,0.031895145773887634,0.0,0.0,0.0,0.0,0.0,0.0,0.0,0.0,0.0
1606991097010002517,4120599,1606987496262006802,imu_link,0.00514316326007247,0.007392830681055784,0.3952401280403137,0.9185337424278259,0.0,0.0,0.0,0.0,0.0,0.0,0.0,0.0,0.0,46.56806945800781,0.5452095866203308,0.8762537240982056,0.0,0.0,0.0,0.0,0.0,0.0,0.0,0.0,0.0,-0.0011485640425235033,0.022944841533899307,0.02570437826216221,0.0,0.0,0.0,0.0,0.0,0.0,0.0,0.0,0.0
1606991097010032061,4120600,1606987496262085660,imu_link,0.00514316326007247,0.007392830681055784,0.3952401280403137,0.9185337424278259,0.0,0.0,0.0,0.0,0.0,0.0,0.0,0.0,0.0,46.56806945800781,0.5452095866203308,0.8762537240982056,0.0,0.0,0.0,0.0,0.0,0.0,0.0,0.0,0.0,-0.0011485640425235033,0.022944841533899307,0.02570437826216221,0.0,0.0,0.0,0.0,0.0,0.0,0.0,0.0,0.0
1606991097010042332,4120601,1606987496262140797,imu_link,0.005143309477716684,0.007388789672404528,0.3952287435531616,0.9185386300086975,0.0,0.0,0.0,0.0,0.0,0.0,0.0,0.0,0.0,46.56664276123047,0.5447884798049927,0.8760792016983032,0.0,0.0,0.0,0.0,0.0,0.0,0.0,0.0,0.0,-0.0044078947976231575,0.010332692414522171,0.04027580842375755,0.0,0.0,0.0,0.0,0.0,0.0,0.0,0.0,0.0
1606991097010052472,4120602,1606987496262195166,imu_link,0.005143309477716684,0.007388789672404528,0.3952287435531616,0.9185386300086975,0.0,0.0,0.0,0.0,0.0,0.0,0.0,0.0,0.0,46.56664276123047,0.5447884798049927,0.8760792016983032,0.0,0.0,0.0,0.0,0.0,0.0,0.0,0.0,0.0,-0.0044078947976231575,0.010332692414522171,0.04027580842375755,0.0,0.0,0.0,0.0,0.0,0.0,0.0,0.0,0.0
1606991097014367810,4120603,1606987496262236965,imu_link,0.005144243128597736,0.007388904690742493,0.39522847533226013,0.9185387492179871,0.0,0.0,0.0,0.0,0.0,0.0,0.0,0.0,0.0,46.56660461425781,0.5447585582733154,0.8761825561523438,0.0,0.0,0.0,0.0,0.0,0.0,0.0,0.0,0.0,-0.01189393736422062,0.003984698094427586,0.042134951800107956,0.0,0.0,0.0,0.0,0.0,0.0,0.0,0.0,0.0
1606991097014414271,4120604,1606987496262279150,imu_link,0.005144243128597736,0.007388904690742493,0.39522847533226013,0.9185387492179871,0.0,0.0,0.0,0.0,0.0,0.0,0.0,0.0,0.0,46.56660461425781,0.5447585582733154,0.8761825561523438,0.0,0.0,0.0,0.0,0.0,0.0,0.0,0.0,0.0,-0.01189393736422062,0.003984698094427586,0.042134951800107956,0.0,0.0,0.0,0.0,0.0,0.0,0.0,0.0,0.0
1606991097014423020,4120605,1606987496262318817,imu_link,0.005144227296113968,0.007387906312942505,0.3952285647392273,0.9185386896133423,0.0,0.0,0.0,0.0,0.0,0.0,0.0,0.0,0.0,46.56661605834961,0.5446540713310242,0.8761357069015503,0.0,0.0,0.0,0.0,0.0,0.0,0.0,0.0,0.0,-0.009971721097826958,0.0071204351261258125,0.01710830070078373,0.0,0.0,0.0,0.0,0.0,0.0,0.0,0.0,0.0
1606991097014429466,4120606,1606987496262359278,imu_link,0.005144227296113968,0.007387906312942505,0.3952285647392273,0.9185386896133423,0.0,0.0,0.0,0.0,0.0,0.0,0.0,0.0,0.0,46.56661605834961,0.5446540713310242,0.8761357069015503,0.0,0.0,0.0,0.0,0.0,0.0,0.0,0.0,0.0,-0.009971721097826958,0.0071204351261258125,0.01710830070078373,0.0,0.0,0.0,0.0,0.0,0.0,0.0,0.0,0.0
1606991097014436898,4120607,1606987496275363614,imu_link,0.005144227296113968,0.007387906312942505,0.3952285647392273,0.9185386896133423,0.0,0.0,0.0,0.0,0.0,0.0,0.0,0.0,0.0,46.56661605834961,0.5446540713310242,0.8761357069015503,0.0,0.0,0.0,0.0,0.0,0.0,0.0,0.0,0.0,-0.004604958929121494,0.00014673802070319653,0.04023703187704086,0.0,0.0,0.0,0.0,0.0,0.0,0.0,0.0,0.0
1606991097021685520,4120608,1606987496275441810,imu_link,0.005144227296113968,0.007387906312942505,0.3952285647392273,0.9185386896133423,0.0,0.0,0.0,0.0,0.0,0.0,0.0,0.0,0.0,46.56661605834961,0.5446540713310242,0.8761357069015503,0.0,0.0,0.0,0.0,0.0,0.0,0.0,0.0,0.0,-0.004604958929121494,0.00014673802070319653,0.04023703187704086,0.0,0.0,0.0,0.0,0.0,0.0,0.0,0.0,0.0
1606991097021713678,4120609,1606987496275499175,imu_link,0.005146463867276907,0.007387485820800066,0.3952285945415497,0.9185386896133423,0.0,0.0,0.0,0.0,0.0,0.0,0.0,0.0,0.0,46.56662368774414,0.5445085167884827,0.876352071762085,0.0,0.0,0.0,0.0,0.0,0.0,0.0,0.0,0.0,0.003641272895038128,-0.004867679439485073,0.07092419266700745,0.0,0.0,0.0,0.0,0.0,0.0,0.0,0.0,0.0
1606991097021725690,4120610,1606987496275547617,imu_link,0.005146463867276907,0.007387485820800066,0.3952285945415497,0.9185386896133423,0.0,0.0,0.0,0.0,0.0,0.0,0.0,0.0,0.0,46.56662368774414,0.5445085167884827,0.876352071762085,0.0,0.0,0.0,0.0,0.0,0.0,0.0,0.0,0.0,0.003641272895038128,-0.004867679439485073,0.07092419266700745,0.0,0.0,0.0,0.0,0.0,0.0,0.0,0.0,0.0
1606991097021735144,4120611,1606987496275597616,imu_link,0.005146869458258152,0.0073881689459085464,0.39522823691368103,0.9185388684272766,0.0,0.0,0.0,0.0,0.0,0.0,0.0,0.0,0.0,46.56657791137695,0.5445623993873596,0.8764255046844482,0.0,0.0,0.0,0.0,0.0,0.0,0.0,0.0,0.0,-0.00300055043771863,-0.0145659688860178,0.06016058474779129,0.0,0.0,0.0,0.0,0.0,0.0,0.0,0.0,0.0
1606991097067119834,4120612,1606987496275641096,imu_link,0.005146869458258152,0.0073881689459085464,0.39522823691368103,0.9185388684272766,0.0,0.0,0.0,0.0,0.0,0.0,0.0,0.0,0.0,46.56657791137695,0.5445623993873596,0.8764255046844482,0.0,0.0,0.0,0.0,0.0,0.0,0.0,0.0,0.0,-0.00300055043771863,-0.0145659688860178,0.06016058474779129,0.0,0.0,0.0,0.0,0.0,0.0,0.0,0.0,0.0
1606991097067135199,4120613,1606987496275695662,imu_link,0.005150767508894205,0.007389756850898266,0.3952295780181885,0.9185382723808289,0.0,0.0,0.0,0.0,0.0,0.0,0.0,0.0,0.0,46.566749572753906,0.5445517301559448,0.8769084811210632,0.0,0.0,0.0,0.0,0.0,0.0,0.0,0.0,0.0,-0.013039111159741879,-0.019663486629724503,0.03675542399287224,0.0,0.0,0.0,0.0,0.0,0.0,0.0,0.0,0.0
1606991097067141209,4120614,1606987496275741639,imu_link,0.005150767508894205,0.007389756850898266,0.3952295780181885,0.9185382723808289,0.0,0.0,0.0,0.0,0.0,0.0,0.0,0.0,0.0,46.566749572753906,0.5445517301559448,0.8769084811210632,0.0,0.0,0.0,0.0,0.0,0.0,0.0,0.0,0.0,-0.013039111159741879,-0.019663486629724503,0.03675542399287224,0.0,0.0,0.0,0.0,0.0,0.0,0.0,0.0,0.0
1606991097067148761,4120615,1606987496275784556,imu_link,0.0051508704200387,0.00738962646573782,0.3952297866344452,0.9185381531715393,0.0,0.0,0.0,0.0,0.0,0.0,0.0,0.0,0.0,46.56678009033203,0.5445331931114197,0.8769136667251587,0.0,0.0,0.0,0.0,0.0,0.0,0.0,0.0,0.0,-0.0019028550013899803,-0.011403758078813553,0.030456751585006714,0.0,0.0,0.0,0.0,0.0,0.0,0.0,0.0,0.0
1606991097067153833,4120616,1606987496275829171,imu_link,0.0051508704200387,0.00738962646573782,0.3952297866344452,0.9185381531715393,0.0,0.0,0.0,0.0,0.0,0.0,0.0,0.0,0.0,46.56678009033203,0.5445331931114197,0.8769136667251587,0.0,0.0,0.0,0.0,0.0,0.0,0.0,0.0,0.0,-0.0019028550013899803,-0.011403758078813553,0.030456751585006714,0.0,0.0,0.0,0.0,0.0,0.0,0.0,0.0,0.0
1606991097074652991,4120617,1606987496275872487,imu_link,0.0051511176861822605,0.007389366626739502,0.3952295184135437,0.9185382723808289,0.0,0.0,0.0,0.0,0.0,0.0,0.0,0.0,0.0,46.56673812866211,0.5444948673248291,0.8769277334213257,0.0,0.0,0.0,0.0,0.0,0.0,0.0,0.0,0.0,0.0030641532503068447,0.00026652595261111856,0.039802584797143936,0.0,0.0,0.0,0.0,0.0,0.0,0.0,0.0,0.0
1606991097074671515,4120618,1606987496289157741,imu_link,0.0051511176861822605,0.007389366626739502,0.3952295184135437,0.9185382723808289,0.0,0.0,0.0,0.0,0.0,0.0,0.0,0.0,0.0,46.56673812866211,0.5444948673248291,0.8769277334213257,0.0,0.0,0.0,0.0,0.0,0.0,0.0,0.0,0.0,0.0030641532503068447,0.00026652595261111856,0.039802584797143936,0.0,0.0,0.0,0.0,0.0,0.0,0.0,0.0,0.0
1606991097074704618,4120619,1606987496289257659,imu_link,0.005152140744030476,0.007389517966657877,0.3952292799949646,0.9185383319854736,0.0,0.0,0.0,0.0,0.0,0.0,0.0,0.0,0.0,46.56671142578125,0.5444645285606384,0.8770420551300049,0.0,0.0,0.0,0.0,0.0,0.0,0.0,0.0,0.0,-0.006366572808474302,0.008321580477058887,0.04356710612773895,0.0,0.0,0.0,0.0,0.0,0.0,0.0,0.0,0.0
1606991097074722141,4120620,1606987496289406698,imu_link,0.005152140744030476,0.007389517966657877,0.3952292799949646,0.9185383319854736,0.0,0.0,0.0,0.0,0.0,0.0,0.0,0.0,0.0,46.56671142578125,0.5444645285606384,0.8770420551300049,0.0,0.0,0.0,0.0,0.0,0.0,0.0,0.0,0.0,-0.006366572808474302,0.008321580477058887,0.04356710612773895,0.0,0.0,0.0,0.0,0.0,0.0,0.0,0.0,0.0
1606991097083279573,4120621,1606987496289476172,imu_link,0.00515219010412693,0.0073890541680157185,0.3952332139015198,0.9185366630554199,0.0,0.0,0.0,0.0,0.0,0.0,0.0,0.0,0.0,46.567203521728516,0.5444098114967346,0.8770286440849304,0.0,0.0,0.0,0.0,0.0,0.0,0.0,0.0,0.0,-0.02617773599922657,0.011263517662882805,0.06314388662576675,0.0,0.0,0.0,0.0,0.0,0.0,0.0,0.0,0.0
1606991097083297723,4120622,1606987496289574698,imu_link,0.00515219010412693,0.0073890541680157185,0.3952332139015198,0.9185366630554199,0.0,0.0,0.0,0.0,0.0,0.0,0.0,0.0,0.0,46.567203521728516,0.5444098114967346,0.8770286440849304,0.0,0.0,0.0,0.0,0.0,0.0,0.0,0.0,0.0,-0.02617773599922657,0.011263517662882805,0.06314388662576675,0.0,0.0,0.0,0.0,0.0,0.0,0.0,0.0,0.0
1606991097083334551,4120623,1606987496289653809,imu_link,0.005152092780917883,0.007388660218566656,0.39523258805274963,0.9185369610786438,0.0,0.0,0.0,0.0,0.0,0.0,0.0,0.0,0.0,46.56712341308594,0.5443733334541321,0.8770002126693726,0.0,0.0,0.0,0.0,0.0,0.0,0.0,0.0,0.0,-0.010817565955221653,-0.004018361680209637,0.05407993495464325,0.0,0.0,0.0,0.0,0.0,0.0,0.0,0.0,0.0
1606991097083355308,4120624,1606987496289714276,imu_link,0.005152092780917883,0.007388660218566656,0.39523258805274963,0.9185369610786438,0.0,0.0,0.0,0.0,0.0,0.0,0.0,0.0,0.0,46.56712341308594,0.5443733334541321,0.8770002126693726,0.0,0.0,0.0,0.0,0.0,0.0,0.0,0.0,0.0,-0.010817565955221653,-0.004018361680209637,0.05407993495464325,0.0,0.0,0.0,0.0,0.0,0.0,0.0,0.0,0.0
1606991097083375502,4120625,1606987496289774506,imu_link,0.005150776356458664,0.007387097924947739,0.39523714780807495,0.9185349345207214,0.0,0.0,0.0,0.0,0.0,0.0,0.0,0.0,0.0,46.56769561767578,0.5442640781402588,0.8767935037612915,0.0,0.0,0.0,0.0,0.0,0.0,0.0,0.0,0.0,0.009271705523133278,-0.015859954059123993,0.03662114217877388,0.0,0.0,0.0,0.0,0.0,0.0,0.0,0.0,0.0
1606991097097281105,4120626,1606987496289830085,imu_link,0.005150776356458664,0.007387097924947739,0.39523714780807495,0.9185349345207214,0.0,0.0,0.0,0.0,0.0,0.0,0.0,0.0,0.0,46.56769561767578,0.5442640781402588,0.8767935037612915,0.0,0.0,0.0,0.0,0.0,0.0,0.0,0.0,0.0,0.009271705523133278,-0.015859954059123993,0.03662114217877388,0.0,0.0,0.0,0.0,0.0,0.0,0.0,0.0,0.0
1606991097097313094,4120627,1606987496289887298,imu_link,0.005151440389454365,0.007386484649032354,0.3952375650405884,0.9185348749160767,0.0,0.0,0.0,0.0,0.0,0.0,0.0,0.0,0.0,46.56774139404297,0.5441691875457764,0.876835823059082,0.0,0.0,0.0,0.0,0.0,0.0,0.0,0.0,0.0,0.016632800921797752,-0.004348772577941418,0.04112569987773895,0.0,0.0,0.0,0.0,0.0,0.0,0.0,0.0,0.0
1606991097097328171,4120628,1606987496289947951,imu_link,0.005151440389454365,0.007386484649032354,0.3952375650405884,0.9185348749160767,0.0,0.0,0.0,0.0,0.0,0.0,0.0,0.0,0.0,46.56774139404297,0.5441691875457764,0.876835823059082,0.0,0.0,0.0,0.0,0.0,0.0,0.0,0.0,0.0,0.016632800921797752,-0.004348772577941418,0.04112569987773895,0.0,0.0,0.0,0.0,0.0,0.0,0.0,0.0,0.0
1606991097097349294,4120629,1606987496302181558,imu_link,0.005152480211108923,0.007387788034975529,0.3952377438545227,0.9185347557067871,0.0,0.0,0.0,0.0,0.0,0.0,0.0,0.0,0.0,46.56776428222656,0.5442590713500977,0.8770044445991516,0.0,0.0,0.0,0.0,0.0,0.0,0.0,0.0,0.0,0.015744194388389587,0.0010268384357914329,0.03803616762161255,0.0,0.0,0.0,0.0,0.0,0.0,0.0,0.0,0.0
1606991097189352085,4120630,1606987496302294086,imu_link,0.005152480211108923,0.007387788034975529,0.3952377438545227,0.9185347557067871,0.0,0.0,0.0,0.0,0.0,0.0,0.0,0.0,0.0,46.56776428222656,0.5442590713500977,0.8770044445991516,0.0,0.0,0.0,0.0,0.0,0.0,0.0,0.0,0.0,0.015744194388389587,0.0010268384357914329,0.03803616762161255,0.0,0.0,0.0,0.0,0.0,0.0,0.0,0.0,0.0
1606991097189386936,4120631,1606987496302437454,imu_link,0.005152433644980192,0.007387523073703051,0.3952377736568451,0.9185347557067871,0.0,0.0,0.0,0.0,0.0,0.0,0.0,0.0,0.0,46.56776809692383,0.5442332625389099,0.8769875168800354,0.0,0.0,0.0,0.0,0.0,0.0,0.0,0.0,0.0,-0.006396908778697252,0.0063144792802631855,0.0500778928399086,0.0,0.0,0.0,0.0,0.0,0.0,0.0,0.0,0.0
1606991097189404895,4120632,1606987496302521938,imu_link,0.005152433644980192,0.007387523073703051,0.3952377736568451,0.9185347557067871,0.0,0.0,0.0,0.0,0.0,0.0,0.0,0.0,0.0,46.56776809692383,0.5442332625389099,0.8769875168800354,0.0,0.0,0.0,0.0,0.0,0.0,0.0,0.0,0.0,-0.006396908778697252,0.0063144792802631855,0.0500778928399086,0.0,0.0,0.0,0.0,0.0,0.0,0.0,0.0,0.0
1606991097189433704,4120633,1606987496302597172,imu_link,0.005149870179593563,0.007387939374893904,0.3952404856681824,0.9185335040092468,0.0,0.0,0.0,0.0,0.0,0.0,0.0,0.0,0.0,46.568111419677734,0.5443906188011169,0.8767382502555847,0.0,0.0,0.0,0.0,0.0,0.0,0.0,0.0,0.0,-0.005981859285384417,0.0032827132381498814,0.07722460478544235,0.0,0.0,0.0,0.0,0.0,0.0,0.0,0.0,0.0
1606991097189566652,4120634,1606987496302681563,imu_link,0.005149870179593563,0.007387939374893904,0.3952404856681824,0.9185335040092468,0.0,0.0,0.0,0.0,0.0,0.0,0.0,0.0,0.0,46.568111419677734,0.5443906188011169,0.8767382502555847,0.0,0.0,0.0,0.0,0.0,0.0,0.0,0.0,0.0,-0.005981859285384417,0.0032827132381498814,0.07722460478544235,0.0,0.0,0.0,0.0,0.0,0.0,0.0,0.0,0.0
1606991097197696355,4120635,1606987496302748173,imu_link,0.005149794742465019,0.007386039011180401,0.39524132013320923,0.9185332655906677,0.0,0.0,0.0,0.0,0.0,0.0,0.0,0.0,0.0,46.568199157714844,0.5441932082176208,0.8766446709632874,0.0,0.0,0.0,0.0,0.0,0.0,0.0,0.0,0.0,0.003450774122029543,-0.011823329143226147,0.07434624433517456,0.0,0.0,0.0,0.0,0.0,0.0,0.0,0.0,0.0
1606991097197752786,4120636,1606987496302809712,imu_link,0.005149794742465019,0.007386039011180401,0.39524132013320923,0.9185332655906677,0.0,0.0,0.0,0.0,0.0,0.0,0.0,0.0,0.0,46.568199157714844,0.5441932082176208,0.8766446709632874,0.0,0.0,0.0,0.0,0.0,0.0,0.0,0.0,0.0,0.003450774122029543,-0.011823329143226147,0.07434624433517456,0.0,0.0,0.0,0.0,0.0,0.0,0.0,0.0,0.0
1606991097197772246,4120637,1606987496302873251,imu_link,0.005149995908141136,0.007387261372059584,0.3952414393424988,0.918533205986023,0.0,0.0,0.0,0.0,0.0,0.0,0.0,0.0,0.0,46.56822204589844,0.5443126559257507,0.876721203327179,0.0,0.0,0.0,0.0,0.0,0.0,0.0,0.0,0.0,-0.006143472157418728,-0.015081737190485,0.05276370048522949,0.0,0.0,0.0,0.0,0.0,0.0,0.0,0.0,0.0
1606991097197794425,4120638,1606987496302970977,imu_link,0.005149995908141136,0.007387261372059584,0.3952414393424988,0.918533205986023,0.0,0.0,0.0,0.0,0.0,0.0,0.0,0.0,0.0,46.56822204589844,0.5443126559257507,0.876721203327179,0.0,0.0,0.0,0.0,0.0,0.0,0.0,0.0,0.0,-0.006143472157418728,-0.015081737190485,0.05276370048522949,0.0,0.0,0.0,0.0,0.0,0.0,0.0,0.0,0.0
1606991097201375653,4120639,1606987496315544540,imu_link,0.005149107426404953,0.007387539371848106,0.39524203538894653,0.9185329079627991,0.0,0.0,0.0,0.0,0.0,0.0,0.0,0.0,0.0,46.56829833984375,0.5443815588951111,0.8766407370567322,0.0,0.0,0.0,0.0,0.0,0.0,0.0,0.0,0.0,-0.008259887807071209,-0.0068353815004229546,0.04871049150824547,0.0,0.0,0.0,0.0,0.0,0.0,0.0,0.0,0.0
1606991097201426675,4120640,1606987496315654807,imu_link,0.005149107426404953,0.007387539371848106,0.39524203538894653,0.9185329079627991,0.0,0.0,0.0,0.0,0.0,0.0,0.0,0.0,0.0,46.56829833984375,0.5443815588951111,0.8766407370567322,0.0,0.0,0.0,0.0,0.0,0.0,0.0,0.0,0.0,-0.008259887807071209,-0.0068353815004229546,0.04871049150824547,0.0,0.0,0.0,0.0,0.0,0.0,0.0,0.0,0.0
1606991097201479132,4120641,1606987496315781677,imu_link,0.0051493714563548565,0.007386723067611456,0.3952447474002838,0.9185317754745483,0.0,0.0,0.0,0.0,0.0,0.0,0.0,0.0,0.0,46.56863784790039,0.5442811250686646,0.8766331076622009,0.0,0.0,0.0,0.0,0.0,0.0,0.0,0.0,0.0,-0.008259197697043419,-0.003179175779223442,0.038506779819726944,0.0,0.0,0.0,0.0,0.0,0.0,0.0,0.0,0.0
1606991097201501883,4120642,1606987496315862480,imu_link,0.0051493714563548565,0.007386723067611456,0.3952447474002838,0.9185317754745483,0.0,0.0,0.0,0.0,0.0,0.0,0.0,0.0,0.0,46.56863784790039,0.5442811250686646,0.8766331076622009,0.0,0.0,0.0,0.0,0.0,0.0,0.0,0.0,0.0,-0.008259197697043419,-0.003179175779223442,0.038506779819726944,0.0,0.0,0.0,0.0,0.0,0.0,0.0,0.0,0.0
1606991097201519654,4120643,1606987496315940504,imu_link,0.005151012446731329,0.007386994548141956,0.39524543285369873,0.9185314774513245,0.0,0.0,0.0,0.0,0.0,0.0,0.0,0.0,0.0,46.56871795654297,0.5442347526550293,0.8768185377120972,0.0,0.0,0.0,0.0,0.0,0.0,0.0,0.0,0.0,-0.02156752347946167,-0.0007221574196591973,0.02220969647169113,0.0,0.0,0.0,0.0,0.0,0.0,0.0,0.0,0.0
1606991097204663342,4120644,1606987496316005904,imu_link,0.005151012446731329,0.007386994548141956,0.39524543285369873,0.9185314774513245,0.0,0.0,0.0,0.0,0.0,0.0,0.0,0.0,0.0,46.56871795654297,0.5442347526550293,0.8768185377120972,0.0,0.0,0.0,0.0,0.0,0.0,0.0,0.0,0.0,-0.02156752347946167,-0.0007221574196591973,0.02220969647169113,0.0,0.0,0.0,0.0,0.0,0.0,0.0,0.0,0.0
1606991097204691293,4120645,1606987496316086073,imu_link,0.005150456912815571,0.007384836208075285,0.3952504098415375,0.9185293316841125,0.0,0.0,0.0,0.0,0.0,0.0,0.0,0.0,0.0,46.569339752197266,0.5440279245376587,0.8766652941703796,0.0,0.0,0.0,0.0,0.0,0.0,0.0,0.0,0.0,-0.0323018953204155,0.003324622754007578,0.025100069120526314,0.0,0.0,0.0,0.0,0.0,0.0,0.0,0.0,0.0
1606991097204730759,4120646,1606987496316156155,imu_link,0.005150456912815571,0.007384836208075285,0.3952504098415375,0.9185293316841125,0.0,0.0,0.0,0.0,0.0,0.0,0.0,0.0,0.0,46.569339752197266,0.5440279245376587,0.8766652941703796,0.0,0.0,0.0,0.0,0.0,0.0,0.0,0.0,0.0,-0.0323018953204155,0.003324622754007578,0.025100069120526314,0.0,0.0,0.0,0.0,0.0,0.0,0.0,0.0,0.0
1606991097204756888,4120647,1606987496316286629,imu_link,0.005149955861270428,0.007384156808257103,0.3952506184577942,0.9185292720794678,0.0,0.0,0.0,0.0,0.0,0.0,0.0,0.0,0.0,46.569366455078125,0.5439789891242981,0.8765819072723389,0.0,0.0,0.0,0.0,0.0,0.0,0.0,0.0,0.0,-0.03153351694345474,-0.011286633089184761,0.014499274082481861,0.0,0.0,0.0,0.0,0.0,0.0,0.0,0.0,0.0
1606991097289060116,4120648,1606987496316353532,imu_link,0.005149955861270428,0.007384156808257103,0.3952506184577942,0.9185292720794678,0.0,0.0,0.0,0.0,0.0,0.0,0.0,0.0,0.0,46.569366455078125,0.5439789891242981,0.8765819072723389,0.0,0.0,0.0,0.0,0.0,0.0,0.0,0.0,0.0,-0.03153351694345474,-0.011286633089184761,0.014499274082481861,0.0,0.0,0.0,0.0,0.0,0.0,0.0,0.0,0.0
1606991097289076180,4120649,1606987496316420419,imu_link,0.005151032470166683,0.007382228039205074,0.39525607228279114,0.9185268878936768,0.0,0.0,0.0,0.0,0.0,0.0,0.0,0.0,0.0,46.570045471191406,0.5437219142913818,0.876611053943634,0.0,0.0,0.0,0.0,0.0,0.0,0.0,0.0,0.0,-0.024771708995103836,-0.013984658755362034,0.010317418724298477,0.0,0.0,0.0,0.0,0.0,0.0,0.0,0.0,0.0
1606991097289085673,4120650,1606987496329353831,imu_link,0.005151032470166683,0.007382228039205074,0.39525607228279114,0.9185268878936768,0.0,0.0,0.0,0.0,0.0,0.0,0.0,0.0,0.0,46.570045471191406,0.5437219142913818,0.876611053943634,0.0,0.0,0.0,0.0,0.0,0.0,0.0,0.0,0.0,-0.024771708995103836,-0.013984658755362034,0.010317418724298477,0.0,0.0,0.0,0.0,0.0,0.0,0.0,0.0,0.0
1606991097289112456,4120651,1606987496329464727,imu_link,0.005150861572474241,0.007384276017546654,0.39525461196899414,0.9185275435447693,0.0,0.0,0.0,0.0,0.0,0.0,0.0,0.0,0.0,46.56986618041992,0.5439466238021851,0.8766849637031555,0.0,0.0,0.0,0.0,0.0,0.0,0.0,0.0,0.0,-0.007822603918612003,0.014227532781660557,0.018365859985351562,0.0,0.0,0.0,0.0,0.0,0.0,0.0,0.0,0.0
1606991097289117545,4120652,1606987496329608677,imu_link,0.005150861572474241,0.007384276017546654,0.39525461196899414,0.9185275435447693,0.0,0.0,0.0,0.0,0.0,0.0,0.0,0.0,0.0,46.56986618041992,0.5439466238021851,0.8766849637031555,0.0,0.0,0.0,0.0,0.0,0.0,0.0,0.0,0.0,-0.007822603918612003,0.014227532781660557,0.018365859985351562,0.0,0.0,0.0,0.0,0.0,0.0,0.0,0.0,0.0
1606991097291890292,4120653,1606987496329689872,imu_link,0.005150378216058016,0.007382913958281279,0.39525559544563293,0.9185271263122559,0.0,0.0,0.0,0.0,0.0,0.0,0.0,0.0,0.0,46.569984436035156,0.5438242554664612,0.8765729665756226,0.0,0.0,0.0,0.0,0.0,0.0,0.0,0.0,0.0,0.013494267128407955,0.021484142169356346,0.027186676859855652,0.0,0.0,0.0,0.0,0.0,0.0,0.0,0.0,0.0
1606991097291917344,4120654,1606987496329828666,imu_link,0.005150378216058016,0.007382913958281279,0.39525559544563293,0.9185271263122559,0.0,0.0,0.0,0.0,0.0,0.0,0.0,0.0,0.0,46.569984436035156,0.5438242554664612,0.8765729665756226,0.0,0.0,0.0,0.0,0.0,0.0,0.0,0.0,0.0,0.013494267128407955,0.021484142169356346,0.027186676859855652,0.0,0.0,0.0,0.0,0.0,0.0,0.0,0.0,0.0
1606991097291929241,4120655,1606987496329896190,imu_link,0.00515122152864933,0.007382883690297604,0.39525553584098816,0.9185271263122559,0.0,0.0,0.0,0.0,0.0,0.0,0.0,0.0,0.0,46.56998062133789,0.5437828898429871,0.8766604065895081,0.0,0.0,0.0,0.0,0.0,0.0,0.0,0.0,0.0,0.011487862095236778,0.0018800003454089165,0.0558258555829525,0.0,0.0,0.0,0.0,0.0,0.0,0.0,0.0,0.0
1606991097291943988,4120656,1606987496329984390,imu_link,0.00515122152864933,0.007382883690297604,0.39525553584098816,0.9185271263122559,0.0,0.0,0.0,0.0,0.0,0.0,0.0,0.0,0.0,46.56998062133789,0.5437828898429871,0.8766604065895081,0.0,0.0,0.0,0.0,0.0,0.0,0.0,0.0,0.0,0.011487862095236778,0.0018800003454089165,0.0558258555829525,0.0,0.0,0.0,0.0,0.0,0.0,0.0,0.0,0.0
1606991097305193054,4120657,1606987496330049805,imu_link,0.005150005221366882,0.007385397795587778,0.39525890350341797,0.9185256361961365,0.0,0.0,0.0,0.0,0.0,0.0,0.0,0.0,0.0,46.57040786743164,0.5440993905067444,0.8766482472419739,0.0,0.0,0.0,0.0,0.0,0.0,0.0,0.0,0.0,-0.003917277324944735,-0.00983360130339861,0.0759216845035553,0.0,0.0,0.0,0.0,0.0,0.0,0.0,0.0,0.0
1606991097305246513,4120658,1606987496330145242,imu_link,0.005150005221366882,0.007385397795587778,0.39525890350341797,0.9185256361961365,0.0,0.0,0.0,0.0,0.0,0.0,0.0,0.0,0.0,46.57040786743164,0.5440993905067444,0.8766482472419739,0.0,0.0,0.0,0.0,0.0,0.0,0.0,0.0,0.0,-0.003917277324944735,-0.00983360130339861,0.0759216845035553,0.0,0.0,0.0,0.0,0.0,0.0,0.0,0.0,0.0
1606991097305259302,4120659,1606987496330212482,imu_link,0.0051505714654922485,0.007386266719549894,0.39525988698005676,0.918525218963623,0.0,0.0,0.0,0.0,0.0,0.0,0.0,0.0,0.0,46.57052993774414,0.54416424036026,0.876747727394104,0.0,0.0,0.0,0.0,0.0,0.0,0.0,0.0,0.0,-0.007243119180202484,-0.004523175768554211,0.05591769143939018,0.0,0.0,0.0,0.0,0.0,0.0,0.0,0.0,0.0
1606991097305276810,4120660,1606987496330280227,imu_link,0.0051505714654922485,0.007386266719549894,0.39525988698005676,0.918525218963623,0.0,0.0,0.0,0.0,0.0,0.0,0.0,0.0,0.0,46.57052993774414,0.54416424036026,0.876747727394104,0.0,0.0,0.0,0.0,0.0,0.0,0.0,0.0,0.0,-0.007243119180202484,-0.004523175768554211,0.05591769143939018,0.0,0.0,0.0,0.0,0.0,0.0,0.0,0.0,0.0
1606991097311321419,4120661,1606987496342785904,imu_link,0.005151123274117708,0.0073850699700415134,0.3952583372592926,0.9185258746147156,0.0,0.0,0.0,0.0,0.0,0.0,0.0,0.0,0.0,46.57033157348633,0.5440147519111633,0.8767507076263428,0.0,0.0,0.0,0.0,0.0,0.0,0.0,0.0,0.0,-0.005305481608957052,0.008979040198028088,0.04480145871639252,0.0,0.0,0.0,0.0,0.0,0.0,0.0,0.0,0.0
1606991097311343392,4120662,1606987496342909621,imu_link,0.005151123274117708,0.0073850699700415134,0.3952583372592926,0.9185258746147156,0.0,0.0,0.0,0.0,0.0,0.0,0.0,0.0,0.0,46.57033157348633,0.5440147519111633,0.8767507076263428,0.0,0.0,0.0,0.0,0.0,0.0,0.0,0.0,0.0,-0.005305481608957052,0.008979040198028088,0.04480145871639252,0.0,0.0,0.0,0.0,0.0,0.0,0.0,0.0,0.0
1606991097311366612,4120663,1606987496343072332,imu_link,0.0051488191820681095,0.0073843905702233315,0.3952588737010956,0.9185256958007812,0.0,0.0,0.0,0.0,0.0,0.0,0.0,0.0,0.0,46.570396423339844,0.5440471172332764,0.8764776587486267,0.0,0.0,0.0,0.0,0.0,0.0,0.0,0.0,0.0,-0.016275251284241676,0.004083785228431225,0.06498194485902786,0.0,0.0,0.0,0.0,0.0,0.0,0.0,0.0,0.0
1606991097311373888,4120664,1606987496343153484,imu_link,0.0051488191820681095,0.0073843905702233315,0.3952588737010956,0.9185256958007812,0.0,0.0,0.0,0.0,0.0,0.0,0.0,0.0,0.0,46.570396423339844,0.5440471172332764,0.8764776587486267,0.0,0.0,0.0,0.0,0.0,0.0,0.0,0.0,0.0,-0.016275251284241676,0.004083785228431225,0.06498194485902786,0.0,0.0,0.0,0.0,0.0,0.0,0.0,0.0,0.0
1606991097311380954,4120665,1606987496343225014,imu_link,0.005148343741893768,0.007383476477116346,0.39526069164276123,0.9185249209403992,0.0,0.0,0.0,0.0,0.0,0.0,0.0,0.0,0.0,46.57062530517578,0.5439707636833191,0.876387357711792,0.0,0.0,0.0,0.0,0.0,0.0,0.0,0.0,0.0,-0.0006307252333499491,-0.005781051702797413,0.072987399995327,0.0,0.0,0.0,0.0,0.0,0.0,0.0,0.0,0.0
1606991097392539239,4120666,1606987496343299381,imu_link,0.005148343741893768,0.007383476477116346,0.39526069164276123,0.9185249209403992,0.0,0.0,0.0,0.0,0.0,0.0,0.0,0.0,0.0,46.57062530517578,0.5439707636833191,0.876387357711792,0.0,0.0,0.0,0.0,0.0,0.0,0.0,0.0,0.0,-0.0006307252333499491,-0.005781051702797413,0.072987399995327,0.0,0.0,0.0,0.0,0.0,0.0,0.0,0.0,0.0
1606991097392559471,4120667,1606987496343393701,imu_link,0.005150680895894766,0.007383575197309256,0.39526090025901794,0.9185248017311096,0.0,0.0,0.0,0.0,0.0,0.0,0.0,0.0,0.0,46.57064437866211,0.5438750982284546,0.8766379356384277,0.0,0.0,0.0,0.0,0.0,0.0,0.0,0.0,0.0,0.019706206396222115,-0.0005648421356454492,0.07249787449836731,0.0,0.0,0.0,0.0,0.0,0.0,0.0,0.0,0.0
1606991097392599832,4120668,1606987496343467687,imu_link,0.005150680895894766,0.007383575197309256,0.39526090025901794,0.9185248017311096,0.0,0.0,0.0,0.0,0.0,0.0,0.0,0.0,0.0,46.57064437866211,0.5438750982284546,0.8766379356384277,0.0,0.0,0.0,0.0,0.0,0.0,0.0,0.0,0.0,0.019706206396222115,-0.0005648421356454492,0.07249787449836731,0.0,0.0,0.0,0.0,0.0,0.0,0.0,0.0,0.0
1606991097392616166,4120669,1606987496343540615,imu_link,0.005148712545633316,0.0073869237676262856,0.39526283740997314,0.9185239672660828,0.0,0.0,0.0,0.0,0.0,0.0,0.0,0.0,0.0,46.570892333984375,0.5443147420883179,0.8765835762023926,0.0,0.0,0.0,0.0,0.0,0.0,0.0,0.0,0.0,0.02283194474875927,-0.005200481973588467,0.07333024591207504,0.0,0.0,0.0,0.0,0.0,0.0,0.0,0.0,0.0
1606991097396033472,4120670,1606987496343615264,imu_link,0.005148712545633316,0.0073869237676262856,0.39526283740997314,0.9185239672660828,0.0,0.0,0.0,0.0,0.0,0.0,0.0,0.0,0.0,46.570892333984375,0.5443147420883179,0.8765835762023926,0.0,0.0,0.0,0.0,0.0,0.0,0.0,0.0,0.0,0.02283194474875927,-0.005200481973588467,0.07333024591207504,0.0,0.0,0.0,0.0,0.0,0.0,0.0,0.0,0.0
1606991097396057824,4120671,1606987496343688406,imu_link,0.005149745848029852,0.007385972887277603,0.39526301622390747,0.9185238480567932,0.0,0.0,0.0,0.0,0.0,0.0,0.0,0.0,0.0,46.57091522216797,0.544167697429657,0.8766494989395142,0.0,0.0,0.0,0.0,0.0,0.0,0.0,0.0,0.0,0.016761068254709244,-4.7535053454339504e-05,0.07731039077043533,0.0,0.0,0.0,0.0,0.0,0.0,0.0,0.0,0.0
1606991097396090530,4120672,1606987496356767203,imu_link,0.005149745848029852,0.007385972887277603,0.39526301622390747,0.9185238480567932,0.0,0.0,0.0,0.0,0.0,0.0,0.0,0.0,0.0,46.57091522216797,0.544167697429657,0.8766494989395142,0.0,0.0,0.0,0.0,0.0,0.0,0.0,0.0,0.0,0.016761068254709244,-4.7535053454339504e-05,0.07731039077043533,0.0,0.0,0.0,0.0,0.0,0.0,0.0,0.0,0.0
1606991097396102126,4120673,1606987496356890551,imu_link,0.005151086952537298,0.007389451377093792,0.3952636122703552,0.9185235500335693,0.0,0.0,0.0,0.0,0.0,0.0,0.0,0.0,0.0,46.57099533081055,0.5444725751876831,0.8769486546516418,0.0,0.0,0.0,0.0,0.0,0.0,0.0,0.0,0.0,0.01353481039404869,0.016091318801045418,0.06253650039434433,0.0,0.0,0.0,0.0,0.0,0.0,0.0,0.0,0.0
1606991097396117698,4120674,1606987496357035232,imu_link,0.005151086952537298,0.007389451377093792,0.3952636122703552,0.9185235500335693,0.0,0.0,0.0,0.0,0.0,0.0,0.0,0.0,0.0,46.57099533081055,0.5444725751876831,0.8769486546516418,0.0,0.0,0.0,0.0,0.0,0.0,0.0,0.0,0.0,0.01353481039404869,0.016091318801045418,0.06253650039434433,0.0,0.0,0.0,0.0,0.0,0.0,0.0,0.0,0.0
1606991097415625982,4120675,1606987496357113965,imu_link,0.005149992648512125,0.007391501218080521,0.39526399970054626,0.918523371219635,0.0,0.0,0.0,0.0,0.0,0.0,0.0,0.0,0.0,46.571044921875,0.5447375178337097,0.8769264221191406,0.0,0.0,0.0,0.0,0.0,0.0,0.0,0.0,0.0,0.00041780690662562847,0.014998276717960835,0.04158264398574829,0.0,0.0,0.0,0.0,0.0,0.0,0.0,0.0,0.0
1606991097415670304,4120676,1606987496357191448,imu_link,0.005149992648512125,0.007391501218080521,0.39526399970054626,0.918523371219635,0.0,0.0,0.0,0.0,0.0,0.0,0.0,0.0,0.0,46.571044921875,0.5447375178337097,0.8769264221191406,0.0,0.0,0.0,0.0,0.0,0.0,0.0,0.0,0.0,0.00041780690662562847,0.014998276717960835,0.04158264398574829,0.0,0.0,0.0,0.0,0.0,0.0,0.0,0.0,0.0
1606991097415687553,4120677,1606987496357282230,imu_link,0.00515002803876996,0.00738931680098176,0.39526936411857605,0.9185211062431335,0.0,0.0,0.0,0.0,0.0,0.0,0.0,0.0,0.0,46.571712493896484,0.5445008277893066,0.8768343925476074,0.0,0.0,0.0,0.0,0.0,0.0,0.0,0.0,0.0,-0.008942779153585434,0.011754466220736504,0.04293115809559822,0.0,0.0,0.0,0.0,0.0,0.0,0.0,0.0,0.0
1606991097415705022,4120678,1606987496357359378,imu_link,0.00515002803876996,0.00738931680098176,0.39526936411857605,0.9185211062431335,0.0,0.0,0.0,0.0,0.0,0.0,0.0,0.0,0.0,46.571712493896484,0.5445008277893066,0.8768343925476074,0.0,0.0,0.0,0.0,0.0,0.0,0.0,0.0,0.0,-0.008942779153585434,0.011754466220736504,0.04293115809559822,0.0,0.0,0.0,0.0,0.0,0.0,0.0,0.0,0.0
1606991097419251347,4120679,1606987496357444361,imu_link,0.0051491474732756615,0.007387635298073292,0.39526912569999695,0.9185212850570679,0.0,0.0,0.0,0.0,0.0,0.0,0.0,0.0,0.0,46.571678161621094,0.5443639755249023,0.8766653537750244,0.0,0.0,0.0,0.0,0.0,0.0,0.0,0.0,0.0,-0.0001293049135711044,0.017781181260943413,0.027238933369517326,0.0,0.0,0.0,0.0,0.0,0.0,0.0,0.0,0.0
1606991097419333069,4120680,1606987496357520453,imu_link,0.0051491474732756615,0.007387635298073292,0.39526912569999695,0.9185212850570679,0.0,0.0,0.0,0.0,0.0,0.0,0.0,0.0,0.0,46.571678161621094,0.5443639755249023,0.8766653537750244,0.0,0.0,0.0,0.0,0.0,0.0,0.0,0.0,0.0,-0.0001293049135711044,0.017781181260943413,0.027238933369517326,0.0,0.0,0.0,0.0,0.0,0.0,0.0,0.0,0.0
1606991097419368751,4120681,1606987496357595368,imu_link,0.005146969575434923,0.007386619690805674,0.3952747881412506,0.9185188412666321,0.0,0.0,0.0,0.0,0.0,0.0,0.0,0.0,0.0,46.572383880615234,0.5443503260612488,0.8763933777809143,0.0,0.0,0.0,0.0,0.0,0.0,0.0,0.0,0.0,-0.005462478380650282,-0.0014360930072143674,0.03178216889500618,0.0,0.0,0.0,0.0,0.0,0.0,0.0,0.0,0.0
1606991097419496359,4120682,1606987496357668271,imu_link,0.005146969575434923,0.007386619690805674,0.3952747881412506,0.9185188412666321,0.0,0.0,0.0,0.0,0.0,0.0,0.0,0.0,0.0,46.572383880615234,0.5443503260612488,0.8763933777809143,0.0,0.0,0.0,0.0,0.0,0.0,0.0,0.0,0.0,-0.005462478380650282,-0.0014360930072143674,0.03178216889500618,0.0,0.0,0.0,0.0,0.0,0.0,0.0,0.0,0.0
1606991097419542174,4120683,1606987496368381109,imu_link,0.005146130919456482,0.007386545184999704,0.3952753245830536,0.918518602848053,0.0,0.0,0.0,0.0,0.0,0.0,0.0,0.0,0.0,46.57244873046875,0.5443799495697021,0.8763020634651184,0.0,0.0,0.0,0.0,0.0,0.0,0.0,0.0,0.0,-0.006805791985243559,-0.011742458678781986,0.03443656489253044,0.0,0.0,0.0,0.0,0.0,0.0,0.0,0.0,0.0
1606991097482869681,4120684,1606987496368521600,imu_link,0.005146130919456482,0.007386545184999704,0.3952753245830536,0.918518602848053,0.0,0.0,0.0,0.0,0.0,0.0,0.0,0.0,0.0,46.57244873046875,0.5443799495697021,0.8763020634651184,0.0,0.0,0.0,0.0,0.0,0.0,0.0,0.0,0.0,-0.006805791985243559,-0.011742458678781986,0.03443656489253044,0.0,0.0,0.0,0.0,0.0,0.0,0.0,0.0,0.0
1606991097482886665,4120685,1606987496368690816,imu_link,0.005147730465978384,0.007388556841760874,0.39527735114097595,0.9185177087783813,0.0,0.0,0.0,0.0,0.0,0.0,0.0,0.0,0.0,46.57270050048828,0.5445173978805542,0.876562774181366,0.0,0.0,0.0,0.0,0.0,0.0,0.0,0.0,0.0,-0.011474761180579662,0.010909060016274452,0.019676219671964645,0.0,0.0,0.0,0.0,0.0,0.0,0.0,0.0,0.0
1606991097482894528,4120686,1606987496368791033,imu_link,0.005147730465978384,0.007388556841760874,0.39527735114097595,0.9185177087783813,0.0,0.0,0.0,0.0,0.0,0.0,0.0,0.0,0.0,46.57270050048828,0.5445173978805542,0.876562774181366,0.0,0.0,0.0,0.0,0.0,0.0,0.0,0.0,0.0,-0.011474761180579662,0.010909060016274452,0.019676219671964645,0.0,0.0,0.0,0.0,0.0,0.0,0.0,0.0,0.0
1606991097482902817,4120687,1606987496368962114,imu_link,0.005147329997271299,0.0073906551115214825,0.39527860283851624,0.9185171127319336,0.0,0.0,0.0,0.0,0.0,0.0,0.0,0.0,0.0,46.5728645324707,0.5447551608085632,0.8766165375709534,0.0,0.0,0.0,0.0,0.0,0.0,0.0,0.0,0.0,-0.01476156897842884,0.01806315965950489,0.047166913747787476,0.0,0.0,0.0,0.0,0.0,0.0,0.0,0.0,0.0
1606991097491872147,4120688,1606987496369071462,imu_link,0.005147329997271299,0.0073906551115214825,0.39527860283851624,0.9185171127319336,0.0,0.0,0.0,0.0,0.0,0.0,0.0,0.0,0.0,46.5728645324707,0.5447551608085632,0.8766165375709534,0.0,0.0,0.0,0.0,0.0,0.0,0.0,0.0,0.0,-0.01476156897842884,0.01806315965950489,0.047166913747787476,0.0,0.0,0.0,0.0,0.0,0.0,0.0,0.0,0.0
1606991097491893076,4120689,1606987496369153682,imu_link,0.005148057825863361,0.007388979196548462,0.39527973532676697,0.9185166358947754,0.0,0.0,0.0,0.0,0.0,0.0,0.0,0.0,0.0,46.5730094909668,0.5445446968078613,0.8766179084777832,0.0,0.0,0.0,0.0,0.0,0.0,0.0,0.0,0.0,-0.019109228625893593,0.004238072782754898,0.05614578723907471,0.0,0.0,0.0,0.0,0.0,0.0,0.0,0.0,0.0
1606991097491903074,4120690,1606987496369237882,imu_link,0.005148057825863361,0.007388979196548462,0.39527973532676697,0.9185166358947754,0.0,0.0,0.0,0.0,0.0,0.0,0.0,0.0,0.0,46.5730094909668,0.5445446968078613,0.8766179084777832,0.0,0.0,0.0,0.0,0.0,0.0,0.0,0.0,0.0,-0.019109228625893593,0.004238072782754898,0.05614578723907471,0.0,0.0,0.0,0.0,0.0,0.0,0.0,0.0,0.0
1606991097491914273,4120691,1606987496369320042,imu_link,0.005147662945091724,0.007390875369310379,0.3952796459197998,0.9185166954994202,0.0,0.0,0.0,0.0,0.0,0.0,0.0,0.0,0.0,46.572998046875,0.5447623133659363,0.8766621351242065,0.0,0.0,0.0,0.0,0.0,0.0,0.0,0.0,0.0,-0.016924582421779633,-0.0051774075254797935,0.06186471879482269,0.0,0.0,0.0,0.0,0.0,0.0,0.0,0.0,0.0
1606991097491930047,4120692,1606987496379565749,imu_link,0.005147662945091724,0.007390875369310379,0.3952796459197998,0.9185166954994202,0.0,0.0,0.0,0.0,0.0,0.0,0.0,0.0,0.0,46.572998046875,0.5447623133659363,0.8766621351242065,0.0,0.0,0.0,0.0,0.0,0.0,0.0,0.0,0.0,-0.016924582421779633,-0.0051774075254797935,0.06186471879482269,0.0,0.0,0.0,0.0,0.0,0.0,0.0,0.0,0.0
1606991097497537380,4120693,1606987496379702826,imu_link,0.005149007309228182,0.007389618083834648,0.39527958631515503,0.9185167551040649,0.0,0.0,0.0,0.0,0.0,0.0,0.0,0.0,0.0,46.57298278808594,0.5445691347122192,0.8767465949058533,0.0,0.0,0.0,0.0,0.0,0.0,0.0,0.0,0.0,-0.018685271963477135,0.01022962387651205,0.07437068969011307,0.0,0.0,0.0,0.0,0.0,0.0,0.0,0.0,0.0
1606991097497561807,4120694,1606987496379902639,imu_link,0.005149007309228182,0.007389618083834648,0.39527958631515503,0.9185167551040649,0.0,0.0,0.0,0.0,0.0,0.0,0.0,0.0,0.0,46.57298278808594,0.5445691347122192,0.8767465949058533,0.0,0.0,0.0,0.0,0.0,0.0,0.0,0.0,0.0,-0.018685271963477135,0.01022962387651205,0.07437068969011307,0.0,0.0,0.0,0.0,0.0,0.0,0.0,0.0,0.0
1606991097497573305,4120695,1606987496379992602,imu_link,0.005148970056325197,0.0073907747864723206,0.3952794373035431,0.9185168147087097,0.0,0.0,0.0,0.0,0.0,0.0,0.0,0.0,0.0,46.572975158691406,0.5446926951408386,0.8767950534820557,0.0,0.0,0.0,0.0,0.0,0.0,0.0,0.0,0.0,-0.008906993083655834,0.006943904794752598,0.05044211074709892,0.0,0.0,0.0,0.0,0.0,0.0,0.0,0.0,0.0
1606991097497593690,4120696,1606987496380101424,imu_link,0.005148970056325197,0.0073907747864723206,0.3952794373035431,0.9185168147087097,0.0,0.0,0.0,0.0,0.0,0.0,0.0,0.0,0.0,46.572975158691406,0.5446926951408386,0.8767950534820557,0.0,0.0,0.0,0.0,0.0,0.0,0.0,0.0,0.0,-0.008906993083655834,0.006943904794752598,0.05044211074709892,0.0,0.0,0.0,0.0,0.0,0.0,0.0,0.0,0.0
1606991097504653276,4120697,1606987496380183213,imu_link,0.005147494375705719,0.007391327992081642,0.39527878165245056,0.918516993522644,0.0,0.0,0.0,0.0,0.0,0.0,0.0,0.0,0.0,46.57289505004883,0.5448182821273804,0.8766645789146423,0.0,0.0,0.0,0.0,0.0,0.0,0.0,0.0,0.0,0.007282431703060865,-0.0042159706354141235,0.042721278965473175,0.0,0.0,0.0,0.0,0.0,0.0,0.0,0.0,0.0
1606991097504676219,4120698,1606987496380344902,imu_link,0.005147494375705719,0.007391327992081642,0.39527878165245056,0.918516993522644,0.0,0.0,0.0,0.0,0.0,0.0,0.0,0.0,0.0,46.57289505004883,0.5448182821273804,0.8766645789146423,0.0,0.0,0.0,0.0,0.0,0.0,0.0,0.0,0.0,0.007282431703060865,-0.0042159706354141235,0.042721278965473175,0.0,0.0,0.0,0.0,0.0,0.0,0.0,0.0,0.0
1606991097504688177,4120699,1606987496380428220,imu_link,0.005147031508386135,0.00739153241738677,0.3952793478965759,0.9185168743133545,0.0,0.0,0.0,0.0,0.0,0.0,0.0,0.0,0.0,46.572959899902344,0.544860303401947,0.8766252398490906,0.0,0.0,0.0,0.0,0.0,0.0,0.0,0.0,0.0,-0.004213026259094477,0.011101923882961273,0.050016794353723526,0.0,0.0,0.0,0.0,0.0,0.0,0.0,0.0,0.0
1606991097504704936,4120700,1606987496380507644,imu_link,0.005147031508386135,0.00739153241738677,0.3952793478965759,0.9185168743133545,0.0,0.0,0.0,0.0,0.0,0.0,0.0,0.0,0.0,46.572959899902344,0.544860303401947,0.8766252398490906,0.0,0.0,0.0,0.0,0.0,0.0,0.0,0.0,0.0,-0.004213026259094477,0.011101923882961273,0.050016794353723526,0.0,0.0,0.0,0.0,0.0,0.0,0.0,0.0,0.0
1606991097504713366,4120701,1606987496393004716,imu_link,0.00514589436352253,0.007389444392174482,0.3952757716178894,0.9185184240341187,0.0,0.0,0.0,0.0,0.0,0.0,0.0,0.0,0.0,46.572509765625,0.5446954965591431,0.8764088153839111,0.0,0.0,0.0,0.0,0.0,0.0,0.0,0.0,0.0,-0.012845396995544434,0.013350571505725384,0.03338291123509407,0.0,0.0,0.0,0.0,0.0,0.0,0.0,0.0,0.0
1606991097565992019,4120702,1606987496393135794,imu_link,0.00514589436352253,0.007389444392174482,0.3952757716178894,0.9185184240341187,0.0,0.0,0.0,0.0,0.0,0.0,0.0,0.0,0.0,46.572509765625,0.5446954965591431,0.8764088153839111,0.0,0.0,0.0,0.0,0.0,0.0,0.0,0.0,0.0,-0.012845396995544434,0.013350571505725384,0.03338291123509407,0.0,0.0,0.0,0.0,0.0,0.0,0.0,0.0,0.0
1606991097566017157,4120703,1606987496393343763,imu_link,0.0051460848189890385,0.007385346572846174,0.39527541399002075,0.9185184836387634,0.0,0.0,0.0,0.0,0.0,0.0,0.0,0.0,0.0,46.57246398925781,0.5442557334899902,0.8762431144714355,0.0,0.0,0.0,0.0,0.0,0.0,0.0,0.0,0.0,-0.014556135050952435,0.002834496321156621,0.036611348390579224,0.0,0.0,0.0,0.0,0.0,0.0,0.0,0.0,0.0
1606991097566026323,4120704,1606987496393436922,imu_link,0.0051460848189890385,0.007385346572846174,0.39527541399002075,0.9185184836387634,0.0,0.0,0.0,0.0,0.0,0.0,0.0,0.0,0.0,46.57246398925781,0.5442557334899902,0.8762431144714355,0.0,0.0,0.0,0.0,0.0,0.0,0.0,0.0,0.0,-0.014556135050952435,0.002834496321156621,0.036611348390579224,0.0,0.0,0.0,0.0,0.0,0.0,0.0,0.0,0.0
1606991097566050802,4120705,1606987496393547207,imu_link,0.005146208684891462,0.007381602190434933,0.3952735960483551,0.9185194373130798,0.0,0.0,0.0,0.0,0.0,0.0,0.0,0.0,0.0,46.57223129272461,0.5438579320907593,0.8760852217674255,0.0,0.0,0.0,0.0,0.0,0.0,0.0,0.0,0.0,-0.005292281974107027,0.011724427342414856,0.05047887936234474,0.0,0.0,0.0,0.0,0.0,0.0,0.0,0.0,0.0
1606991097569245017,4120706,1606987496393624137,imu_link,0.005146208684891462,0.007381602190434933,0.3952735960483551,0.9185194373130798,0.0,0.0,0.0,0.0,0.0,0.0,0.0,0.0,0.0,46.57223129272461,0.5438579320907593,0.8760852217674255,0.0,0.0,0.0,0.0,0.0,0.0,0.0,0.0,0.0,-0.005292281974107027,0.011724427342414856,0.05047887936234474,0.0,0.0,0.0,0.0,0.0,0.0,0.0,0.0,0.0
1606991097569265247,4120707,1606987496393711374,imu_link,0.005146320443600416,0.0073836613446474075,0.3952731192111969,0.9185196161270142,0.0,0.0,0.0,0.0,0.0,0.0,0.0,0.0,0.0,46.572166442871094,0.5440700054168701,0.8761900067329407,0.0,0.0,0.0,0.0,0.0,0.0,0.0,0.0,0.0,0.013188489712774754,0.005017001181840897,0.048372361809015274,0.0,0.0,0.0,0.0,0.0,0.0,0.0,0.0,0.0
1606991097569272568,4120708,1606987496393784178,imu_link,0.005146320443600416,0.0073836613446474075,0.3952731192111969,0.9185196161270142,0.0,0.0,0.0,0.0,0.0,0.0,0.0,0.0,0.0,46.572166442871094,0.5440700054168701,0.8761900067329407,0.0,0.0,0.0,0.0,0.0,0.0,0.0,0.0,0.0,0.013188489712774754,0.005017001181840897,0.048372361809015274,0.0,0.0,0.0,0.0,0.0,0.0,0.0,0.0,0.0
1606991097569280250,4120709,1606987496393929230,imu_link,0.00514621939510107,0.0073846778832376,0.3952769339084625,0.9185179471969604,0.0,0.0,0.0,0.0,0.0,0.0,0.0,0.0,0.0,46.57265090942383,0.5441779494285583,0.8762276768684387,0.0,0.0,0.0,0.0,0.0,0.0,0.0,0.0,0.0,0.011909066699445248,0.0056419987231493,0.041937123984098434,0.0,0.0,0.0,0.0,0.0,0.0,0.0,0.0,0.0
1606991097569298425,4120710,1606987496394005624,imu_link,0.00514621939510107,0.0073846778832376,0.3952769339084625,0.9185179471969604,0.0,0.0,0.0,0.0,0.0,0.0,0.0,0.0,0.0,46.57265090942383,0.5441779494285583,0.8762276768684387,0.0,0.0,0.0,0.0,0.0,0.0,0.0,0.0,0.0,0.011909066699445248,0.0056419987231493,0.041937123984098434,0.0,0.0,0.0,0.0,0.0,0.0,0.0,0.0,0.0
1606991097573506527,4120711,1606987496394088932,imu_link,0.005147386342287064,0.007383123505860567,0.3952775299549103,0.9185177087783813,0.0,0.0,0.0,0.0,0.0,0.0,0.0,0.0,0.0,46.57271957397461,0.5439608693122864,0.8762804865837097,0.0,0.0,0.0,0.0,0.0,0.0,0.0,0.0,0.0,0.010707898065447807,0.010407102294266224,0.03783430904150009,0.0,0.0,0.0,0.0,0.0,0.0,0.0,0.0,0.0
1606991097573527576,4120712,1606987496406860646,imu_link,0.005147386342287064,0.007383123505860567,0.3952775299549103,0.9185177087783813,0.0,0.0,0.0,0.0,0.0,0.0,0.0,0.0,0.0,46.57271957397461,0.5439608693122864,0.8762804865837097,0.0,0.0,0.0,0.0,0.0,0.0,0.0,0.0,0.0,0.010707898065447807,0.010407102294266224,0.03783430904150009,0.0,0.0,0.0,0.0,0.0,0.0,0.0,0.0,0.0
1606991097573535232,4120713,1606987496407019654,imu_link,0.005145147908478975,0.007384109776467085,0.3952776789665222,0.9185176491737366,0.0,0.0,0.0,0.0,0.0,0.0,0.0,0.0,0.0,46.5727424621582,0.5441659688949585,0.8760896325111389,0.0,0.0,0.0,0.0,0.0,0.0,0.0,0.0,0.0,0.00630758423358202,-0.0025118975900113583,0.03439515456557274,0.0,0.0,0.0,0.0,0.0,0.0,0.0,0.0,0.0
1606991097573565374,4120714,1606987496407140810,imu_link,0.005145147908478975,0.007384109776467085,0.3952776789665222,0.9185176491737366,0.0,0.0,0.0,0.0,0.0,0.0,0.0,0.0,0.0,46.5727424621582,0.5441659688949585,0.8760896325111389,0.0,0.0,0.0,0.0,0.0,0.0,0.0,0.0,0.0,0.00630758423358202,-0.0025118975900113583,0.03439515456557274,0.0,0.0,0.0,0.0,0.0,0.0,0.0,0.0,0.0
1606991097577844052,4120715,1606987496407218843,imu_link,0.0051453267224133015,0.007382639683783054,0.3952771723270416,0.9185177683830261,0.0,0.0,0.0,0.0,0.0,0.0,0.0,0.0,0.0,46.57268142700195,0.5440035462379456,0.8760416507720947,0.0,0.0,0.0,0.0,0.0,0.0,0.0,0.0,0.0,0.0011003800900653005,-0.004667762201279402,0.04900847002863884,0.0,0.0,0.0,0.0,0.0,0.0,0.0,0.0,0.0
1606991097577878864,4120716,1606987496407293679,imu_link,0.0051453267224133015,0.007382639683783054,0.3952771723270416,0.9185177683830261,0.0,0.0,0.0,0.0,0.0,0.0,0.0,0.0,0.0,46.57268142700195,0.5440035462379456,0.8760416507720947,0.0,0.0,0.0,0.0,0.0,0.0,0.0,0.0,0.0,0.0011003800900653005,-0.004667762201279402,0.04900847002863884,0.0,0.0,0.0,0.0,0.0,0.0,0.0,0.0,0.0
1606991097577892308,4120717,1606987496407380257,imu_link,0.005146007519215345,0.007383196614682674,0.39527878165245056,0.9185170531272888,0.0,0.0,0.0,0.0,0.0,0.0,0.0,0.0,0.0,46.57288360595703,0.5440297722816467,0.8761395215988159,0.0,0.0,0.0,0.0,0.0,0.0,0.0,0.0,0.0,0.008907688781619072,-0.00523013062775135,0.09137444943189621,0.0,0.0,0.0,0.0,0.0,0.0,0.0,0.0,0.0
1606991097577901299,4120718,1606987496407453916,imu_link,0.005146007519215345,0.007383196614682674,0.39527878165245056,0.9185170531272888,0.0,0.0,0.0,0.0,0.0,0.0,0.0,0.0,0.0,46.57288360595703,0.5440297722816467,0.8761395215988159,0.0,0.0,0.0,0.0,0.0,0.0,0.0,0.0,0.0,0.008907688781619072,-0.00523013062775135,0.09137444943189621,0.0,0.0,0.0,0.0,0.0,0.0,0.0,0.0,0.0
1606991097577916008,4120719,1606987496407602434,imu_link,0.005147871561348438,0.007383822463452816,0.3952787518501282,0.9185171127319336,0.0,0.0,0.0,0.0,0.0,0.0,0.0,0.0,0.0,46.5728759765625,0.5440112352371216,0.87636399269104,0.0,0.0,0.0,0.0,0.0,0.0,0.0,0.0,0.0,0.009637163020670414,-0.01210931595414877,0.08453989773988724,0.0,0.0,0.0,0.0,0.0,0.0,0.0,0.0,0.0
1606991097618359535,4120720,1606987496407681429,imu_link,0.005147871561348438,0.007383822463452816,0.3952787518501282,0.9185171127319336,0.0,0.0,0.0,0.0,0.0,0.0,0.0,0.0,0.0,46.5728759765625,0.5440112352371216,0.87636399269104,0.0,0.0,0.0,0.0,0.0,0.0,0.0,0.0,0.0,0.009637163020670414,-0.01210931595414877,0.08453989773988724,0.0,0.0,0.0,0.0,0.0,0.0,0.0,0.0,0.0
1606991097618381344,4120721,1606987496407753628,imu_link,0.005146788898855448,0.007386145181953907,0.39528152346611023,0.9185159206390381,0.0,0.0,0.0,0.0,0.0,0.0,0.0,0.0,0.0,46.57322692871094,0.5443021655082703,0.8763568997383118,0.0,0.0,0.0,0.0,0.0,0.0,0.0,0.0,0.0,0.006147041916847229,-0.0013494192389771342,0.05801938474178314,0.0,0.0,0.0,0.0,0.0,0.0,0.0,0.0,0.0
1606991097618395086,4120722,1606987496407825554,imu_link,0.005146788898855448,0.007386145181953907,0.39528152346611023,0.9185159206390381,0.0,0.0,0.0,0.0,0.0,0.0,0.0,0.0,0.0,46.57322692871094,0.5443021655082703,0.8763568997383118,0.0,0.0,0.0,0.0,0.0,0.0,0.0,0.0,0.0,0.006147041916847229,-0.0013494192389771342,0.05801938474178314,0.0,0.0,0.0,0.0,0.0,0.0,0.0,0.0,0.0
1606991097618400547,4120723,1606987496419796356,imu_link,0.005144686438143253,0.007386770565062761,0.39528191089630127,0.9185157418251038,0.0,0.0,0.0,0.0,0.0,0.0,0.0,0.0,0.0,46.57327651977539,0.5444629192352295,0.8761642575263977,0.0,0.0,0.0,0.0,0.0,0.0,0.0,0.0,0.0,0.00795739609748125,0.021338345482945442,0.04687702655792236,0.0,0.0,0.0,0.0,0.0,0.0,0.0,0.0,0.0
1606991097622270413,4120724,1606987496419922608,imu_link,0.005144686438143253,0.007386770565062761,0.39528191089630127,0.9185157418251038,0.0,0.0,0.0,0.0,0.0,0.0,0.0,0.0,0.0,46.57327651977539,0.5444629192352295,0.8761642575263977,0.0,0.0,0.0,0.0,0.0,0.0,0.0,0.0,0.0,0.00795739609748125,0.021338345482945442,0.04687702655792236,0.0,0.0,0.0,0.0,0.0,0.0,0.0,0.0,0.0
1606991097622290038,4120725,1606987496420060474,imu_link,0.005142546258866787,0.0073859780095517635,0.3952825963497162,0.9185155034065247,0.0,0.0,0.0,0.0,0.0,0.0,0.0,0.0,0.0,46.57335662841797,0.544475793838501,0.8759034276008606,0.0,0.0,0.0,0.0,0.0,0.0,0.0,0.0,0.0,0.018886994570493698,0.011504418216645718,0.05306035280227661,0.0,0.0,0.0,0.0,0.0,0.0,0.0,0.0,0.0
1606991097622312229,4120726,1606987496420145475,imu_link,0.005142546258866787,0.0073859780095517635,0.3952825963497162,0.9185155034065247,0.0,0.0,0.0,0.0,0.0,0.0,0.0,0.0,0.0,46.57335662841797,0.544475793838501,0.8759034276008606,0.0,0.0,0.0,0.0,0.0,0.0,0.0,0.0,0.0,0.018886994570493698,0.011504418216645718,0.05306035280227661,0.0,0.0,0.0,0.0,0.0,0.0,0.0,0.0,0.0
1606991097622326588,4120727,1606987496420225287,imu_link,0.0051431236788630486,0.0073859067633748055,0.3952826261520386,0.9185155034065247,0.0,0.0,0.0,0.0,0.0,0.0,0.0,0.0,0.0,46.57335662841797,0.5444421172142029,0.8759609460830688,0.0,0.0,0.0,0.0,0.0,0.0,0.0,0.0,0.0,0.015377890318632126,-0.01585318334400654,0.07572289556264877,0.0,0.0,0.0,0.0,0.0,0.0,0.0,0.0,0.0
1606991097622340076,4120728,1606987496420321767,imu_link,0.0051431236788630486,0.0073859067633748055,0.3952826261520386,0.9185155034065247,0.0,0.0,0.0,0.0,0.0,0.0,0.0,0.0,0.0,46.57335662841797,0.5444421172142029,0.8759609460830688,0.0,0.0,0.0,0.0,0.0,0.0,0.0,0.0,0.0,0.015377890318632126,-0.01585318334400654,0.07572289556264877,0.0,0.0,0.0,0.0,0.0,0.0,0.0,0.0,0.0
1606991097631745849,4120729,1606987496420391814,imu_link,0.005145430564880371,0.007389133330434561,0.39528438448905945,0.9185146689414978,0.0,0.0,0.0,0.0,0.0,0.0,0.0,0.0,0.0,46.57358932495117,0.5446754693984985,0.876350998878479,0.0,0.0,0.0,0.0,0.0,0.0,0.0,0.0,0.0,0.009859303943812847,-0.028290964663028717,0.046075642108917236,0.0,0.0,0.0,0.0,0.0,0.0,0.0,0.0,0.0
1606991097631761058,4120730,1606987496420468030,imu_link,0.005145430564880371,0.007389133330434561,0.39528438448905945,0.9185146689414978,0.0,0.0,0.0,0.0,0.0,0.0,0.0,0.0,0.0,46.57358932495117,0.5446754693984985,0.876350998878479,0.0,0.0,0.0,0.0,0.0,0.0,0.0,0.0,0.0,0.009859303943812847,-0.028290964663028717,0.046075642108917236,0.0,0.0,0.0,0.0,0.0,0.0,0.0,0.0,0.0
1606991097631768527,4120731,1606987496420540541,imu_link,0.005145554896444082,0.007389952894300222,0.3952851891517639,0.9185143113136292,0.0,0.0,0.0,0.0,0.0,0.0,0.0,0.0,0.0,46.573692321777344,0.5447553396224976,0.8764017820358276,0.0,0.0,0.0,0.0,0.0,0.0,0.0,0.0,0.0,0.013246504589915276,-0.02219044230878353,0.024378864094614983,0.0,0.0,0.0,0.0,0.0,0.0,0.0,0.0,0.0
1606991097631776243,4120732,1606987496420608373,imu_link,0.005145554896444082,0.007389952894300222,0.3952851891517639,0.9185143113136292,0.0,0.0,0.0,0.0,0.0,0.0,0.0,0.0,0.0,46.573692321777344,0.5447553396224976,0.8764017820358276,0.0,0.0,0.0,0.0,0.0,0.0,0.0,0.0,0.0,0.013246504589915276,-0.02219044230878353,0.024378864094614983,0.0,0.0,0.0,0.0,0.0,0.0,0.0,0.0,0.0
1606991097635745554,4120733,1606987496433065303,imu_link,0.005146583542227745,0.007391559425741434,0.39529064297676086,0.9185119867324829,0.0,0.0,0.0,0.0,0.0,0.0,0.0,0.0,0.0,46.57436752319336,0.5448726415634155,0.8765860199928284,0.0,0.0,0.0,0.0,0.0,0.0,0.0,0.0,0.0,0.017922844737768173,-0.019274147227406502,0.04316067323088646,0.0,0.0,0.0,0.0,0.0,0.0,0.0,0.0,0.0
1606991097635764878,4120734,1606987496433200907,imu_link,0.005146583542227745,0.007391559425741434,0.39529064297676086,0.9185119867324829,0.0,0.0,0.0,0.0,0.0,0.0,0.0,0.0,0.0,46.57436752319336,0.5448726415634155,0.8765860199928284,0.0,0.0,0.0,0.0,0.0,0.0,0.0,0.0,0.0,0.017922844737768173,-0.019274147227406502,0.04316067323088646,0.0,0.0,0.0,0.0,0.0,0.0,0.0,0.0,0.0
1606991097635771352,4120735,1606987496433381315,imu_link,0.005146217532455921,0.007393284700810909,0.3952915668487549,0.9185115694999695,0.0,0.0,0.0,0.0,0.0,0.0,0.0,0.0,0.0,46.57448196411133,0.5450699925422668,0.876626193523407,0.0,0.0,0.0,0.0,0.0,0.0,0.0,0.0,0.0,0.006917968392372131,-0.012396000325679779,0.06183852255344391,0.0,0.0,0.0,0.0,0.0,0.0,0.0,0.0,0.0
1606991097635830678,4120736,1606987496433465815,imu_link,0.005146217532455921,0.007393284700810909,0.3952915668487549,0.9185115694999695,0.0,0.0,0.0,0.0,0.0,0.0,0.0,0.0,0.0,46.57448196411133,0.5450699925422668,0.876626193523407,0.0,0.0,0.0,0.0,0.0,0.0,0.0,0.0,0.0,0.006917968392372131,-0.012396000325679779,0.06183852255344391,0.0,0.0,0.0,0.0,0.0,0.0,0.0,0.0,0.0
1606991097681668036,4120737,1606987496433557026,imu_link,0.0051489658653736115,0.007392674218863249,0.3952943980693817,0.9185103178024292,0.0,0.0,0.0,0.0,0.0,0.0,0.0,0.0,0.0,46.5748405456543,0.5448785424232483,0.8768896460533142,0.0,0.0,0.0,0.0,0.0,0.0,0.0,0.0,0.0,0.0005755286547355354,-0.012041701935231686,0.06708468496799469,0.0,0.0,0.0,0.0,0.0,0.0,0.0,0.0,0.0
1606991097681690772,4120738,1606987496433637172,imu_link,0.0051489658653736115,0.007392674218863249,0.3952943980693817,0.9185103178024292,0.0,0.0,0.0,0.0,0.0,0.0,0.0,0.0,0.0,46.5748405456543,0.5448785424232483,0.8768896460533142,0.0,0.0,0.0,0.0,0.0,0.0,0.0,0.0,0.0,0.0005755286547355354,-0.012041701935231686,0.06708468496799469,0.0,0.0,0.0,0.0,0.0,0.0,0.0,0.0,0.0
1606991097681704659,4120739,1606987496433734011,imu_link,0.005149694159626961,0.0073904660530388355,0.3952954411506653,0.9185099005699158,0.0,0.0,0.0,0.0,0.0,0.0,0.0,0.0,0.0,46.57496643066406,0.5446120500564575,0.8768667578697205,0.0,0.0,0.0,0.0,0.0,0.0,0.0,0.0,0.0,0.015299119986593723,-0.01787990890443325,0.051397453993558884,0.0,0.0,0.0,0.0,0.0,0.0,0.0,0.0,0.0
1606991097681716849,4120740,1606987496433816497,imu_link,0.005149694159626961,0.0073904660530388355,0.3952954411506653,0.9185099005699158,0.0,0.0,0.0,0.0,0.0,0.0,0.0,0.0,0.0,46.57496643066406,0.5446120500564575,0.8768667578697205,0.0,0.0,0.0,0.0,0.0,0.0,0.0,0.0,0.0,0.015299119986593723,-0.01787990890443325,0.051397453993558884,0.0,0.0,0.0,0.0,0.0,0.0,0.0,0.0,0.0
1606991097681732591,4120741,1606987496433897419,imu_link,0.005151459481567144,0.007393184583634138,0.3952975571155548,0.9185089468955994,0.0,0.0,0.0,0.0,0.0,0.0,0.0,0.0,0.0,46.575233459472656,0.5448161959648132,0.8771770596504211,0.0,0.0,0.0,0.0,0.0,0.0,0.0,0.0,0.0,0.010327951051294804,-0.009807880036532879,0.07336130738258362,0.0,0.0,0.0,0.0,0.0,0.0,0.0,0.0,0.0
1606991097684976333,4120742,1606987496433980115,imu_link,0.005151459481567144,0.007393184583634138,0.3952975571155548,0.9185089468955994,0.0,0.0,0.0,0.0,0.0,0.0,0.0,0.0,0.0,46.575233459472656,0.5448161959648132,0.8771770596504211,0.0,0.0,0.0,0.0,0.0,0.0,0.0,0.0,0.0,0.010327951051294804,-0.009807880036532879,0.07336130738258362,0.0,0.0,0.0,0.0,0.0,0.0,0.0,0.0,0.0
1606991097684995085,4120743,1606987496434061198,imu_link,0.0051517002284526825,0.007392794359475374,0.39529627561569214,0.9185094833374023,0.0,0.0,0.0,0.0,0.0,0.0,0.0,0.0,0.0,46.5750732421875,0.5447654128074646,0.8771839737892151,0.0,0.0,0.0,0.0,0.0,0.0,0.0,0.0,0.0,-0.005375317297875881,0.004591038450598717,0.08090639114379883,0.0,0.0,0.0,0.0,0.0,0.0,0.0,0.0,0.0
1606991097685000319,4120744,1606987496446997807,imu_link,0.0051517002284526825,0.007392794359475374,0.39529627561569214,0.9185094833374023,0.0,0.0,0.0,0.0,0.0,0.0,0.0,0.0,0.0,46.5750732421875,0.5447654128074646,0.8771839737892151,0.0,0.0,0.0,0.0,0.0,0.0,0.0,0.0,0.0,-0.005375317297875881,0.004591038450598717,0.08090639114379883,0.0,0.0,0.0,0.0,0.0,0.0,0.0,0.0,0.0
1606991097685061579,4120745,1606987496447177077,imu_link,0.00515142222866416,0.007392143364995718,0.39529839158058167,0.9185085892677307,0.0,0.0,0.0,0.0,0.0,0.0,0.0,0.0,0.0,46.57533645629883,0.5447074770927429,0.8771265149116516,0.0,0.0,0.0,0.0,0.0,0.0,0.0,0.0,0.0,-0.014958906918764114,0.01533829141408205,0.04665529727935791,0.0,0.0,0.0,0.0,0.0,0.0,0.0,0.0,0.0
1606991097726954237,4120746,1606987496447311167,imu_link,0.00515142222866416,0.007392143364995718,0.39529839158058167,0.9185085892677307,0.0,0.0,0.0,0.0,0.0,0.0,0.0,0.0,0.0,46.57533645629883,0.5447074770927429,0.8771265149116516,0.0,0.0,0.0,0.0,0.0,0.0,0.0,0.0,0.0,-0.014958906918764114,0.01533829141408205,0.04665529727935791,0.0,0.0,0.0,0.0,0.0,0.0,0.0,0.0,0.0
1606991097726989416,4120747,1606987496447399983,imu_link,0.005151506047695875,0.007392880041152239,0.39529767632484436,0.9185088872909546,0.0,0.0,0.0,0.0,0.0,0.0,0.0,0.0,0.0,46.575252532958984,0.5447819232940674,0.8771682381629944,0.0,0.0,0.0,0.0,0.0,0.0,0.0,0.0,0.0,0.0054434239864349365,0.02011422999203205,0.042074743658304214,0.0,0.0,0.0,0.0,0.0,0.0,0.0,0.0,0.0
1606991097727005505,4120748,1606987496447477958,imu_link,0.005151506047695875,0.007392880041152239,0.39529767632484436,0.9185088872909546,0.0,0.0,0.0,0.0,0.0,0.0,0.0,0.0,0.0,46.575252532958984,0.5447819232940674,0.8771682381629944,0.0,0.0,0.0,0.0,0.0,0.0,0.0,0.0,0.0,0.0054434239864349365,0.02011422999203205,0.042074743658304214,0.0,0.0,0.0,0.0,0.0,0.0,0.0,0.0,0.0
1606991097727022206,4120749,1606987496447558219,imu_link,0.005148869473487139,0.007392252795398235,0.3952988386154175,0.9185084104537964,0.0,0.0,0.0,0.0,0.0,0.0,0.0,0.0,0.0,46.57539367675781,0.5448342561721802,0.8768629431724548,0.0,0.0,0.0,0.0,0.0,0.0,0.0,0.0,0.0,0.018305154517292976,0.017804406583309174,0.04158010706305504,0.0,0.0,0.0,0.0,0.0,0.0,0.0,0.0,0.0
1606991097727054551,4120750,1606987496447672148,imu_link,0.005148869473487139,0.007392252795398235,0.3952988386154175,0.9185084104537964,0.0,0.0,0.0,0.0,0.0,0.0,0.0,0.0,0.0,46.57539367675781,0.5448342561721802,0.8768629431724548,0.0,0.0,0.0,0.0,0.0,0.0,0.0,0.0,0.0,0.018305154517292976,0.017804406583309174,0.04158010706305504,0.0,0.0,0.0,0.0,0.0,0.0,0.0,0.0,0.0
1606991097731711763,4120751,1606987496447757510,imu_link,0.005148869473487139,0.007392252795398235,0.3952988386154175,0.9185084104537964,0.0,0.0,0.0,0.0,0.0,0.0,0.0,0.0,0.0,46.57539367675781,0.5448342561721802,0.8768629431724548,0.0,0.0,0.0,0.0,0.0,0.0,0.0,0.0,0.0,0.017153892666101456,0.01227110717445612,0.0504748597741127,0.0,0.0,0.0,0.0,0.0,0.0,0.0,0.0,0.0
1606991097731764094,4120752,1606987496447873624,imu_link,0.005148869473487139,0.007392252795398235,0.3952988386154175,0.9185084104537964,0.0,0.0,0.0,0.0,0.0,0.0,0.0,0.0,0.0,46.57539367675781,0.5448342561721802,0.8768629431724548,0.0,0.0,0.0,0.0,0.0,0.0,0.0,0.0,0.0,0.017153892666101456,0.01227110717445612,0.0504748597741127,0.0,0.0,0.0,0.0,0.0,0.0,0.0,0.0,0.0
1606991097731786906,4120753,1606987496447956030,imu_link,0.005147651303559542,0.007392596453428268,0.39529910683631897,0.9185083508491516,0.0,0.0,0.0,0.0,0.0,0.0,0.0,0.0,0.0,46.5754280090332,0.5449253916740417,0.8767503499984741,0.0,0.0,0.0,0.0,0.0,0.0,0.0,0.0,0.0,0.006039390340447426,0.004225543700158596,0.07759633660316467,0.0,0.0,0.0,0.0,0.0,0.0,0.0,0.0,0.0
1606991097731798550,4120754,1606987496448056673,imu_link,0.005147651303559542,0.007392596453428268,0.39529910683631897,0.9185083508491516,0.0,0.0,0.0,0.0,0.0,0.0,0.0,0.0,0.0,46.5754280090332,0.5449253916740417,0.8767503499984741,0.0,0.0,0.0,0.0,0.0,0.0,0.0,0.0,0.0,0.006039390340447426,0.004225543700158596,0.07759633660316467,0.0,0.0,0.0,0.0,0.0,0.0,0.0,0.0,0.0
1606991097807210735,4120755,1606987496460269652,imu_link,0.00514591159299016,0.007393883541226387,0.3952992856502533,0.9185082912445068,0.0,0.0,0.0,0.0,0.0,0.0,0.0,0.0,0.0,46.57544708251953,0.545139491558075,0.8766257166862488,0.0,0.0,0.0,0.0,0.0,0.0,0.0,0.0,0.0,-0.003428919008001685,0.0030690887942910194,0.07781201601028442,0.0,0.0,0.0,0.0,0.0,0.0,0.0,0.0,0.0
1606991097807239430,4120756,1606987496460399533,imu_link,0.00514591159299016,0.007393883541226387,0.3952992856502533,0.9185082912445068,0.0,0.0,0.0,0.0,0.0,0.0,0.0,0.0,0.0,46.57544708251953,0.545139491558075,0.8766257166862488,0.0,0.0,0.0,0.0,0.0,0.0,0.0,0.0,0.0,-0.003428919008001685,0.0030690887942910194,0.07781201601028442,0.0,0.0,0.0,0.0,0.0,0.0,0.0,0.0,0.0
1606991097807254677,4120757,1606987496460577084,imu_link,0.0051457807421684265,0.0073923938907682896,0.39529949426651,0.9185081720352173,0.0,0.0,0.0,0.0,0.0,0.0,0.0,0.0,0.0,46.57547378540039,0.5449884533882141,0.8765445947647095,0.0,0.0,0.0,0.0,0.0,0.0,0.0,0.0,0.0,0.0013234877260401845,0.01235315389931202,0.0520733967423439,0.0,0.0,0.0,0.0,0.0,0.0,0.0,0.0,0.0
1606991097807264048,4120758,1606987496460666786,imu_link,0.0051457807421684265,0.0073923938907682896,0.39529949426651,0.9185081720352173,0.0,0.0,0.0,0.0,0.0,0.0,0.0,0.0,0.0,46.57547378540039,0.5449884533882141,0.8765445947647095,0.0,0.0,0.0,0.0,0.0,0.0,0.0,0.0,0.0,0.0013234877260401845,0.01235315389931202,0.0520733967423439,0.0,0.0,0.0,0.0,0.0,0.0,0.0,0.0,0.0
1606991097807274143,4120759,1606987496460809296,imu_link,0.005148265510797501,0.0073926979675889015,0.3952992856502533,0.9185082316398621,0.0,0.0,0.0,0.0,0.0,0.0,0.0,0.0,0.0,46.57544708251953,0.5449080467224121,0.8768197894096375,0.0,0.0,0.0,0.0,0.0,0.0,0.0,0.0,0.0,-0.008909063413739204,0.008416572585701942,0.0343913696706295,0.0,0.0,0.0,0.0,0.0,0.0,0.0,0.0,0.0
1606991097813185088,4120760,1606987496460898127,imu_link,0.005148265510797501,0.0073926979675889015,0.3952992856502533,0.9185082316398621,0.0,0.0,0.0,0.0,0.0,0.0,0.0,0.0,0.0,46.57544708251953,0.5449080467224121,0.8768197894096375,0.0,0.0,0.0,0.0,0.0,0.0,0.0,0.0,0.0,-0.008909063413739204,0.008416572585701942,0.0343913696706295,0.0,0.0,0.0,0.0,0.0,0.0,0.0,0.0,0.0
1606991097813206884,4120761,1606987496461001140,imu_link,0.005148599855601788,0.00739138713106513,0.39529988169670105,0.918507993221283,0.0,0.0,0.0,0.0,0.0,0.0,0.0,0.0,0.0,46.575523376464844,0.5447543859481812,0.8767959475517273,0.0,0.0,0.0,0.0,0.0,0.0,0.0,0.0,0.0,-0.011482427828013897,-0.003070410108193755,0.05458458140492439,0.0,0.0,0.0,0.0,0.0,0.0,0.0,0.0,0.0
1606991097813214007,4120762,1606987496461083822,imu_link,0.005148599855601788,0.00739138713106513,0.39529988169670105,0.918507993221283,0.0,0.0,0.0,0.0,0.0,0.0,0.0,0.0,0.0,46.575523376464844,0.5447543859481812,0.8767959475517273,0.0,0.0,0.0,0.0,0.0,0.0,0.0,0.0,0.0,-0.011482427828013897,-0.003070410108193755,0.05458458140492439,0.0,0.0,0.0,0.0,0.0,0.0,0.0,0.0,0.0
1606991097813228273,4120763,1606987496461164468,imu_link,0.005147312767803669,0.007389513310045004,0.3952994644641876,0.9185081720352173,0.0,0.0,0.0,0.0,0.0,0.0,0.0,0.0,0.0,46.57546615600586,0.5446158647537231,0.8765753507614136,0.0,0.0,0.0,0.0,0.0,0.0,0.0,0.0,0.0,-0.00022149342112243176,0.0018137418664991856,0.05343417078256607,0.0,0.0,0.0,0.0,0.0,0.0,0.0,0.0,0.0
1606991097817641309,4120764,1606987496461245957,imu_link,0.005147312767803669,0.007389513310045004,0.3952994644641876,0.9185081720352173,0.0,0.0,0.0,0.0,0.0,0.0,0.0,0.0,0.0,46.57546615600586,0.5446158647537231,0.8765753507614136,0.0,0.0,0.0,0.0,0.0,0.0,0.0,0.0,0.0,-0.00022149342112243176,0.0018137418664991856,0.05343417078256607,0.0,0.0,0.0,0.0,0.0,0.0,0.0,0.0,0.0
1606991097817667311,4120765,1606987496461329024,imu_link,0.005148361902683973,0.007389422040432692,0.3952990770339966,0.9185083508491516,0.0,0.0,0.0,0.0,0.0,0.0,0.0,0.0,0.0,46.575416564941406,0.544559121131897,0.876681387424469,0.0,0.0,0.0,0.0,0.0,0.0,0.0,0.0,0.0,0.009909238666296005,-0.0003396718529984355,0.024199793115258217,0.0,0.0,0.0,0.0,0.0,0.0,0.0,0.0,0.0
1606991097817682322,4120766,1606987496474185177,imu_link,0.005148361902683973,0.007389422040432692,0.3952990770339966,0.9185083508491516,0.0,0.0,0.0,0.0,0.0,0.0,0.0,0.0,0.0,46.575416564941406,0.544559121131897,0.876681387424469,0.0,0.0,0.0,0.0,0.0,0.0,0.0,0.0,0.0,0.009909238666296005,-0.0003396718529984355,0.024199793115258217,0.0,0.0,0.0,0.0,0.0,0.0,0.0,0.0,0.0
1606991097817721623,4120767,1606987496474325953,imu_link,0.005148349329829216,0.007389891892671585,0.39529985189437866,0.918507993221283,0.0,0.0,0.0,0.0,0.0,0.0,0.0,0.0,0.0,46.575523376464844,0.5446084141731262,0.876701831817627,0.0,0.0,0.0,0.0,0.0,0.0,0.0,0.0,0.0,0.0036792168393731117,0.0022508196998387575,0.04131755232810974,0.0,0.0,0.0,0.0,0.0,0.0,0.0,0.0,0.0
1606991097817741933,4120768,1606987496474473424,imu_link,0.005148349329829216,0.007389891892671585,0.39529985189437866,0.918507993221283,0.0,0.0,0.0,0.0,0.0,0.0,0.0,0.0,0.0,46.575523376464844,0.5446084141731262,0.876701831817627,0.0,0.0,0.0,0.0,0.0,0.0,0.0,0.0,0.0,0.0036792168393731117,0.0022508196998387575,0.04131755232810974,0.0,0.0,0.0,0.0,0.0,0.0,0.0,0.0,0.0
1606991097820861471,4120769,1606987496474568349,imu_link,0.005147654563188553,0.007388528436422348,0.39529791474342346,0.9185088872909546,0.0,0.0,0.0,0.0,0.0,0.0,0.0,0.0,0.0,46.57526779174805,0.5444981455802917,0.87656569480896,0.0,0.0,0.0,0.0,0.0,0.0,0.0,0.0,0.0,0.010454250499606133,0.01570810377597809,0.06554637104272842,0.0,0.0,0.0,0.0,0.0,0.0,0.0,0.0,0.0
1606991097820882857,4120770,1606987496474643087,imu_link,0.005147654563188553,0.007388528436422348,0.39529791474342346,0.9185088872909546,0.0,0.0,0.0,0.0,0.0,0.0,0.0,0.0,0.0,46.57526779174805,0.5444981455802917,0.87656569480896,0.0,0.0,0.0,0.0,0.0,0.0,0.0,0.0,0.0,0.010454250499606133,0.01570810377597809,0.06554637104272842,0.0,0.0,0.0,0.0,0.0,0.0,0.0,0.0,0.0
1606991097820893090,4120771,1606987496474743770,imu_link,0.005148461554199457,0.0073882644064724445,0.39529749751091003,0.9185090065002441,0.0,0.0,0.0,0.0,0.0,0.0,0.0,0.0,0.0,46.57522201538086,0.5444341897964478,0.8766385316848755,0.0,0.0,0.0,0.0,0.0,0.0,0.0,0.0,0.0,0.0023120844271034002,0.008291849866509438,0.06694069504737854,0.0,0.0,0.0,0.0,0.0,0.0,0.0,0.0,0.0
1606991097820912539,4120772,1606987496474829799,imu_link,0.005148461554199457,0.0073882644064724445,0.39529749751091003,0.9185090065002441,0.0,0.0,0.0,0.0,0.0,0.0,0.0,0.0,0.0,46.57522201538086,0.5444341897964478,0.8766385316848755,0.0,0.0,0.0,0.0,0.0,0.0,0.0,0.0,0.0,0.0023120844271034002,0.008291849866509438,0.06694069504737854,0.0,0.0,0.0,0.0,0.0,0.0,0.0,0.0,0.0
1606991097920147020,4120773,1606987496474915141,imu_link,0.005145767237991095,0.0073883929289877415,0.39529934525489807,0.9185082316398621,0.0,0.0,0.0,0.0,0.0,0.0,0.0,0.0,0.0,46.57545471191406,0.5445680618286133,0.8763617873191833,0.0,0.0,0.0,0.0,0.0,0.0,0.0,0.0,0.0,-0.0013746721670031548,-0.00774289108812809,0.06824500858783722,0.0,0.0,0.0,0.0,0.0,0.0,0.0,0.0,0.0
1606991097920180362,4120774,1606987496475031405,imu_link,0.005145767237991095,0.0073883929289877415,0.39529934525489807,0.9185082316398621,0.0,0.0,0.0,0.0,0.0,0.0,0.0,0.0,0.0,46.57545471191406,0.5445680618286133,0.8763617873191833,0.0,0.0,0.0,0.0,0.0,0.0,0.0,0.0,0.0,-0.0013746721670031548,-0.00774289108812809,0.06824500858783722,0.0,0.0,0.0,0.0,0.0,0.0,0.0,0.0,0.0
1606991097920215461,4120775,1606987496475113540,imu_link,0.0051456717774271965,0.00738897267729044,0.3953002989292145,0.9185078144073486,0.0,0.0,0.0,0.0,0.0,0.0,0.0,0.0,0.0,46.5755729675293,0.5446325540542603,0.87637859582901,0.0,0.0,0.0,0.0,0.0,0.0,0.0,0.0,0.0,0.004936729557812214,-0.007891355082392693,0.06896351277828217,0.0,0.0,0.0,0.0,0.0,0.0,0.0,0.0,0.0
1606991097920225010,4120776,1606987496475194733,imu_link,0.0051456717774271965,0.00738897267729044,0.3953002989292145,0.9185078144073486,0.0,0.0,0.0,0.0,0.0,0.0,0.0,0.0,0.0,46.5755729675293,0.5446325540542603,0.87637859582901,0.0,0.0,0.0,0.0,0.0,0.0,0.0,0.0,0.0,0.004936729557812214,-0.007891355082392693,0.06896351277828217,0.0,0.0,0.0,0.0,0.0,0.0,0.0,0.0,0.0
1606991097920236251,4120777,1606987496487227987,imu_link,0.005148597527295351,0.007389900274574757,0.3953000009059906,0.9185079336166382,0.0,0.0,0.0,0.0,0.0,0.0,0.0,0.0,0.0,46.57553482055664,0.544597864151001,0.8767284154891968,0.0,0.0,0.0,0.0,0.0,0.0,0.0,0.0,0.0,0.0056783705949783325,-0.001405186951160431,0.05936168506741524,0.0,0.0,0.0,0.0,0.0,0.0,0.0,0.0,0.0
1606991097923792516,4120778,1606987496487379092,imu_link,0.005148597527295351,0.007389900274574757,0.3953000009059906,0.9185079336166382,0.0,0.0,0.0,0.0,0.0,0.0,0.0,0.0,0.0,46.57553482055664,0.544597864151001,0.8767284154891968,0.0,0.0,0.0,0.0,0.0,0.0,0.0,0.0,0.0,0.0056783705949783325,-0.001405186951160431,0.05936168506741524,0.0,0.0,0.0,0.0,0.0,0.0,0.0,0.0,0.0
1606991097923862358,4120779,1606987496487543272,imu_link,0.005148627329617739,0.007389737758785486,0.3953024744987488,0.9185068607330322,0.0,0.0,0.0,0.0,0.0,0.0,0.0,0.0,0.0,46.575843811035156,0.5445770621299744,0.8767256736755371,0.0,0.0,0.0,0.0,0.0,0.0,0.0,0.0,0.0,0.007136878091841936,0.008488829247653484,0.03770957142114639,0.0,0.0,0.0,0.0,0.0,0.0,0.0,0.0,0.0
1606991097923903555,4120780,1606987496487644777,imu_link,0.005148627329617739,0.007389737758785486,0.3953024744987488,0.9185068607330322,0.0,0.0,0.0,0.0,0.0,0.0,0.0,0.0,0.0,46.575843811035156,0.5445770621299744,0.8767256736755371,0.0,0.0,0.0,0.0,0.0,0.0,0.0,0.0,0.0,0.007136878091841936,0.008488829247653484,0.03770957142114639,0.0,0.0,0.0,0.0,0.0,0.0,0.0,0.0,0.0
1606991097923934985,4120781,1606987496487723659,imu_link,0.005147192161530256,0.007390567101538181,0.39530256390571594,0.9185068607330322,0.0,0.0,0.0,0.0,0.0,0.0,0.0,0.0,0.0,46.57585525512695,0.5447292923927307,0.8766121864318848,0.0,0.0,0.0,0.0,0.0,0.0,0.0,0.0,0.0,0.009322243742644787,-0.0014925200957804918,0.03597640618681908,0.0,0.0,0.0,0.0,0.0,0.0,0.0,0.0,0.0
1606991097927684534,4120782,1606987496487835002,imu_link,0.005147192161530256,0.007390567101538181,0.39530256390571594,0.9185068607330322,0.0,0.0,0.0,0.0,0.0,0.0,0.0,0.0,0.0,46.57585525512695,0.5447292923927307,0.8766121864318848,0.0,0.0,0.0,0.0,0.0,0.0,0.0,0.0,0.0,0.009322243742644787,-0.0014925200957804918,0.03597640618681908,0.0,0.0,0.0,0.0,0.0,0.0,0.0,0.0,0.0
1606991097927737472,4120783,1606987496487969794,imu_link,0.005147731862962246,0.0073910923674702644,0.3953023850917816,0.918506920337677,0.0,0.0,0.0,0.0,0.0,0.0,0.0,0.0,0.0,46.57583236694336,0.5447602868080139,0.8766927123069763,0.0,0.0,0.0,0.0,0.0,0.0,0.0,0.0,0.0,0.021674787625670433,-0.01185792125761509,0.037895943969488144,0.0,0.0,0.0,0.0,0.0,0.0,0.0,0.0,0.0
1606991097927780731,4120784,1606987496488126251,imu_link,0.005147731862962246,0.0073910923674702644,0.3953023850917816,0.918506920337677,0.0,0.0,0.0,0.0,0.0,0.0,0.0,0.0,0.0,46.57583236694336,0.5447602868080139,0.8766927123069763,0.0,0.0,0.0,0.0,0.0,0.0,0.0,0.0,0.0,0.021674787625670433,-0.01185792125761509,0.037895943969488144,0.0,0.0,0.0,0.0,0.0,0.0,0.0,0.0,0.0
1606991097927810290,4120785,1606987496488267743,imu_link,0.005147879011929035,0.007394582498818636,0.3953026831150055,0.9185067415237427,0.0,0.0,0.0,0.0,0.0,0.0,0.0,0.0,0.0,46.57587814331055,0.5451206564903259,0.8768665790557861,0.0,0.0,0.0,0.0,0.0,0.0,0.0,0.0,0.0,0.021782923489809036,-0.007260330952703953,0.05672213435173035,0.0,0.0,0.0,0.0,0.0,0.0,0.0,0.0,0.0
1606991097927850498,4120786,1606987496488420542,imu_link,0.005147879011929035,0.007394582498818636,0.3953026831150055,0.9185067415237427,0.0,0.0,0.0,0.0,0.0,0.0,0.0,0.0,0.0,46.57587814331055,0.5451206564903259,0.8768665790557861,0.0,0.0,0.0,0.0,0.0,0.0,0.0,0.0,0.0,0.021782923489809036,-0.007260330952703953,0.05672213435173035,0.0,0.0,0.0,0.0,0.0,0.0,0.0,0.0,0.0
1606991097931461263,4120787,1606987496500497071,imu_link,0.005147036164999008,0.007395458873361349,0.39530137181282043,0.9185073375701904,0.0,0.0,0.0,0.0,0.0,0.0,0.0,0.0,0.0,46.575714111328125,0.5452523827552795,0.8768167495727539,0.0,0.0,0.0,0.0,0.0,0.0,0.0,0.0,0.0,0.009946320205926895,-0.008883500471711159,0.06125185266137123,0.0,0.0,0.0,0.0,0.0,0.0,0.0,0.0,0.0
1606991097931482134,4120788,1606987496500642532,imu_link,0.005147036164999008,0.007395458873361349,0.39530137181282043,0.9185073375701904,0.0,0.0,0.0,0.0,0.0,0.0,0.0,0.0,0.0,46.575714111328125,0.5452523827552795,0.8768167495727539,0.0,0.0,0.0,0.0,0.0,0.0,0.0,0.0,0.0,0.009946320205926895,-0.008883500471711159,0.06125185266137123,0.0,0.0,0.0,0.0,0.0,0.0,0.0,0.0,0.0
1606991097931492994,4120789,1606987496500793467,imu_link,0.0051481337286531925,0.007397130131721497,0.3952992558479309,0.9185082316398621,0.0,0.0,0.0,0.0,0.0,0.0,0.0,0.0,0.0,46.5754508972168,0.5453805327415466,0.8770067691802979,0.0,0.0,0.0,0.0,0.0,0.0,0.0,0.0,0.0,-0.006252141669392586,0.0019181366078555584,0.05312430113554001,0.0,0.0,0.0,0.0,0.0,0.0,0.0,0.0,0.0
1606991097931503260,4120790,1606987496500886271,imu_link,0.0051481337286531925,0.007397130131721497,0.3952992558479309,0.9185082316398621,0.0,0.0,0.0,0.0,0.0,0.0,0.0,0.0,0.0,46.5754508972168,0.5453805327415466,0.8770067691802979,0.0,0.0,0.0,0.0,0.0,0.0,0.0,0.0,0.0,-0.006252141669392586,0.0019181366078555584,0.05312430113554001,0.0,0.0,0.0,0.0,0.0,0.0,0.0,0.0,0.0
1606991097987724599,4120791,1606987496500965525,imu_link,0.005147730465978384,0.007394155487418175,0.39529576897621155,0.9185097813606262,0.0,0.0,0.0,0.0,0.0,0.0,0.0,0.0,0.0,46.575008392333984,0.545089066028595,0.8768274188041687,0.0,0.0,0.0,0.0,0.0,0.0,0.0,0.0,0.0,-0.0055302768014371395,0.00927029550075531,0.08014082163572311,0.0,0.0,0.0,0.0,0.0,0.0,0.0,0.0,0.0
1606991097987749676,4120792,1606987496501045695,imu_link,0.005147730465978384,0.007394155487418175,0.39529576897621155,0.9185097813606262,0.0,0.0,0.0,0.0,0.0,0.0,0.0,0.0,0.0,46.575008392333984,0.545089066028595,0.8768274188041687,0.0,0.0,0.0,0.0,0.0,0.0,0.0,0.0,0.0,-0.0055302768014371395,0.00927029550075531,0.08014082163572311,0.0,0.0,0.0,0.0,0.0,0.0,0.0,0.0,0.0
1606991097987768150,4120793,1606987496501153475,imu_link,0.005144677124917507,0.007392400410026312,0.395297110080719,0.9185092449188232,0.0,0.0,0.0,0.0,0.0,0.0,0.0,0.0,0.0,46.575172424316406,0.5450413823127747,0.8764272928237915,0.0,0.0,0.0,0.0,0.0,0.0,0.0,0.0,0.0,0.0036407350562512875,0.006568117532879114,0.0735001415014267,0.0,0.0,0.0,0.0,0.0,0.0,0.0,0.0,0.0
1606991097987774373,4120794,1606987496501241072,imu_link,0.005144677124917507,0.007392400410026312,0.395297110080719,0.9185092449188232,0.0,0.0,0.0,0.0,0.0,0.0,0.0,0.0,0.0,46.575172424316406,0.5450413823127747,0.8764272928237915,0.0,0.0,0.0,0.0,0.0,0.0,0.0,0.0,0.0,0.0036407350562512875,0.006568117532879114,0.0735001415014267,0.0,0.0,0.0,0.0,0.0,0.0,0.0,0.0,0.0
1606991097987782914,4120795,1606987496501363847,imu_link,0.00514476140961051,0.007393886800855398,0.3952985405921936,0.9185085892677307,0.0,0.0,0.0,0.0,0.0,0.0,0.0,0.0,0.0,46.57535171508789,0.5451925992965698,0.8765044212341309,0.0,0.0,0.0,0.0,0.0,0.0,0.0,0.0,0.0,0.009305312298238277,0.0017107099993154407,0.06731974333524704,0.0,0.0,0.0,0.0,0.0,0.0,0.0,0.0,0.0
1606991097990984828,4120796,1606987496501448212,imu_link,0.00514476140961051,0.007393886800855398,0.3952985405921936,0.9185085892677307,0.0,0.0,0.0,0.0,0.0,0.0,0.0,0.0,0.0,46.57535171508789,0.5451925992965698,0.8765044212341309,0.0,0.0,0.0,0.0,0.0,0.0,0.0,0.0,0.0,0.009305312298238277,0.0017107099993154407,0.06731974333524704,0.0,0.0,0.0,0.0,0.0,0.0,0.0,0.0,0.0
1606991097990998284,4120797,1606987496501538315,imu_link,0.005141994915902615,0.007394840475171804,0.3953040838241577,0.9185062050819397,0.0,0.0,0.0,0.0,0.0,0.0,0.0,0.0,0.0,46.576045989990234,0.5454130172729492,0.8762596845626831,0.0,0.0,0.0,0.0,0.0,0.0,0.0,0.0,0.0,-0.00563815888017416,-0.002106670755892992,0.0862390398979187,0.0,0.0,0.0,0.0,0.0,0.0,0.0,0.0,0.0
1606991097991009338,4120798,1606987496514321444,imu_link,0.005141994915902615,0.007394840475171804,0.3953040838241577,0.9185062050819397,0.0,0.0,0.0,0.0,0.0,0.0,0.0,0.0,0.0,46.576045989990234,0.5454130172729492,0.8762596845626831,0.0,0.0,0.0,0.0,0.0,0.0,0.0,0.0,0.0,-0.00563815888017416,-0.002106670755892992,0.0862390398979187,0.0,0.0,0.0,0.0,0.0,0.0,0.0,0.0,0.0
1606991097991022216,4120799,1606987496514461869,imu_link,0.005142604000866413,0.007395935710519552,0.39530521631240845,0.9185057282447815,0.0,0.0,0.0,0.0,0.0,0.0,0.0,0.0,0.0,46.57618713378906,0.5454996228218079,0.8763740658760071,0.0,0.0,0.0,0.0,0.0,0.0,0.0,0.0,0.0,-0.014455165714025497,0.0033044209703803062,0.08257938921451569,0.0,0.0,0.0,0.0,0.0,0.0,0.0,0.0,0.0
1606991097999756974,4120800,1606987496514594657,imu_link,0.005142604000866413,0.007395935710519552,0.39530521631240845,0.9185057282447815,0.0,0.0,0.0,0.0,0.0,0.0,0.0,0.0,0.0,46.57618713378906,0.5454996228218079,0.8763740658760071,0.0,0.0,0.0,0.0,0.0,0.0,0.0,0.0,0.0,-0.014455165714025497,0.0033044209703803062,0.08257938921451569,0.0,0.0,0.0,0.0,0.0,0.0,0.0,0.0,0.0
1606991097999779292,4120801,1606987496514691190,imu_link,0.005144864786416292,0.00739490007981658,0.39530736207962036,0.9185047745704651,0.0,0.0,0.0,0.0,0.0,0.0,0.0,0.0,0.0,46.57646179199219,0.5452861785888672,0.8765664100646973,0.0,0.0,0.0,0.0,0.0,0.0,0.0,0.0,0.0,-0.00743449293076992,0.02197849005460739,0.05976146087050438,0.0,0.0,0.0,0.0,0.0,0.0,0.0,0.0,0.0
1606991097999794038,4120802,1606987496514777745,imu_link,0.005144864786416292,0.00739490007981658,0.39530736207962036,0.9185047745704651,0.0,0.0,0.0,0.0,0.0,0.0,0.0,0.0,0.0,46.57646179199219,0.5452861785888672,0.8765664100646973,0.0,0.0,0.0,0.0,0.0,0.0,0.0,0.0,0.0,-0.00743449293076992,0.02197849005460739,0.05976146087050438,0.0,0.0,0.0,0.0,0.0,0.0,0.0,0.0,0.0
1606991097999807665,4120803,1606987496514869653,imu_link,0.005145675968378782,0.007393302861601114,0.3953076899051666,0.918504536151886,0.0,0.0,0.0,0.0,0.0,0.0,0.0,0.0,0.0,46.57650375366211,0.5450809001922607,0.8765796422958374,0.0,0.0,0.0,0.0,0.0,0.0,0.0,0.0,0.0,-0.008757433854043484,0.01968577690422535,0.031291183084249496,0.0,0.0,0.0,0.0,0.0,0.0,0.0,0.0,0.0
1606991098003815280,4120804,1606987496515033532,imu_link,0.005145675968378782,0.007393302861601114,0.3953076899051666,0.918504536151886,0.0,0.0,0.0,0.0,0.0,0.0,0.0,0.0,0.0,46.57650375366211,0.5450809001922607,0.8765796422958374,0.0,0.0,0.0,0.0,0.0,0.0,0.0,0.0,0.0,-0.008757433854043484,0.01968577690422535,0.031291183084249496,0.0,0.0,0.0,0.0,0.0,0.0,0.0,0.0,0.0
1606991098003841589,4120805,1606987496515125951,imu_link,0.0051438710652291775,0.007391051389276981,0.39529940485954285,0.9185082316398621,0.0,0.0,0.0,0.0,0.0,0.0,0.0,0.0,0.0,46.57545852661133,0.5449336767196655,0.8762826919555664,0.0,0.0,0.0,0.0,0.0,0.0,0.0,0.0,0.0,-0.005222994368523359,0.018146445974707603,0.020773369818925858,0.0,0.0,0.0,0.0,0.0,0.0,0.0,0.0,0.0
1606991098003851688,4120806,1606987496515253311,imu_link,0.0051438710652291775,0.007391051389276981,0.39529940485954285,0.9185082316398621,0.0,0.0,0.0,0.0,0.0,0.0,0.0,0.0,0.0,46.57545852661133,0.5449336767196655,0.8762826919555664,0.0,0.0,0.0,0.0,0.0,0.0,0.0,0.0,0.0,-0.005222994368523359,0.018146445974707603,0.020773369818925858,0.0,0.0,0.0,0.0,0.0,0.0,0.0,0.0,0.0
1606991098003868867,4120807,1606987496515339992,imu_link,0.00514296256005764,0.007390632294118404,0.3952999413013458,0.9185080528259277,0.0,0.0,0.0,0.0,0.0,0.0,0.0,0.0,0.0,46.575523376464844,0.5449302792549133,0.8761683702468872,0.0,0.0,0.0,0.0,0.0,0.0,0.0,0.0,0.0,0.011885009706020355,0.01450628787279129,0.04223835840821266,0.0,0.0,0.0,0.0,0.0,0.0,0.0,0.0,0.0
1606991098003884904,4120808,1606987496515424933,imu_link,0.00514296256005764,0.007390632294118404,0.3952999413013458,0.9185080528259277,0.0,0.0,0.0,0.0,0.0,0.0,0.0,0.0,0.0,46.575523376464844,0.5449302792549133,0.8761683702468872,0.0,0.0,0.0,0.0,0.0,0.0,0.0,0.0,0.0,0.011885009706020355,0.01450628787279129,0.04223835840821266,0.0,0.0,0.0,0.0,0.0,0.0,0.0,0.0,0.0
1606991098106211097,4120809,1606987496527864763,imu_link,0.005140761844813824,0.007390958722680807,0.39529290795326233,0.9185110926628113,0.0,0.0,0.0,0.0,0.0,0.0,0.0,0.0,0.0,46.57464599609375,0.5450710654258728,0.8759473562240601,0.0,0.0,0.0,0.0,0.0,0.0,0.0,0.0,0.0,0.0013089042622596025,0.011713790707290173,0.04508110135793686,0.0,0.0,0.0,0.0,0.0,0.0,0.0,0.0,0.0
1606991098106232919,4120810,1606987496528005047,imu_link,0.005140761844813824,0.007390958722680807,0.39529290795326233,0.9185110926628113,0.0,0.0,0.0,0.0,0.0,0.0,0.0,0.0,0.0,46.57464599609375,0.5450710654258728,0.8759473562240601,0.0,0.0,0.0,0.0,0.0,0.0,0.0,0.0,0.0,0.0013089042622596025,0.011713790707290173,0.04508110135793686,0.0,0.0,0.0,0.0,0.0,0.0,0.0,0.0,0.0
1606991098106248626,4120811,1606987496528190787,imu_link,0.005140400025993586,0.007391349412500858,0.3952907621860504,0.9185119867324829,0.0,0.0,0.0,0.0,0.0,0.0,0.0,0.0,0.0,46.574378967285156,0.5451306104660034,0.8759257197380066,0.0,0.0,0.0,0.0,0.0,0.0,0.0,0.0,0.0,-0.009397391229867935,0.01827382668852806,0.035646818578243256,0.0,0.0,0.0,0.0,0.0,0.0,0.0,0.0,0.0
1606991098106259032,4120812,1606987496528277513,imu_link,0.005140400025993586,0.007391349412500858,0.3952907621860504,0.9185119867324829,0.0,0.0,0.0,0.0,0.0,0.0,0.0,0.0,0.0,46.574378967285156,0.5451306104660034,0.8759257197380066,0.0,0.0,0.0,0.0,0.0,0.0,0.0,0.0,0.0,-0.009397391229867935,0.01827382668852806,0.035646818578243256,0.0,0.0,0.0,0.0,0.0,0.0,0.0,0.0,0.0
1606991098110606587,4120813,1606987496528363577,imu_link,0.005141406320035458,0.007387977093458176,0.39529526233673096,0.9185100793838501,0.0,0.0,0.0,0.0,0.0,0.0,0.0,0.0,0.0,46.57493591308594,0.5447258353233337,0.8758814334869385,0.0,0.0,0.0,0.0,0.0,0.0,0.0,0.0,0.0,-0.013480670750141144,0.010367031209170818,0.04911403730511665,0.0,0.0,0.0,0.0,0.0,0.0,0.0,0.0,0.0
1606991098110632625,4120814,1606987496528469462,imu_link,0.005141406320035458,0.007387977093458176,0.39529526233673096,0.9185100793838501,0.0,0.0,0.0,0.0,0.0,0.0,0.0,0.0,0.0,46.57493591308594,0.5447258353233337,0.8758814334869385,0.0,0.0,0.0,0.0,0.0,0.0,0.0,0.0,0.0,-0.013480670750141144,0.010367031209170818,0.04911403730511665,0.0,0.0,0.0,0.0,0.0,0.0,0.0,0.0,0.0
1606991098110642164,4120815,1606987496528553437,imu_link,0.005142339039593935,0.007386499084532261,0.3952944874763489,0.9185104370117188,0.0,0.0,0.0,0.0,0.0,0.0,0.0,0.0,0.0,46.5748405456543,0.5445287227630615,0.8759121894836426,0.0,0.0,0.0,0.0,0.0,0.0,0.0,0.0,0.0,-0.019872773438692093,-0.004045285750180483,0.055294234305620193,0.0,0.0,0.0,0.0,0.0,0.0,0.0,0.0,0.0
1606991098110646940,4120816,1606987496528626481,imu_link,0.005142339039593935,0.007386499084532261,0.3952944874763489,0.9185104370117188,0.0,0.0,0.0,0.0,0.0,0.0,0.0,0.0,0.0,46.5748405456543,0.5445287227630615,0.8759121894836426,0.0,0.0,0.0,0.0,0.0,0.0,0.0,0.0,0.0,-0.019872773438692093,-0.004045285750180483,0.055294234305620193,0.0,0.0,0.0,0.0,0.0,0.0,0.0,0.0,0.0
1606991098110655911,4120817,1606987496528705759,imu_link,0.005143516231328249,0.0073842983692884445,0.3953000009059906,0.9185080528259277,0.0,0.0,0.0,0.0,0.0,0.0,0.0,0.0,0.0,46.575523376464844,0.5442384481430054,0.875939667224884,0.0,0.0,0.0,0.0,0.0,0.0,0.0,0.0,0.0,-0.00010320998262614012,-0.013387595303356647,0.052721522748470306,0.0,0.0,0.0,0.0,0.0,0.0,0.0,0.0,0.0
1606991098126652137,4120818,1606987496528781885,imu_link,0.005143516231328249,0.0073842983692884445,0.3953000009059906,0.9185080528259277,0.0,0.0,0.0,0.0,0.0,0.0,0.0,0.0,0.0,46.575523376464844,0.5442384481430054,0.875939667224884,0.0,0.0,0.0,0.0,0.0,0.0,0.0,0.0,0.0,-0.00010320998262614012,-0.013387595303356647,0.052721522748470306,0.0,0.0,0.0,0.0,0.0,0.0,0.0,0.0,0.0
1606991098126678792,4120819,1606987496528860237,imu_link,0.005142765585333109,0.007382040843367577,0.3953021168708801,0.9185071587562561,0.0,0.0,0.0,0.0,0.0,0.0,0.0,0.0,0.0,46.57578659057617,0.5440328121185303,0.8757596015930176,0.0,0.0,0.0,0.0,0.0,0.0,0.0,0.0,0.0,0.02052338421344757,-0.018977364525198936,0.04121348261833191,0.0,0.0,0.0,0.0,0.0,0.0,0.0,0.0,0.0
1606991098126698461,4120820,1606987496540717393,imu_link,0.005142765585333109,0.007382040843367577,0.3953021168708801,0.9185071587562561,0.0,0.0,0.0,0.0,0.0,0.0,0.0,0.0,0.0,46.57578659057617,0.5440328121185303,0.8757596015930176,0.0,0.0,0.0,0.0,0.0,0.0,0.0,0.0,0.0,0.02052338421344757,-0.018977364525198936,0.04121348261833191,0.0,0.0,0.0,0.0,0.0,0.0,0.0,0.0,0.0
1606991098126733911,4120821,1606987496540861230,imu_link,0.005143724847584963,0.007387025747448206,0.3953058123588562,0.9185054898262024,0.0,0.0,0.0,0.0,0.0,0.0,0.0,0.0,0.0,46.57625198364258,0.544510543346405,0.8760886788368225,0.0,0.0,0.0,0.0,0.0,0.0,0.0,0.0,0.0,0.030936507508158684,-0.013965058140456676,0.02906428463757038,0.0,0.0,0.0,0.0,0.0,0.0,0.0,0.0,0.0
1606991098139042909,4120822,1606987496541021541,imu_link,0.005143724847584963,0.007387025747448206,0.3953058123588562,0.9185054898262024,0.0,0.0,0.0,0.0,0.0,0.0,0.0,0.0,0.0,46.57625198364258,0.544510543346405,0.8760886788368225,0.0,0.0,0.0,0.0,0.0,0.0,0.0,0.0,0.0,0.030936507508158684,-0.013965058140456676,0.02906428463757038,0.0,0.0,0.0,0.0,0.0,0.0,0.0,0.0,0.0
1606991098139071409,4120823,1606987496541117188,imu_link,0.005145353265106678,0.007385881617665291,0.3953067660331726,0.918505072593689,0.0,0.0,0.0,0.0,0.0,0.0,0.0,0.0,0.0,46.57637023925781,0.5443153977394104,0.8762088418006897,0.0,0.0,0.0,0.0,0.0,0.0,0.0,0.0,0.0,0.03234265744686127,-0.013141835108399391,0.05400855839252472,0.0,0.0,0.0,0.0,0.0,0.0,0.0,0.0,0.0
1606991098139088279,4120824,1606987496541205472,imu_link,0.005145353265106678,0.007385881617665291,0.3953067660331726,0.918505072593689,0.0,0.0,0.0,0.0,0.0,0.0,0.0,0.0,0.0,46.57637023925781,0.5443153977394104,0.8762088418006897,0.0,0.0,0.0,0.0,0.0,0.0,0.0,0.0,0.0,0.03234265744686127,-0.013141835108399391,0.05400855839252472,0.0,0.0,0.0,0.0,0.0,0.0,0.0,0.0,0.0
1606991098139103191,4120825,1606987496541309748,imu_link,0.005144812166690826,0.007390881888568401,0.39531150460243225,0.9185029864311218,0.0,0.0,0.0,0.0,0.0,0.0,0.0,0.0,0.0,46.576969146728516,0.5448616743087769,0.8763812780380249,0.0,0.0,0.0,0.0,0.0,0.0,0.0,0.0,0.0,0.02310835011303425,-0.007940218783915043,0.06415431201457977,0.0,0.0,0.0,0.0,0.0,0.0,0.0,0.0,0.0
1606991098139141130,4120826,1606987496541392991,imu_link,0.005144812166690826,0.007390881888568401,0.39531150460243225,0.9185029864311218,0.0,0.0,0.0,0.0,0.0,0.0,0.0,0.0,0.0,46.576969146728516,0.5448616743087769,0.8763812780380249,0.0,0.0,0.0,0.0,0.0,0.0,0.0,0.0,0.0,0.02310835011303425,-0.007940218783915043,0.06415431201457977,0.0,0.0,0.0,0.0,0.0,0.0,0.0,0.0,0.0
1606991098208499317,4120827,1606987496541474334,imu_link,0.005144665017724037,0.007391441613435745,0.3953125774860382,0.9185025691986084,0.0,0.0,0.0,0.0,0.0,0.0,0.0,0.0,0.0,46.57710266113281,0.5449262261390686,0.8763917684555054,0.0,0.0,0.0,0.0,0.0,0.0,0.0,0.0,0.0,-0.0009912635432556272,0.0021440573036670685,0.048350293189287186,0.0,0.0,0.0,0.0,0.0,0.0,0.0,0.0,0.0
1606991098208518237,4120828,1606987496541557221,imu_link,0.005144665017724037,0.007391441613435745,0.3953125774860382,0.9185025691986084,0.0,0.0,0.0,0.0,0.0,0.0,0.0,0.0,0.0,46.57710266113281,0.5449262261390686,0.8763917684555054,0.0,0.0,0.0,0.0,0.0,0.0,0.0,0.0,0.0,-0.0009912635432556272,0.0021440573036670685,0.048350293189287186,0.0,0.0,0.0,0.0,0.0,0.0,0.0,0.0,0.0
1606991098208525129,4120829,1606987496541637893,imu_link,0.00514579052105546,0.007391961757093668,0.3953080475330353,0.918504536151886,0.0,0.0,0.0,0.0,0.0,0.0,0.0,0.0,0.0,46.576534271240234,0.5449343323707581,0.8765310645103455,0.0,0.0,0.0,0.0,0.0,0.0,0.0,0.0,0.0,-0.0075966110453009605,-0.008567793294787407,0.037604399025440216,0.0,0.0,0.0,0.0,0.0,0.0,0.0,0.0,0.0
1606991098208533912,4120830,1606987496554474330,imu_link,0.00514579052105546,0.007391961757093668,0.3953080475330353,0.918504536151886,0.0,0.0,0.0,0.0,0.0,0.0,0.0,0.0,0.0,46.576534271240234,0.5449343323707581,0.8765310645103455,0.0,0.0,0.0,0.0,0.0,0.0,0.0,0.0,0.0,-0.0075966110453009605,-0.008567793294787407,0.037604399025440216,0.0,0.0,0.0,0.0,0.0,0.0,0.0,0.0,0.0
1606991098212553749,4120831,1606987496554614906,imu_link,0.00514591671526432,0.0073899514973163605,0.39530640840530396,0.9185051321983337,0.0,0.0,0.0,0.0,0.0,0.0,0.0,0.0,0.0,46.57633972167969,0.5447185635566711,0.8764524459838867,0.0,0.0,0.0,0.0,0.0,0.0,0.0,0.0,0.0,-0.0035371019039303064,-0.0010407043155282736,0.04989520087838173,0.0,0.0,0.0,0.0,0.0,0.0,0.0,0.0,0.0
1606991098212571124,4120832,1606987496554769193,imu_link,0.00514591671526432,0.0073899514973163605,0.39530640840530396,0.9185051321983337,0.0,0.0,0.0,0.0,0.0,0.0,0.0,0.0,0.0,46.57633972167969,0.5447185635566711,0.8764524459838867,0.0,0.0,0.0,0.0,0.0,0.0,0.0,0.0,0.0,-0.0035371019039303064,-0.0010407043155282736,0.04989520087838173,0.0,0.0,0.0,0.0,0.0,0.0,0.0,0.0,0.0
1606991098212582769,4120833,1606987496554866368,imu_link,0.005144598428159952,0.007390098180621862,0.3953009843826294,0.9185075759887695,0.0,0.0,0.0,0.0,0.0,0.0,0.0,0.0,0.0,46.575653076171875,0.5447989702224731,0.8763169646263123,0.0,0.0,0.0,0.0,0.0,0.0,0.0,0.0,0.0,-0.004388366360217333,0.010011531412601471,0.04350290820002556,0.0,0.0,0.0,0.0,0.0,0.0,0.0,0.0,0.0
1606991098212591602,4120834,1606987496554980211,imu_link,0.005144598428159952,0.007390098180621862,0.3953009843826294,0.9185075759887695,0.0,0.0,0.0,0.0,0.0,0.0,0.0,0.0,0.0,46.575653076171875,0.5447989702224731,0.8763169646263123,0.0,0.0,0.0,0.0,0.0,0.0,0.0,0.0,0.0,-0.004388366360217333,0.010011531412601471,0.04350290820002556,0.0,0.0,0.0,0.0,0.0,0.0,0.0,0.0,0.0
1606991098212604211,4120835,1606987496555075717,imu_link,0.005145029630511999,0.007390545215457678,0.3953002691268921,0.9185078740119934,0.0,0.0,0.0,0.0,0.0,0.0,0.0,0.0,0.0,46.575565338134766,0.5448271632194519,0.8763821721076965,0.0,0.0,0.0,0.0,0.0,0.0,0.0,0.0,0.0,-0.001563225407153368,0.008908508345484734,0.038842350244522095,0.0,0.0,0.0,0.0,0.0,0.0,0.0,0.0,0.0
1606991098223210417,4120836,1606987496555267115,imu_link,0.005145029630511999,0.007390545215457678,0.3953002691268921,0.9185078740119934,0.0,0.0,0.0,0.0,0.0,0.0,0.0,0.0,0.0,46.575565338134766,0.5448271632194519,0.8763821721076965,0.0,0.0,0.0,0.0,0.0,0.0,0.0,0.0,0.0,-0.001563225407153368,0.008908508345484734,0.038842350244522095,0.0,0.0,0.0,0.0,0.0,0.0,0.0,0.0,0.0
1606991098223232638,4120837,1606987496555353425,imu_link,0.005143031943589449,0.007391254883259535,0.39530149102211,0.9185073375701904,0.0,0.0,0.0,0.0,0.0,0.0,0.0,0.0,0.0,46.575721740722656,0.5449911952018738,0.8762048482894897,0.0,0.0,0.0,0.0,0.0,0.0,0.0,0.0,0.0,0.013127789832651615,0.006740500219166279,0.06172213703393936,0.0,0.0,0.0,0.0,0.0,0.0,0.0,0.0,0.0
1606991098223240576,4120838,1606987496555515851,imu_link,0.005143031943589449,0.007391254883259535,0.39530149102211,0.9185073375701904,0.0,0.0,0.0,0.0,0.0,0.0,0.0,0.0,0.0,46.575721740722656,0.5449911952018738,0.8762048482894897,0.0,0.0,0.0,0.0,0.0,0.0,0.0,0.0,0.0,0.013127789832651615,0.006740500219166279,0.06172213703393936,0.0,0.0,0.0,0.0,0.0,0.0,0.0,0.0,0.0
1606991098223274951,4120839,1606987496555599374,imu_link,0.005141677334904671,0.007389503996819258,0.39530128240585327,0.91850745677948,0.0,0.0,0.0,0.0,0.0,0.0,0.0,0.0,0.0,46.57569122314453,0.5448684692382812,0.8759827613830566,0.0,0.0,0.0,0.0,0.0,0.0,0.0,0.0,0.0,0.01903063803911209,-0.0026183235459029675,0.05420298874378204,0.0,0.0,0.0,0.0,0.0,0.0,0.0,0.0,0.0
1606991098228046245,4120840,1606987496555685283,imu_link,0.005141677334904671,0.007389503996819258,0.39530128240585327,0.91850745677948,0.0,0.0,0.0,0.0,0.0,0.0,0.0,0.0,0.0,46.57569122314453,0.5448684692382812,0.8759827613830566,0.0,0.0,0.0,0.0,0.0,0.0,0.0,0.0,0.0,0.01903063803911209,-0.0026183235459029675,0.05420298874378204,0.0,0.0,0.0,0.0,0.0,0.0,0.0,0.0,0.0
1606991098228075756,4120841,1606987496568036437,imu_link,0.005141549278050661,0.007393284700810909,0.3953014016151428,0.9185073971748352,0.0,0.0,0.0,0.0,0.0,0.0,0.0,0.0,0.0,46.575714111328125,0.5452720522880554,0.8761406540870667,0.0,0.0,0.0,0.0,0.0,0.0,0.0,0.0,0.0,9.626016253605485e-05,-0.016118327155709267,0.04597111791372299,0.0,0.0,0.0,0.0,0.0,0.0,0.0,0.0,0.0
1606991098228089149,4120842,1606987496568179443,imu_link,0.005141549278050661,0.007393284700810909,0.3953014016151428,0.9185073971748352,0.0,0.0,0.0,0.0,0.0,0.0,0.0,0.0,0.0,46.575714111328125,0.5452720522880554,0.8761406540870667,0.0,0.0,0.0,0.0,0.0,0.0,0.0,0.0,0.0,9.626016253605485e-05,-0.016118327155709267,0.04597111791372299,0.0,0.0,0.0,0.0,0.0,0.0,0.0,0.0,0.0
1606991098228098706,4120843,1606987496568318294,imu_link,0.00513998419046402,0.007395728956907988,0.39530304074287415,0.9185066819190979,0.0,0.0,0.0,0.0,0.0,0.0,0.0,0.0,0.0,46.5759162902832,0.5455987453460693,0.8760876059532166,0.0,0.0,0.0,0.0,0.0,0.0,0.0,0.0,0.0,-0.013644766993820667,-0.015596244484186172,0.03306238725781441,0.0,0.0,0.0,0.0,0.0,0.0,0.0,0.0,0.0
1606991098228120521,4120844,1606987496568417113,imu_link,0.00513998419046402,0.007395728956907988,0.39530304074287415,0.9185066819190979,0.0,0.0,0.0,0.0,0.0,0.0,0.0,0.0,0.0,46.5759162902832,0.5455987453460693,0.8760876059532166,0.0,0.0,0.0,0.0,0.0,0.0,0.0,0.0,0.0,-0.013644766993820667,-0.015596244484186172,0.03306238725781441,0.0,0.0,0.0,0.0,0.0,0.0,0.0,0.0,0.0
1606991098325234533,4120845,1606987496568503934,imu_link,0.005141753703355789,0.0073946150951087475,0.39530640840530396,0.9185052514076233,0.0,0.0,0.0,0.0,0.0,0.0,0.0,0.0,0.0,46.57633590698242,0.5453980565071106,0.876225471496582,0.0,0.0,0.0,0.0,0.0,0.0,0.0,0.0,0.0,0.009456348605453968,-0.0020450337324291468,0.0007689553312957287,0.0,0.0,0.0,0.0,0.0,0.0,0.0,0.0,0.0
1606991098325257782,4120846,1606987496568588680,imu_link,0.005141753703355789,0.0073946150951087475,0.39530640840530396,0.9185052514076233,0.0,0.0,0.0,0.0,0.0,0.0,0.0,0.0,0.0,46.57633590698242,0.5453980565071106,0.876225471496582,0.0,0.0,0.0,0.0,0.0,0.0,0.0,0.0,0.0,0.009456348605453968,-0.0020450337324291468,0.0007689553312957287,0.0,0.0,0.0,0.0,0.0,0.0,0.0,0.0,0.0
1606991098325268213,4120847,1606987496568695698,imu_link,0.005142942536622286,0.007395489141345024,0.39530882239341736,0.9185041785240173,0.0,0.0,0.0,0.0,0.0,0.0,0.0,0.0,0.0,46.576637268066406,0.5454338788986206,0.876391589641571,0.0,0.0,0.0,0.0,0.0,0.0,0.0,0.0,0.0,0.012974613346159458,0.0015402557328343391,0.033872202038764954,0.0,0.0,0.0,0.0,0.0,0.0,0.0,0.0,0.0
1606991098325275892,4120848,1606987496568777116,imu_link,0.005142942536622286,0.007395489141345024,0.39530882239341736,0.9185041785240173,0.0,0.0,0.0,0.0,0.0,0.0,0.0,0.0,0.0,46.576637268066406,0.5454338788986206,0.876391589641571,0.0,0.0,0.0,0.0,0.0,0.0,0.0,0.0,0.0,0.012974613346159458,0.0015402557328343391,0.033872202038764954,0.0,0.0,0.0,0.0,0.0,0.0,0.0,0.0,0.0
1606991098329174301,4120849,1606987496568907403,imu_link,0.005140641238540411,0.007398160174489021,0.39531227946281433,0.918502688407898,0.0,0.0,0.0,0.0,0.0,0.0,0.0,0.0,0.0,46.57707214355469,0.5458160042762756,0.8762725591659546,0.0,0.0,0.0,0.0,0.0,0.0,0.0,0.0,0.0,0.004209198988974094,0.003141938243061304,0.07900344580411911,0.0,0.0,0.0,0.0,0.0,0.0,0.0,0.0,0.0
1606991098329201997,4120850,1606987496568993036,imu_link,0.005140641238540411,0.007398160174489021,0.39531227946281433,0.918502688407898,0.0,0.0,0.0,0.0,0.0,0.0,0.0,0.0,0.0,46.57707214355469,0.5458160042762756,0.8762725591659546,0.0,0.0,0.0,0.0,0.0,0.0,0.0,0.0,0.0,0.004209198988974094,0.003141938243061304,0.07900344580411911,0.0,0.0,0.0,0.0,0.0,0.0,0.0,0.0,0.0
1606991098329235628,4120851,1606987496569076880,imu_link,0.005140410270541906,0.007398756220936775,0.39531153440475464,0.9185029864311218,0.0,0.0,0.0,0.0,0.0,0.0,0.0,0.0,0.0,46.57698440551758,0.5458899140357971,0.8762748837471008,0.0,0.0,0.0,0.0,0.0,0.0,0.0,0.0,0.0,-0.004259553737938404,0.011541808024048805,0.09739585965871811,0.0,0.0,0.0,0.0,0.0,0.0,0.0,0.0,0.0
1606991098329241250,4120852,1606987496581744647,imu_link,0.005140410270541906,0.007398756220936775,0.39531153440475464,0.9185029864311218,0.0,0.0,0.0,0.0,0.0,0.0,0.0,0.0,0.0,46.57698440551758,0.5458899140357971,0.8762748837471008,0.0,0.0,0.0,0.0,0.0,0.0,0.0,0.0,0.0,-0.004259553737938404,0.011541808024048805,0.09739585965871811,0.0,0.0,0.0,0.0,0.0,0.0,0.0,0.0,0.0
1606991098329253318,4120853,1606987496581883263,imu_link,0.005140962079167366,0.007395339198410511,0.3953094184398651,0.9185039401054382,0.0,0.0,0.0,0.0,0.0,0.0,0.0,0.0,0.0,46.57670974731445,0.5455072522163391,0.876176655292511,0.0,0.0,0.0,0.0,0.0,0.0,0.0,0.0,0.0,-0.018959932029247284,0.004011068027466536,0.10023639351129532,0.0,0.0,0.0,0.0,0.0,0.0,0.0,0.0,0.0
1606991098336324451,4120854,1606987496582041965,imu_link,0.005140962079167366,0.007395339198410511,0.3953094184398651,0.9185039401054382,0.0,0.0,0.0,0.0,0.0,0.0,0.0,0.0,0.0,46.57670974731445,0.5455072522163391,0.876176655292511,0.0,0.0,0.0,0.0,0.0,0.0,0.0,0.0,0.0,-0.018959932029247284,0.004011068027466536,0.10023639351129532,0.0,0.0,0.0,0.0,0.0,0.0,0.0,0.0,0.0
1606991098336354418,4120855,1606987496582141992,imu_link,0.00514014158397913,0.007395646069198847,0.3953087329864502,0.9185042381286621,0.0,0.0,0.0,0.0,0.0,0.0,0.0,0.0,0.0,46.576629638671875,0.5455774664878845,0.8761038184165955,0.0,0.0,0.0,0.0,0.0,0.0,0.0,0.0,0.0,-0.003041296498849988,0.0012202737852931023,0.07115191221237183,0.0,0.0,0.0,0.0,0.0,0.0,0.0,0.0,0.0
1606991098336377253,4120856,1606987496582225044,imu_link,0.00514014158397913,0.007395646069198847,0.3953087329864502,0.9185042381286621,0.0,0.0,0.0,0.0,0.0,0.0,0.0,0.0,0.0,46.576629638671875,0.5455774664878845,0.8761038184165955,0.0,0.0,0.0,0.0,0.0,0.0,0.0,0.0,0.0,-0.003041296498849988,0.0012202737852931023,0.07115191221237183,0.0,0.0,0.0,0.0,0.0,0.0,0.0,0.0,0.0
1606991098336386837,4120857,1606987496582305570,imu_link,0.005140700377523899,0.007393777836114168,0.3953064978122711,0.9185051321983337,0.0,0.0,0.0,0.0,0.0,0.0,0.0,0.0,0.0,46.57634735107422,0.5453574657440186,0.8760768175125122,0.0,0.0,0.0,0.0,0.0,0.0,0.0,0.0,0.0,0.009772754274308681,0.0055869948118925095,0.07087613642215729,0.0,0.0,0.0,0.0,0.0,0.0,0.0,0.0,0.0
1606991098340793339,4120858,1606987496582403171,imu_link,0.005140700377523899,0.007393777836114168,0.3953064978122711,0.9185051321983337,0.0,0.0,0.0,0.0,0.0,0.0,0.0,0.0,0.0,46.57634735107422,0.5453574657440186,0.8760768175125122,0.0,0.0,0.0,0.0,0.0,0.0,0.0,0.0,0.0,0.009772754274308681,0.0055869948118925095,0.07087613642215729,0.0,0.0,0.0,0.0,0.0,0.0,0.0,0.0,0.0
1606991098340818054,4120859,1606987496582483963,imu_link,0.005141559988260269,0.007394546642899513,0.39530715346336365,0.9185048341751099,0.0,0.0,0.0,0.0,0.0,0.0,0.0,0.0,0.0,46.57643127441406,0.5453988909721375,0.8762024641036987,0.0,0.0,0.0,0.0,0.0,0.0,0.0,0.0,0.0,0.0029166587628424168,0.0010701275896281004,0.05641608312726021,0.0,0.0,0.0,0.0,0.0,0.0,0.0,0.0,0.0
1606991098340826253,4120860,1606987496582643923,imu_link,0.005141559988260269,0.007394546642899513,0.39530715346336365,0.9185048341751099,0.0,0.0,0.0,0.0,0.0,0.0,0.0,0.0,0.0,46.57643127441406,0.5453988909721375,0.8762024641036987,0.0,0.0,0.0,0.0,0.0,0.0,0.0,0.0,0.0,0.0029166587628424168,0.0010701275896281004,0.05641608312726021,0.0,0.0,0.0,0.0,0.0,0.0,0.0,0.0,0.0
1606991098340837585,4120861,1606987496582725707,imu_link,0.005141437519341707,0.00739607959985733,0.39530983567237854,0.9185037016868591,0.0,0.0,0.0,0.0,0.0,0.0,0.0,0.0,0.0,46.57676315307617,0.545563280582428,0.8762606382369995,0.0,0.0,0.0,0.0,0.0,0.0,0.0,0.0,0.0,0.001170845702290535,0.0009690236183814704,0.05922625586390495,0.0,0.0,0.0,0.0,0.0,0.0,0.0,0.0,0.0
1606991098340869176,4120862,1606987496582805612,imu_link,0.005141437519341707,0.00739607959985733,0.39530983567237854,0.9185037016868591,0.0,0.0,0.0,0.0,0.0,0.0,0.0,0.0,0.0,46.57676315307617,0.545563280582428,0.8762606382369995,0.0,0.0,0.0,0.0,0.0,0.0,0.0,0.0,0.0,0.001170845702290535,0.0009690236183814704,0.05922625586390495,0.0,0.0,0.0,0.0,0.0,0.0,0.0,0.0,0.0
1606991098383166439,4120863,1606987496595292823,imu_link,0.0051406268030405045,0.007395958062261343,0.3953125774860382,0.9185025095939636,0.0,0.0,0.0,0.0,0.0,0.0,0.0,0.0,0.0,46.57710647583008,0.5455845594406128,0.876171350479126,0.0,0.0,0.0,0.0,0.0,0.0,0.0,0.0,0.0,0.01267769280821085,-0.0037162695080041885,0.07482042163610458,0.0,0.0,0.0,0.0,0.0,0.0,0.0,0.0,0.0
1606991098383215498,4120864,1606987496595415387,imu_link,0.0051406268030405045,0.007395958062261343,0.3953125774860382,0.9185025095939636,0.0,0.0,0.0,0.0,0.0,0.0,0.0,0.0,0.0,46.57710647583008,0.5455845594406128,0.876171350479126,0.0,0.0,0.0,0.0,0.0,0.0,0.0,0.0,0.0,0.01267769280821085,-0.0037162695080041885,0.07482042163610458,0.0,0.0,0.0,0.0,0.0,0.0,0.0,0.0,0.0
1606991098383229805,4120865,1606987496595509556,imu_link,0.0051408009603619576,0.007397981360554695,0.39531442523002625,0.9185016751289368,0.0,0.0,0.0,0.0,0.0,0.0,0.0,0.0,0.0,46.57734298706055,0.5457878708839417,0.8762825131416321,0.0,0.0,0.0,0.0,0.0,0.0,0.0,0.0,0.0,0.004952153190970421,-0.011620267294347286,0.06247275695204735,0.0,0.0,0.0,0.0,0.0,0.0,0.0,0.0,0.0
1606991098383239565,4120866,1606987496595588275,imu_link,0.0051408009603619576,0.007397981360554695,0.39531442523002625,0.9185016751289368,0.0,0.0,0.0,0.0,0.0,0.0,0.0,0.0,0.0,46.57734298706055,0.5457878708839417,0.8762825131416321,0.0,0.0,0.0,0.0,0.0,0.0,0.0,0.0,0.0,0.004952153190970421,-0.011620267294347286,0.06247275695204735,0.0,0.0,0.0,0.0,0.0,0.0,0.0,0.0,0.0
1606991098387046565,4120867,1606987496595671393,imu_link,0.0051398444920778275,0.007398131303489208,0.3953148126602173,0.9185015559196472,0.0,0.0,0.0,0.0,0.0,0.0,0.0,0.0,0.0,46.577388763427734,0.5458465814590454,0.8761888146400452,0.0,0.0,0.0,0.0,0.0,0.0,0.0,0.0,0.0,-0.007702698465436697,-0.010316201485693455,0.05933910980820656,0.0,0.0,0.0,0.0,0.0,0.0,0.0,0.0,0.0
1606991098387078931,4120868,1606987496595758604,imu_link,0.0051398444920778275,0.007398131303489208,0.3953148126602173,0.9185015559196472,0.0,0.0,0.0,0.0,0.0,0.0,0.0,0.0,0.0,46.577388763427734,0.5458465814590454,0.8761888146400452,0.0,0.0,0.0,0.0,0.0,0.0,0.0,0.0,0.0,-0.007702698465436697,-0.010316201485693455,0.05933910980820656,0.0,0.0,0.0,0.0,0.0,0.0,0.0,0.0,0.0
1606991098387109777,4120869,1606987496595834571,imu_link,0.005141586530953646,0.007398791611194611,0.3953193724155426,0.9184995293617249,0.0,0.0,0.0,0.0,0.0,0.0,0.0,0.0,0.0,46.57796096801758,0.5458328127861023,0.876404881477356,0.0,0.0,0.0,0.0,0.0,0.0,0.0,0.0,0.0,0.002650377806276083,0.0007461137720383704,0.04074997454881668,0.0,0.0,0.0,0.0,0.0,0.0,0.0,0.0,0.0
1606991098387128159,4120870,1606987496595910239,imu_link,0.005141586530953646,0.007398791611194611,0.3953193724155426,0.9184995293617249,0.0,0.0,0.0,0.0,0.0,0.0,0.0,0.0,0.0,46.57796096801758,0.5458328127861023,0.876404881477356,0.0,0.0,0.0,0.0,0.0,0.0,0.0,0.0,0.0,0.002650377806276083,0.0007461137720383704,0.04074997454881668,0.0,0.0,0.0,0.0,0.0,0.0,0.0,0.0,0.0
1606991098387164011,4120871,1606987496595980691,imu_link,0.005140373017638922,0.00739994365721941,0.3953183591365814,0.9185000061988831,0.0,0.0,0.0,0.0,0.0,0.0,0.0,0.0,0.0,46.57783126831055,0.5460100173950195,0.8763287663459778,0.0,0.0,0.0,0.0,0.0,0.0,0.0,0.0,0.0,0.008058506064116955,-0.00469819363206625,0.025566309690475464,0.0,0.0,0.0,0.0,0.0,0.0,0.0,0.0,0.0
1606991098394585067,4120872,1606987496596058854,imu_link,0.005140373017638922,0.00739994365721941,0.3953183591365814,0.9185000061988831,0.0,0.0,0.0,0.0,0.0,0.0,0.0,0.0,0.0,46.57783126831055,0.5460100173950195,0.8763287663459778,0.0,0.0,0.0,0.0,0.0,0.0,0.0,0.0,0.0,0.008058506064116955,-0.00469819363206625,0.025566309690475464,0.0,0.0,0.0,0.0,0.0,0.0,0.0,0.0,0.0
1606991098394625652,4120873,1606987496596128878,imu_link,0.005141289439052343,0.00740028265863657,0.3953213393688202,0.9184987545013428,0.0,0.0,0.0,0.0,0.0,0.0,0.0,0.0,0.0,46.57820510864258,0.5460013747215271,0.8764422535896301,0.0,0.0,0.0,0.0,0.0,0.0,0.0,0.0,0.0,-0.010696078650653362,-0.007999559864401817,0.018095500767230988,0.0,0.0,0.0,0.0,0.0,0.0,0.0,0.0,0.0
1606991098394691126,4120874,1606987496608274578,imu_link,0.005141289439052343,0.00740028265863657,0.3953213393688202,0.9184987545013428,0.0,0.0,0.0,0.0,0.0,0.0,0.0,0.0,0.0,46.57820510864258,0.5460013747215271,0.8764422535896301,0.0,0.0,0.0,0.0,0.0,0.0,0.0,0.0,0.0,-0.010696078650653362,-0.007999559864401817,0.018095500767230988,0.0,0.0,0.0,0.0,0.0,0.0,0.0,0.0,0.0
1606991098394712401,4120875,1606987496608398554,imu_link,0.005142406560480595,0.007401163689792156,0.39531925320625305,0.9184996485710144,0.0,0.0,0.0,0.0,0.0,0.0,0.0,0.0,0.0,46.577945709228516,0.5460454821586609,0.876598596572876,0.0,0.0,0.0,0.0,0.0,0.0,0.0,0.0,0.0,-0.02197379060089588,-0.009488745592534542,0.026785079389810562,0.0,0.0,0.0,0.0,0.0,0.0,0.0,0.0,0.0
1606991098399011523,4120876,1606987496608542848,imu_link,0.005142406560480595,0.007401163689792156,0.39531925320625305,0.9184996485710144,0.0,0.0,0.0,0.0,0.0,0.0,0.0,0.0,0.0,46.577945709228516,0.5460454821586609,0.876598596572876,0.0,0.0,0.0,0.0,0.0,0.0,0.0,0.0,0.0,-0.02197379060089588,-0.009488745592534542,0.026785079389810562,0.0,0.0,0.0,0.0,0.0,0.0,0.0,0.0,0.0
1606991098399040814,4120877,1606987496608636375,imu_link,0.005145990755409002,0.0073986416682600975,0.39531853795051575,0.9184998273849487,0.0,0.0,0.0,0.0,0.0,0.0,0.0,0.0,0.0,46.57786560058594,0.5456182956695557,0.8768612146377563,0.0,0.0,0.0,0.0,0.0,0.0,0.0,0.0,0.0,-0.011681003496050835,-0.014270630665123463,0.04632209613919258,0.0,0.0,0.0,0.0,0.0,0.0,0.0,0.0,0.0
1606991098399052795,4120878,1606987496608721617,imu_link,0.005145990755409002,0.0073986416682600975,0.39531853795051575,0.9184998273849487,0.0,0.0,0.0,0.0,0.0,0.0,0.0,0.0,0.0,46.57786560058594,0.5456182956695557,0.8768612146377563,0.0,0.0,0.0,0.0,0.0,0.0,0.0,0.0,0.0,-0.011681003496050835,-0.014270630665123463,0.04632209613919258,0.0,0.0,0.0,0.0,0.0,0.0,0.0,0.0,0.0
1606991098399166956,4120879,1606987496608811809,imu_link,0.005144903436303139,0.007399232126772404,0.39531856775283813,0.9184999465942383,0.0,0.0,0.0,0.0,0.0,0.0,0.0,0.0,0.0,46.577857971191406,0.5457297563552856,0.8767733573913574,0.0,0.0,0.0,0.0,0.0,0.0,0.0,0.0,0.0,-0.0038571618497371674,-0.00679931091144681,0.05585870519280434,0.0,0.0,0.0,0.0,0.0,0.0,0.0,0.0,0.0
1606991098412538267,4120880,1606987496608885877,imu_link,0.005144903436303139,0.007399232126772404,0.39531856775283813,0.9184999465942383,0.0,0.0,0.0,0.0,0.0,0.0,0.0,0.0,0.0,46.577857971191406,0.5457297563552856,0.8767733573913574,0.0,0.0,0.0,0.0,0.0,0.0,0.0,0.0,0.0,-0.0038571618497371674,-0.00679931091144681,0.05585870519280434,0.0,0.0,0.0,0.0,0.0,0.0,0.0,0.0,0.0
1606991098412582463,4120881,1606987496608956347,imu_link,0.005146792158484459,0.007398645393550396,0.3953177034854889,0.9185001850128174,0.0,0.0,0.0,0.0,0.0,0.0,0.0,0.0,0.0,46.577762603759766,0.5455831289291382,0.8769452571868896,0.0,0.0,0.0,0.0,0.0,0.0,0.0,0.0,0.0,-0.015614094212651253,-0.009597686119377613,0.06142289936542511,0.0,0.0,0.0,0.0,0.0,0.0,0.0,0.0,0.0
1606991098412596709,4120882,1606987496609027730,imu_link,0.005146792158484459,0.007398645393550396,0.3953177034854889,0.9185001850128174,0.0,0.0,0.0,0.0,0.0,0.0,0.0,0.0,0.0,46.577762603759766,0.5455831289291382,0.8769452571868896,0.0,0.0,0.0,0.0,0.0,0.0,0.0,0.0,0.0,-0.015614094212651253,-0.009597686119377613,0.06142289936542511,0.0,0.0,0.0,0.0,0.0,0.0,0.0,0.0,0.0
1606991098412628563,4120883,1606987496609099211,imu_link,0.005145188886672258,0.007398332003504038,0.39531660079956055,0.9185007214546204,0.0,0.0,0.0,0.0,0.0,0.0,0.0,0.0,0.0,46.57761764526367,0.5456238985061646,0.8767616152763367,0.0,0.0,0.0,0.0,0.0,0.0,0.0,0.0,0.0,-0.018678637221455574,-0.010409774258732796,0.05531017482280731,0.0,0.0,0.0,0.0,0.0,0.0,0.0,0.0,0.0
1606991098412694952,4120884,1606987496621928871,imu_link,0.005145188886672258,0.007398332003504038,0.39531660079956055,0.9185007214546204,0.0,0.0,0.0,0.0,0.0,0.0,0.0,0.0,0.0,46.57761764526367,0.5456238985061646,0.8767616152763367,0.0,0.0,0.0,0.0,0.0,0.0,0.0,0.0,0.0,-0.018678637221455574,-0.010409774258732796,0.05531017482280731,0.0,0.0,0.0,0.0,0.0,0.0,0.0,0.0,0.0
1606991098447360809,4120885,1606987496622052447,imu_link,0.00514650996774435,0.007396127562969923,0.3953131139278412,0.9185022711753845,0.0,0.0,0.0,0.0,0.0,0.0,0.0,0.0,0.0,46.577178955078125,0.5453352928161621,0.8767986297607422,0.0,0.0,0.0,0.0,0.0,0.0,0.0,0.0,0.0,0.007580697536468506,0.005662467330694199,0.04973914474248886,0.0,0.0,0.0,0.0,0.0,0.0,0.0,0.0,0.0
1606991098447417678,4120886,1606987496622216140,imu_link,0.00514650996774435,0.007396127562969923,0.3953131139278412,0.9185022711753845,0.0,0.0,0.0,0.0,0.0,0.0,0.0,0.0,0.0,46.577178955078125,0.5453352928161621,0.8767986297607422,0.0,0.0,0.0,0.0,0.0,0.0,0.0,0.0,0.0,0.007580697536468506,0.005662467330694199,0.04973914474248886,0.0,0.0,0.0,0.0,0.0,0.0,0.0,0.0,0.0
1606991098447460878,4120887,1606987496622291605,imu_link,0.005146712530404329,0.007396771106868982,0.39531415700912476,0.9185017943382263,0.0,0.0,0.0,0.0,0.0,0.0,0.0,0.0,0.0,46.577308654785156,0.5453928709030151,0.8768497705459595,0.0,0.0,0.0,0.0,0.0,0.0,0.0,0.0,0.0,0.020857423543930054,0.02461477555334568,0.048880137503147125,0.0,0.0,0.0,0.0,0.0,0.0,0.0,0.0,0.0
1606991098447486377,4120888,1606987496622374498,imu_link,0.005146712530404329,0.007396771106868982,0.39531415700912476,0.9185017943382263,0.0,0.0,0.0,0.0,0.0,0.0,0.0,0.0,0.0,46.577308654785156,0.5453928709030151,0.8768497705459595,0.0,0.0,0.0,0.0,0.0,0.0,0.0,0.0,0.0,0.020857423543930054,0.02461477555334568,0.048880137503147125,0.0,0.0,0.0,0.0,0.0,0.0,0.0,0.0,0.0
1606991098453780286,4120889,1606987496622444968,imu_link,0.005141261965036392,0.0073966956697404385,0.39531153440475464,0.9185029864311218,0.0,0.0,0.0,0.0,0.0,0.0,0.0,0.0,0.0,46.57698059082031,0.5456344485282898,0.87627112865448,0.0,0.0,0.0,0.0,0.0,0.0,0.0,0.0,0.0,0.002207366283982992,0.019385281950235367,0.07094885408878326,0.0,0.0,0.0,0.0,0.0,0.0,0.0,0.0,0.0
1606991098453958012,4120890,1606987496622572130,imu_link,0.005141261965036392,0.0073966956697404385,0.39531153440475464,0.9185029864311218,0.0,0.0,0.0,0.0,0.0,0.0,0.0,0.0,0.0,46.57698059082031,0.5456344485282898,0.87627112865448,0.0,0.0,0.0,0.0,0.0,0.0,0.0,0.0,0.0,0.002207366283982992,0.019385281950235367,0.07094885408878326,0.0,0.0,0.0,0.0,0.0,0.0,0.0,0.0,0.0
1606991098453991620,4120891,1606987496622648568,imu_link,0.00513943936675787,0.00739676458761096,0.39531180262565613,0.9185028076171875,0.0,0.0,0.0,0.0,0.0,0.0,0.0,0.0,0.0,46.57701873779297,0.5457239151000977,0.8760824799537659,0.0,0.0,0.0,0.0,0.0,0.0,0.0,0.0,0.0,0.003770468756556511,0.0027203236240893602,0.0646849200129509,0.0,0.0,0.0,0.0,0.0,0.0,0.0,0.0,0.0
1606991098454021044,4120892,1606987496622722170,imu_link,0.00513943936675787,0.00739676458761096,0.39531180262565613,0.9185028076171875,0.0,0.0,0.0,0.0,0.0,0.0,0.0,0.0,0.0,46.57701873779297,0.5457239151000977,0.8760824799537659,0.0,0.0,0.0,0.0,0.0,0.0,0.0,0.0,0.0,0.003770468756556511,0.0027203236240893602,0.0646849200129509,0.0,0.0,0.0,0.0,0.0,0.0,0.0,0.0,0.0
1606991098454034070,4120893,1606987496622792354,imu_link,0.005141044966876507,0.007397654000669718,0.3953104615211487,0.91850346326828,0.0,0.0,0.0,0.0,0.0,0.0,0.0,0.0,0.0,46.576847076416016,0.5457461476325989,0.8762909770011902,0.0,0.0,0.0,0.0,0.0,0.0,0.0,0.0,0.0,0.005388841964304447,-0.015964990481734276,0.05998043715953827,0.0,0.0,0.0,0.0,0.0,0.0,0.0,0.0,0.0
1606991098529847288,4120894,1606987496622927793,imu_link,0.005141044966876507,0.007397654000669718,0.3953104615211487,0.91850346326828,0.0,0.0,0.0,0.0,0.0,0.0,0.0,0.0,0.0,46.576847076416016,0.5457461476325989,0.8762909770011902,0.0,0.0,0.0,0.0,0.0,0.0,0.0,0.0,0.0,0.005388841964304447,-0.015964990481734276,0.05998043715953827,0.0,0.0,0.0,0.0,0.0,0.0,0.0,0.0,0.0
1606991098529868648,4120895,1606987496635340454,imu_link,0.005140462890267372,0.007397580426186323,0.3953106105327606,0.9185034036636353,0.0,0.0,0.0,0.0,0.0,0.0,0.0,0.0,0.0,46.57686233520508,0.545764684677124,0.8762264251708984,0.0,0.0,0.0,0.0,0.0,0.0,0.0,0.0,0.0,-0.009894811548292637,-0.020246710628271103,0.057699818164110184,0.0,0.0,0.0,0.0,0.0,0.0,0.0,0.0,0.0
1606991098529877835,4120896,1606987496635499707,imu_link,0.005140462890267372,0.007397580426186323,0.3953106105327606,0.9185034036636353,0.0,0.0,0.0,0.0,0.0,0.0,0.0,0.0,0.0,46.57686233520508,0.545764684677124,0.8762264251708984,0.0,0.0,0.0,0.0,0.0,0.0,0.0,0.0,0.0,-0.009894811548292637,-0.020246710628271103,0.057699818164110184,0.0,0.0,0.0,0.0,0.0,0.0,0.0,0.0,0.0
1606991098529890627,4120897,1606987496635624466,imu_link,0.005143843591213226,0.007398504763841629,0.3953111171722412,0.9185031652450562,0.0,0.0,0.0,0.0,0.0,0.0,0.0,0.0,0.0,46.576927185058594,0.5457083582878113,0.8766245245933533,0.0,0.0,0.0,0.0,0.0,0.0,0.0,0.0,0.0,-0.012470503337681293,-0.005382812116295099,0.02941877581179142,0.0,0.0,0.0,0.0,0.0,0.0,0.0,0.0,0.0
1606991098532691501,4120898,1606987496635761193,imu_link,0.005143843591213226,0.007398504763841629,0.3953111171722412,0.9185031652450562,0.0,0.0,0.0,0.0,0.0,0.0,0.0,0.0,0.0,46.576927185058594,0.5457083582878113,0.8766245245933533,0.0,0.0,0.0,0.0,0.0,0.0,0.0,0.0,0.0,-0.012470503337681293,-0.005382812116295099,0.02941877581179142,0.0,0.0,0.0,0.0,0.0,0.0,0.0,0.0,0.0
1606991098532741298,4120899,1606987496635917424,imu_link,0.005145041272044182,0.0073991809040308,0.39531272649765015,0.9185024499893188,0.0,0.0,0.0,0.0,0.0,0.0,0.0,0.0,0.0,46.57712936401367,0.5457237362861633,0.8767821192741394,0.0,0.0,0.0,0.0,0.0,0.0,0.0,0.0,0.0,-0.01269614789634943,-0.0016608086880296469,0.037591222673654556,0.0,0.0,0.0,0.0,0.0,0.0,0.0,0.0,0.0
1606991098532752293,4120900,1606987496636065462,imu_link,0.005145041272044182,0.0073991809040308,0.39531272649765015,0.9185024499893188,0.0,0.0,0.0,0.0,0.0,0.0,0.0,0.0,0.0,46.57712936401367,0.5457237362861633,0.8767821192741394,0.0,0.0,0.0,0.0,0.0,0.0,0.0,0.0,0.0,-0.01269614789634943,-0.0016608086880296469,0.037591222673654556,0.0,0.0,0.0,0.0,0.0,0.0,0.0,0.0,0.0
1606991098532763096,4120901,1606987496636232924,imu_link,0.005145385395735502,0.007397298701107502,0.39531761407852173,0.9185003042221069,0.0,0.0,0.0,0.0,0.0,0.0,0.0,0.0,0.0,46.57773971557617,0.545505166053772,0.8767359852790833,0.0,0.0,0.0,0.0,0.0,0.0,0.0,0.0,0.0,-0.0007551112794317305,0.011142306961119175,0.05327870324254036,0.0,0.0,0.0,0.0,0.0,0.0,0.0,0.0,0.0
1606991098532778739,4120902,1606987496636380651,imu_link,0.005145385395735502,0.007397298701107502,0.39531761407852173,0.9185003042221069,0.0,0.0,0.0,0.0,0.0,0.0,0.0,0.0,0.0,46.57773971557617,0.545505166053772,0.8767359852790833,0.0,0.0,0.0,0.0,0.0,0.0,0.0,0.0,0.0,-0.0007551112794317305,0.011142306961119175,0.05327870324254036,0.0,0.0,0.0,0.0,0.0,0.0,0.0,0.0,0.0
1606991098536895394,4120903,1606987496636525341,imu_link,0.005144922994077206,0.007397270295768976,0.39531809091567993,0.9185001254081726,0.0,0.0,0.0,0.0,0.0,0.0,0.0,0.0,0.0,46.57780456542969,0.5455226898193359,0.8766864538192749,0.0,0.0,0.0,0.0,0.0,0.0,0.0,0.0,0.0,0.007130012381821871,0.021139100193977356,0.05447704717516899,0.0,0.0,0.0,0.0,0.0,0.0,0.0,0.0,0.0
1606991098536910774,4120904,1606987496636658314,imu_link,0.005144922994077206,0.007397270295768976,0.39531809091567993,0.9185001254081726,0.0,0.0,0.0,0.0,0.0,0.0,0.0,0.0,0.0,46.57780456542969,0.5455226898193359,0.8766864538192749,0.0,0.0,0.0,0.0,0.0,0.0,0.0,0.0,0.0,0.007130012381821871,0.021139100193977356,0.05447704717516899,0.0,0.0,0.0,0.0,0.0,0.0,0.0,0.0,0.0
1606991098536930667,4120905,1606987496636763878,imu_link,0.00514216860756278,0.007398174609988928,0.39532092213630676,0.9184988737106323,0.0,0.0,0.0,0.0,0.0,0.0,0.0,0.0,0.0,46.57815170288086,0.545740008354187,0.8764391541481018,0.0,0.0,0.0,0.0,0.0,0.0,0.0,0.0,0.0,0.01194037776440382,0.012952047400176525,0.055672645568847656,0.0,0.0,0.0,0.0,0.0,0.0,0.0,0.0,0.0
1606991098536941602,4120906,1606987496649303210,imu_link,0.00514216860756278,0.007398174609988928,0.39532092213630676,0.9184988737106323,0.0,0.0,0.0,0.0,0.0,0.0,0.0,0.0,0.0,46.57815170288086,0.545740008354187,0.8764391541481018,0.0,0.0,0.0,0.0,0.0,0.0,0.0,0.0,0.0,0.01194037776440382,0.012952047400176525,0.055672645568847656,0.0,0.0,0.0,0.0,0.0,0.0,0.0,0.0,0.0
1606991098542422429,4120907,1606987496649417447,imu_link,0.005141555331647396,0.0073952148668468,0.39532122015953064,0.9184988141059875,0.0,0.0,0.0,0.0,0.0,0.0,0.0,0.0,0.0,46.57818603515625,0.5454559922218323,0.8762405514717102,0.0,0.0,0.0,0.0,0.0,0.0,0.0,0.0,0.0,0.018624920397996902,0.012073865160346031,0.05235503241419792,0.0,0.0,0.0,0.0,0.0,0.0,0.0,0.0,0.0
1606991098542444321,4120908,1606987496649506741,imu_link,0.005141555331647396,0.0073952148668468,0.39532122015953064,0.9184988141059875,0.0,0.0,0.0,0.0,0.0,0.0,0.0,0.0,0.0,46.57818603515625,0.5454559922218323,0.8762405514717102,0.0,0.0,0.0,0.0,0.0,0.0,0.0,0.0,0.0,0.018624920397996902,0.012073865160346031,0.05235503241419792,0.0,0.0,0.0,0.0,0.0,0.0,0.0,0.0,0.0
1606991098542458997,4120909,1606987496649577196,imu_link,0.005138539243489504,0.007395338267087936,0.3953217566013336,0.9184985756874084,0.0,0.0,0.0,0.0,0.0,0.0,0.0,0.0,0.0,46.57825469970703,0.5456051230430603,0.875929057598114,0.0,0.0,0.0,0.0,0.0,0.0,0.0,0.0,0.0,0.0159689299762249,0.0025810967199504375,0.04318372905254364,0.0,0.0,0.0,0.0,0.0,0.0,0.0,0.0,0.0
1606991098542478213,4120910,1606987496649656889,imu_link,0.005138539243489504,0.007395338267087936,0.3953217566013336,0.9184985756874084,0.0,0.0,0.0,0.0,0.0,0.0,0.0,0.0,0.0,46.57825469970703,0.5456051230430603,0.875929057598114,0.0,0.0,0.0,0.0,0.0,0.0,0.0,0.0,0.0,0.0159689299762249,0.0025810967199504375,0.04318372905254364,0.0,0.0,0.0,0.0,0.0,0.0,0.0,0.0,0.0
