%time,field.header.seq,field.header.stamp,field.header.frame_id,field.orientation.x,field.orientation.y,field.orientation.z,field.orientation.w,field.orientation_covariance0,field.orientation_covariance1,field.orientation_covariance2,field.orientation_covariance3,field.orientation_covariance4,field.orientation_covariance5,field.orientation_covariance6,field.orientation_covariance7,field.orientation_covariance8,field.angular_velocity.x,field.angular_velocity.y,field.angular_velocity.z,field.angular_velocity_covariance0,field.angular_velocity_covariance1,field.angular_velocity_covariance2,field.angular_velocity_covariance3,field.angular_velocity_covariance4,field.angular_velocity_covariance5,field.angular_velocity_covariance6,field.angular_velocity_covariance7,field.angular_velocity_covariance8,field.linear_acceleration.x,field.linear_acceleration.y,field.linear_acceleration.z,field.linear_acceleration_covariance0,field.linear_acceleration_covariance1,field.linear_acceleration_covariance2,field.linear_acceleration_covariance3,field.linear_acceleration_covariance4,field.linear_acceleration_covariance5,field.linear_acceleration_covariance6,field.linear_acceleration_covariance7,field.linear_acceleration_covariance8
1606991262444308183,4252987,1606987661752471962,imu_link,0.00612880801782012,0.005208101123571396,0.43050137162208557,0.9025541543960571,0.0,0.0,0.0,0.0,0.0,0.0,0.0,0.0,0.0,51.00236129760742,0.2363036721944809,0.890841007232666,0.0,0.0,0.0,0.0,0.0,0.0,0.0,0.0,0.0,0.024731604382395744,0.0035232682712376118,0.07820428162813187,0.0,0.0,0.0,0.0,0.0,0.0,0.0,0.0,0.0
1606991262444352693,4252988,1606987661752619434,imu_link,0.00612880801782012,0.005208101123571396,0.43050137162208557,0.9025541543960571,0.0,0.0,0.0,0.0,0.0,0.0,0.0,0.0,0.0,51.00236129760742,0.2363036721944809,0.890841007232666,0.0,0.0,0.0,0.0,0.0,0.0,0.0,0.0,0.0,0.024731604382395744,0.0035232682712376118,0.07820428162813187,0.0,0.0,0.0,0.0,0.0,0.0,0.0,0.0,0.0
1606991262444377893,4252989,1606987661752752096,imu_link,0.006128649227321148,0.0052092974074184895,0.4305010437965393,0.9025542736053467,0.0,0.0,0.0,0.0,0.0,0.0,0.0,0.0,0.0,51.002323150634766,0.23643554747104645,0.8908835053443909,0.0,0.0,0.0,0.0,0.0,0.0,0.0,0.0,0.0,0.021168846637010574,0.006017920095473528,0.07194733619689941,0.0,0.0,0.0,0.0,0.0,0.0,0.0,0.0,0.0
1606991262444393999,4252990,1606987661752839904,imu_link,0.006128649227321148,0.0052092974074184895,0.4305010437965393,0.9025542736053467,0.0,0.0,0.0,0.0,0.0,0.0,0.0,0.0,0.0,51.002323150634766,0.23643554747104645,0.8908835053443909,0.0,0.0,0.0,0.0,0.0,0.0,0.0,0.0,0.0,0.021168846637010574,0.006017920095473528,0.07194733619689941,0.0,0.0,0.0,0.0,0.0,0.0,0.0,0.0,0.0
1606991262450245918,4252991,1606987661752922676,imu_link,0.006129051558673382,0.005211872514337301,0.43050044775009155,0.9025545120239258,0.0,0.0,0.0,0.0,0.0,0.0,0.0,0.0,0.0,51.002254486083984,0.23668257892131805,0.8910520672798157,0.0,0.0,0.0,0.0,0.0,0.0,0.0,0.0,0.0,0.01800292730331421,0.00865417905151844,0.061051513999700546,0.0,0.0,0.0,0.0,0.0,0.0,0.0,0.0,0.0
1606991262450332249,4252992,1606987661753019209,imu_link,0.006129051558673382,0.005211872514337301,0.43050044775009155,0.9025545120239258,0.0,0.0,0.0,0.0,0.0,0.0,0.0,0.0,0.0,51.002254486083984,0.23668257892131805,0.8910520672798157,0.0,0.0,0.0,0.0,0.0,0.0,0.0,0.0,0.0,0.01800292730331421,0.00865417905151844,0.061051513999700546,0.0,0.0,0.0,0.0,0.0,0.0,0.0,0.0,0.0
1606991262450381262,4252993,1606987661753101134,imu_link,0.006127720698714256,0.005211580079048872,0.430500328540802,0.9025545716285706,0.0,0.0,0.0,0.0,0.0,0.0,0.0,0.0,0.0,51.00223922729492,0.23671811819076538,0.8908998966217041,0.0,0.0,0.0,0.0,0.0,0.0,0.0,0.0,0.0,0.008969222195446491,0.016252903267741203,0.06728077679872513,0.0,0.0,0.0,0.0,0.0,0.0,0.0,0.0,0.0
1606991262450423804,4252994,1606987661753263920,imu_link,0.006127720698714256,0.005211580079048872,0.430500328540802,0.9025545716285706,0.0,0.0,0.0,0.0,0.0,0.0,0.0,0.0,0.0,51.00223922729492,0.23671811819076538,0.8908998966217041,0.0,0.0,0.0,0.0,0.0,0.0,0.0,0.0,0.0,0.008969222195446491,0.016252903267741203,0.06728077679872513,0.0,0.0,0.0,0.0,0.0,0.0,0.0,0.0,0.0
1606991262584041412,4252995,1606987661753349744,imu_link,0.006128884386271238,0.0052098678424954414,0.43050089478492737,0.9025543332099915,0.0,0.0,0.0,0.0,0.0,0.0,0.0,0.0,0.0,51.0023078918457,0.2364831268787384,0.8909358978271484,0.0,0.0,0.0,0.0,0.0,0.0,0.0,0.0,0.0,-0.036935050040483475,0.01385847944766283,0.06410112231969833,0.0,0.0,0.0,0.0,0.0,0.0,0.0,0.0,0.0
1606991262584101520,4252996,1606987661753426376,imu_link,0.006128884386271238,0.0052098678424954414,0.43050089478492737,0.9025543332099915,0.0,0.0,0.0,0.0,0.0,0.0,0.0,0.0,0.0,51.0023078918457,0.2364831268787384,0.8909358978271484,0.0,0.0,0.0,0.0,0.0,0.0,0.0,0.0,0.0,-0.036935050040483475,0.01385847944766283,0.06410112231969833,0.0,0.0,0.0,0.0,0.0,0.0,0.0,0.0,0.0
1606991262584113267,4252997,1606987661753505504,imu_link,0.006126414518803358,0.005207649897783995,0.4305040240287781,0.9025528430938721,0.0,0.0,0.0,0.0,0.0,0.0,0.0,0.0,0.0,51.00270462036133,0.2363724559545517,0.8905718922615051,0.0,0.0,0.0,0.0,0.0,0.0,0.0,0.0,0.0,-0.04820910468697548,-0.00789677258580923,0.05952570587396622,0.0,0.0,0.0,0.0,0.0,0.0,0.0,0.0,0.0
1606991262584126598,4252998,1606987661765373420,imu_link,0.006126414518803358,0.005207649897783995,0.4305040240287781,0.9025528430938721,0.0,0.0,0.0,0.0,0.0,0.0,0.0,0.0,0.0,51.00270462036133,0.2363724559545517,0.8905718922615051,0.0,0.0,0.0,0.0,0.0,0.0,0.0,0.0,0.0,-0.04820910468697548,-0.00789677258580923,0.05952570587396622,0.0,0.0,0.0,0.0,0.0,0.0,0.0,0.0,0.0
1606991262584140463,4252999,1606987661765507055,imu_link,0.006127065513283014,0.005209680180996656,0.43050384521484375,0.9025529623031616,0.0,0.0,0.0,0.0,0.0,0.0,0.0,0.0,0.0,51.00267791748047,0.2365504950284958,0.8907392621040344,0.0,0.0,0.0,0.0,0.0,0.0,0.0,0.0,0.0,-0.01125449687242508,-0.015744227916002274,0.06724075973033905,0.0,0.0,0.0,0.0,0.0,0.0,0.0,0.0,0.0
1606991262590558294,4253000,1606987661765689888,imu_link,0.006127065513283014,0.005209680180996656,0.43050384521484375,0.9025529623031616,0.0,0.0,0.0,0.0,0.0,0.0,0.0,0.0,0.0,51.00267791748047,0.2365504950284958,0.8907392621040344,0.0,0.0,0.0,0.0,0.0,0.0,0.0,0.0,0.0,-0.01125449687242508,-0.015744227916002274,0.06724075973033905,0.0,0.0,0.0,0.0,0.0,0.0,0.0,0.0,0.0
1606991262590581334,4253001,1606987661765772729,imu_link,0.006131186615675688,0.005208153743296862,0.4305059313774109,0.9025519490242004,0.0,0.0,0.0,0.0,0.0,0.0,0.0,0.0,0.0,51.00293731689453,0.23618729412555695,0.8910906910896301,0.0,0.0,0.0,0.0,0.0,0.0,0.0,0.0,0.0,0.004612968768924475,-0.0003145799273625016,0.051161784678697586,0.0,0.0,0.0,0.0,0.0,0.0,0.0,0.0,0.0
1606991262590596043,4253002,1606987661765858433,imu_link,0.006131186615675688,0.005208153743296862,0.4305059313774109,0.9025519490242004,0.0,0.0,0.0,0.0,0.0,0.0,0.0,0.0,0.0,51.00293731689453,0.23618729412555695,0.8910906910896301,0.0,0.0,0.0,0.0,0.0,0.0,0.0,0.0,0.0,0.004612968768924475,-0.0003145799273625016,0.051161784678697586,0.0,0.0,0.0,0.0,0.0,0.0,0.0,0.0,0.0
1606991262590641624,4253003,1606987661765960805,imu_link,0.00612981803715229,0.0052074259147048,0.4305071234703064,0.9025513529777527,0.0,0.0,0.0,0.0,0.0,0.0,0.0,0.0,0.0,51.00309753417969,0.23617832362651825,0.890913724899292,0.0,0.0,0.0,0.0,0.0,0.0,0.0,0.0,0.0,-0.007183949928730726,0.01013440266251564,0.06203377991914749,0.0,0.0,0.0,0.0,0.0,0.0,0.0,0.0,0.0
1606991262599096556,4253004,1606987661766043586,imu_link,0.00612981803715229,0.0052074259147048,0.4305071234703064,0.9025513529777527,0.0,0.0,0.0,0.0,0.0,0.0,0.0,0.0,0.0,51.00309753417969,0.23617832362651825,0.890913724899292,0.0,0.0,0.0,0.0,0.0,0.0,0.0,0.0,0.0,-0.007183949928730726,0.01013440266251564,0.06203377991914749,0.0,0.0,0.0,0.0,0.0,0.0,0.0,0.0,0.0
1606991262599124040,4253005,1606987661766117658,imu_link,0.006130755413323641,0.005203678738325834,0.4305078387260437,0.902550995349884,0.0,0.0,0.0,0.0,0.0,0.0,0.0,0.0,0.0,51.0031852722168,0.23574377596378326,0.8908258676528931,0.0,0.0,0.0,0.0,0.0,0.0,0.0,0.0,0.0,-0.013371339067816734,0.010873573832213879,0.08414407819509506,0.0,0.0,0.0,0.0,0.0,0.0,0.0,0.0,0.0
1606991262599135383,4253006,1606987661766196415,imu_link,0.006130755413323641,0.005203678738325834,0.4305078387260437,0.902550995349884,0.0,0.0,0.0,0.0,0.0,0.0,0.0,0.0,0.0,51.0031852722168,0.23574377596378326,0.8908258676528931,0.0,0.0,0.0,0.0,0.0,0.0,0.0,0.0,0.0,-0.013371339067816734,0.010873573832213879,0.08414407819509506,0.0,0.0,0.0,0.0,0.0,0.0,0.0,0.0,0.0
1606991262599149699,4253007,1606987661766274616,imu_link,0.006129296496510506,0.0052042556926608086,0.4305080473423004,0.9025509357452393,0.0,0.0,0.0,0.0,0.0,0.0,0.0,0.0,0.0,51.00320816040039,0.23587529361248016,0.8907034993171692,0.0,0.0,0.0,0.0,0.0,0.0,0.0,0.0,0.0,-0.002886211033910513,0.004390898626297712,0.03519701212644577,0.0,0.0,0.0,0.0,0.0,0.0,0.0,0.0,0.0
1606991262599176761,4253008,1606987661779162552,imu_link,0.006129296496510506,0.0052042556926608086,0.4305080473423004,0.9025509357452393,0.0,0.0,0.0,0.0,0.0,0.0,0.0,0.0,0.0,51.00320816040039,0.23587529361248016,0.8907034993171692,0.0,0.0,0.0,0.0,0.0,0.0,0.0,0.0,0.0,-0.002886211033910513,0.004390898626297712,0.03519701212644577,0.0,0.0,0.0,0.0,0.0,0.0,0.0,0.0,0.0
1606991262607080288,4253009,1606987661779302847,imu_link,0.00612962432205677,0.005202682688832283,0.4305085837841034,0.9025506973266602,0.0,0.0,0.0,0.0,0.0,0.0,0.0,0.0,0.0,51.003273010253906,0.23569591343402863,0.8906599283218384,0.0,0.0,0.0,0.0,0.0,0.0,0.0,0.0,0.0,-0.005616620182991028,-0.010180341079831123,0.03672665357589722,0.0,0.0,0.0,0.0,0.0,0.0,0.0,0.0,0.0
1606991262607127081,4253010,1606987661779454228,imu_link,0.00612962432205677,0.005202682688832283,0.4305085837841034,0.9025506973266602,0.0,0.0,0.0,0.0,0.0,0.0,0.0,0.0,0.0,51.003273010253906,0.23569591343402863,0.8906599283218384,0.0,0.0,0.0,0.0,0.0,0.0,0.0,0.0,0.0,-0.005616620182991028,-0.010180341079831123,0.03672665357589722,0.0,0.0,0.0,0.0,0.0,0.0,0.0,0.0,0.0
1606991262607159509,4253011,1606987661779546787,imu_link,0.006132184062153101,0.005203135311603546,0.4305075705051422,0.9025511741638184,0.0,0.0,0.0,0.0,0.0,0.0,0.0,0.0,0.0,51.00314712524414,0.23561741411685944,0.8909467458724976,0.0,0.0,0.0,0.0,0.0,0.0,0.0,0.0,0.0,-0.024204475805163383,-0.023411987349390984,0.051498737186193466,0.0,0.0,0.0,0.0,0.0,0.0,0.0,0.0,0.0
1606991262607178036,4253012,1606987661779635788,imu_link,0.006132184062153101,0.005203135311603546,0.4305075705051422,0.9025511741638184,0.0,0.0,0.0,0.0,0.0,0.0,0.0,0.0,0.0,51.00314712524414,0.23561741411685944,0.8909467458724976,0.0,0.0,0.0,0.0,0.0,0.0,0.0,0.0,0.0,-0.024204475805163383,-0.023411987349390984,0.051498737186193466,0.0,0.0,0.0,0.0,0.0,0.0,0.0,0.0,0.0
1606991262634487459,4253013,1606987661779715718,imu_link,0.006135155912488699,0.0052004544995725155,0.4305077791213989,0.9025510549545288,0.0,0.0,0.0,0.0,0.0,0.0,0.0,0.0,0.0,51.003170013427734,0.23519334197044373,0.8911219239234924,0.0,0.0,0.0,0.0,0.0,0.0,0.0,0.0,0.0,-0.02451954409480095,-0.010915170423686504,0.024281270802021027,0.0,0.0,0.0,0.0,0.0,0.0,0.0,0.0,0.0
1606991262634537306,4253014,1606987661779813719,imu_link,0.006135155912488699,0.0052004544995725155,0.4305077791213989,0.9025510549545288,0.0,0.0,0.0,0.0,0.0,0.0,0.0,0.0,0.0,51.003170013427734,0.23519334197044373,0.8911219239234924,0.0,0.0,0.0,0.0,0.0,0.0,0.0,0.0,0.0,-0.02451954409480095,-0.010915170423686504,0.024281270802021027,0.0,0.0,0.0,0.0,0.0,0.0,0.0,0.0,0.0
1606991262634550294,4253015,1606987661779897148,imu_link,0.006135458126664162,0.005199403502047062,0.4305063486099243,0.9025517702102661,0.0,0.0,0.0,0.0,0.0,0.0,0.0,0.0,0.0,51.002986907958984,0.23507116734981537,0.8911008834838867,0.0,0.0,0.0,0.0,0.0,0.0,0.0,0.0,0.0,-0.0234693493694067,-0.002634959062561393,0.045678332448005676,0.0,0.0,0.0,0.0,0.0,0.0,0.0,0.0,0.0
1606991262634559235,4253016,1606987661780066464,imu_link,0.006135458126664162,0.005199403502047062,0.4305063486099243,0.9025517702102661,0.0,0.0,0.0,0.0,0.0,0.0,0.0,0.0,0.0,51.002986907958984,0.23507116734981537,0.8911008834838867,0.0,0.0,0.0,0.0,0.0,0.0,0.0,0.0,0.0,-0.0234693493694067,-0.002634959062561393,0.045678332448005676,0.0,0.0,0.0,0.0,0.0,0.0,0.0,0.0,0.0
1606991262634568203,4253017,1606987661780148725,imu_link,0.00613659480586648,0.005197587423026562,0.43050602078437805,0.9025519490242004,0.0,0.0,0.0,0.0,0.0,0.0,0.0,0.0,0.0,51.00293731689453,0.23482759296894073,0.8911287188529968,0.0,0.0,0.0,0.0,0.0,0.0,0.0,0.0,0.0,-0.01176992617547512,-0.0030494737438857555,0.06776271015405655,0.0,0.0,0.0,0.0,0.0,0.0,0.0,0.0,0.0
1606991262640159495,4253018,1606987661780225623,imu_link,0.00613659480586648,0.005197587423026562,0.43050602078437805,0.9025519490242004,0.0,0.0,0.0,0.0,0.0,0.0,0.0,0.0,0.0,51.00293731689453,0.23482759296894073,0.8911287188529968,0.0,0.0,0.0,0.0,0.0,0.0,0.0,0.0,0.0,-0.01176992617547512,-0.0030494737438857555,0.06776271015405655,0.0,0.0,0.0,0.0,0.0,0.0,0.0,0.0,0.0
1606991262640179893,4253019,1606987661792440181,imu_link,0.006135782226920128,0.005195437464863062,0.43050554394721985,0.9025521874427795,0.0,0.0,0.0,0.0,0.0,0.0,0.0,0.0,0.0,51.00288009643555,0.2346457690000534,0.8909385204315186,0.0,0.0,0.0,0.0,0.0,0.0,0.0,0.0,0.0,0.009644108824431896,0.0018360731191933155,0.07032014429569244,0.0,0.0,0.0,0.0,0.0,0.0,0.0,0.0,0.0
1606991262640187309,4253020,1606987661792501135,imu_link,0.006135782226920128,0.005195437464863062,0.43050554394721985,0.9025521874427795,0.0,0.0,0.0,0.0,0.0,0.0,0.0,0.0,0.0,51.00288009643555,0.2346457690000534,0.8909385204315186,0.0,0.0,0.0,0.0,0.0,0.0,0.0,0.0,0.0,0.009644108824431896,0.0018360731191933155,0.07032014429569244,0.0,0.0,0.0,0.0,0.0,0.0,0.0,0.0,0.0
1606991262640198781,4253021,1606987661792542547,imu_link,0.006135084200650454,0.005195877980440855,0.43049708008766174,0.9025561809539795,0.0,0.0,0.0,0.0,0.0,0.0,0.0,0.0,0.0,51.00180435180664,0.23473413288593292,0.8908858299255371,0.0,0.0,0.0,0.0,0.0,0.0,0.0,0.0,0.0,-0.0016717886319383979,0.0003311338950879872,0.05532257258892059,0.0,0.0,0.0,0.0,0.0,0.0,0.0,0.0,0.0
1606991262649751629,4253022,1606987661792574179,imu_link,0.006135084200650454,0.005195877980440855,0.43049708008766174,0.9025561809539795,0.0,0.0,0.0,0.0,0.0,0.0,0.0,0.0,0.0,51.00180435180664,0.23473413288593292,0.8908858299255371,0.0,0.0,0.0,0.0,0.0,0.0,0.0,0.0,0.0,-0.0016717886319383979,0.0003311338950879872,0.05532257258892059,0.0,0.0,0.0,0.0,0.0,0.0,0.0,0.0,0.0
1606991262649781620,4253023,1606987661792608129,imu_link,0.006135632283985615,0.005195120815187693,0.4304969012737274,0.902556300163269,0.0,0.0,0.0,0.0,0.0,0.0,0.0,0.0,0.0,51.00178527832031,0.23462899029254913,0.8909052014350891,0.0,0.0,0.0,0.0,0.0,0.0,0.0,0.0,0.0,0.0019251160556450486,-0.0002171840169467032,0.055218975991010666,0.0,0.0,0.0,0.0,0.0,0.0,0.0,0.0,0.0
1606991262649804827,4253024,1606987661792641348,imu_link,0.006135632283985615,0.005195120815187693,0.4304969012737274,0.902556300163269,0.0,0.0,0.0,0.0,0.0,0.0,0.0,0.0,0.0,51.00178527832031,0.23462899029254913,0.8909052014350891,0.0,0.0,0.0,0.0,0.0,0.0,0.0,0.0,0.0,0.0019251160556450486,-0.0002171840169467032,0.055218975991010666,0.0,0.0,0.0,0.0,0.0,0.0,0.0,0.0,0.0
1606991262649812284,4253025,1606987661792679384,imu_link,0.006136197596788406,0.00519641162827611,0.4304869472980499,0.9025610089302063,0.0,0.0,0.0,0.0,0.0,0.0,0.0,0.0,0.0,51.00052261352539,0.2347443848848343,0.8910248279571533,0.0,0.0,0.0,0.0,0.0,0.0,0.0,0.0,0.0,0.020277464762330055,0.005931878462433815,0.0746150091290474,0.0,0.0,0.0,0.0,0.0,0.0,0.0,0.0,0.0
1606991262649838805,4253026,1606987661792711753,imu_link,0.006136197596788406,0.00519641162827611,0.4304869472980499,0.9025610089302063,0.0,0.0,0.0,0.0,0.0,0.0,0.0,0.0,0.0,51.00052261352539,0.2347443848848343,0.8910248279571533,0.0,0.0,0.0,0.0,0.0,0.0,0.0,0.0,0.0,0.020277464762330055,0.005931878462433815,0.0746150091290474,0.0,0.0,0.0,0.0,0.0,0.0,0.0,0.0,0.0
1606991262655707648,4253027,1606987661792742332,imu_link,0.006137098651379347,0.005197145510464907,0.4304862320423126,0.902561366558075,0.0,0.0,0.0,0.0,0.0,0.0,0.0,0.0,0.0,51.00042724609375,0.23477652668952942,0.891153872013092,0.0,0.0,0.0,0.0,0.0,0.0,0.0,0.0,0.0,0.01245823223143816,-5.773920565843582e-05,0.05810485780239105,0.0,0.0,0.0,0.0,0.0,0.0,0.0,0.0,0.0
1606991262655750598,4253028,1606987661792771698,imu_link,0.006137098651379347,0.005197145510464907,0.4304862320423126,0.902561366558075,0.0,0.0,0.0,0.0,0.0,0.0,0.0,0.0,0.0,51.00042724609375,0.23477652668952942,0.891153872013092,0.0,0.0,0.0,0.0,0.0,0.0,0.0,0.0,0.0,0.01245823223143816,-5.773920565843582e-05,0.05810485780239105,0.0,0.0,0.0,0.0,0.0,0.0,0.0,0.0,0.0
1606991262655763631,4253029,1606987661792803962,imu_link,0.006135284900665283,0.005198201630264521,0.4304907023906708,0.902559220790863,0.0,0.0,0.0,0.0,0.0,0.0,0.0,0.0,0.0,51.000999450683594,0.234970822930336,0.8910195827484131,0.0,0.0,0.0,0.0,0.0,0.0,0.0,0.0,0.0,0.007902367040514946,0.0003447695926297456,0.022241000086069107,0.0,0.0,0.0,0.0,0.0,0.0,0.0,0.0,0.0
1606991262655803823,4253030,1606987661806336071,imu_link,0.006135284900665283,0.005198201630264521,0.4304907023906708,0.902559220790863,0.0,0.0,0.0,0.0,0.0,0.0,0.0,0.0,0.0,51.000999450683594,0.234970822930336,0.8910195827484131,0.0,0.0,0.0,0.0,0.0,0.0,0.0,0.0,0.0,0.007902367040514946,0.0003447695926297456,0.022241000086069107,0.0,0.0,0.0,0.0,0.0,0.0,0.0,0.0,0.0
1606991262749045779,4253031,1606987661806427617,imu_link,0.006135454401373863,0.005197856109589338,0.4304906129837036,0.9025592803955078,0.0,0.0,0.0,0.0,0.0,0.0,0.0,0.0,0.0,51.0009880065918,0.23492681980133057,0.8910201191902161,0.0,0.0,0.0,0.0,0.0,0.0,0.0,0.0,0.0,0.010377067141234875,0.013952011242508888,0.025210892781615257,0.0,0.0,0.0,0.0,0.0,0.0,0.0,0.0,0.0
1606991262749062916,4253032,1606987661806515200,imu_link,0.006135454401373863,0.005197856109589338,0.4304906129837036,0.9025592803955078,0.0,0.0,0.0,0.0,0.0,0.0,0.0,0.0,0.0,51.0009880065918,0.23492681980133057,0.8910201191902161,0.0,0.0,0.0,0.0,0.0,0.0,0.0,0.0,0.0,0.010377067141234875,0.013952011242508888,0.025210892781615257,0.0,0.0,0.0,0.0,0.0,0.0,0.0,0.0,0.0
1606991262749068649,4253033,1606987661806570808,imu_link,0.006134353578090668,0.005198115017265081,0.43049126863479614,0.9025589823722839,0.0,0.0,0.0,0.0,0.0,0.0,0.0,0.0,0.0,51.00107192993164,0.23500728607177734,0.8909191489219666,0.0,0.0,0.0,0.0,0.0,0.0,0.0,0.0,0.0,0.016459491103887558,0.01053205318748951,0.0430096760392189,0.0,0.0,0.0,0.0,0.0,0.0,0.0,0.0,0.0
1606991262749081463,4253034,1606987661806626769,imu_link,0.006134353578090668,0.005198115017265081,0.43049126863479614,0.9025589823722839,0.0,0.0,0.0,0.0,0.0,0.0,0.0,0.0,0.0,51.00107192993164,0.23500728607177734,0.8909191489219666,0.0,0.0,0.0,0.0,0.0,0.0,0.0,0.0,0.0,0.016459491103887558,0.01053205318748951,0.0430096760392189,0.0,0.0,0.0,0.0,0.0,0.0,0.0,0.0,0.0
1606991262749088514,4253035,1606987661806689423,imu_link,0.006136007606983185,0.005198617000132799,0.430491179227829,0.9025589823722839,0.0,0.0,0.0,0.0,0.0,0.0,0.0,0.0,0.0,51.001060485839844,0.23497767746448517,0.8911150097846985,0.0,0.0,0.0,0.0,0.0,0.0,0.0,0.0,0.0,0.014058772474527359,-0.004058243706822395,0.04337742179632187,0.0,0.0,0.0,0.0,0.0,0.0,0.0,0.0,0.0
1606991262754746922,4253036,1606987661806741254,imu_link,0.006136007606983185,0.005198617000132799,0.430491179227829,0.9025589823722839,0.0,0.0,0.0,0.0,0.0,0.0,0.0,0.0,0.0,51.001060485839844,0.23497767746448517,0.8911150097846985,0.0,0.0,0.0,0.0,0.0,0.0,0.0,0.0,0.0,0.014058772474527359,-0.004058243706822395,0.04337742179632187,0.0,0.0,0.0,0.0,0.0,0.0,0.0,0.0,0.0
1606991262754770059,4253037,1606987661806792318,imu_link,0.0061361114494502544,0.0052002049051225185,0.4304869771003723,0.9025609493255615,0.0,0.0,0.0,0.0,0.0,0.0,0.0,0.0,0.0,51.00053024291992,0.23514093458652496,0.8912030458450317,0.0,0.0,0.0,0.0,0.0,0.0,0.0,0.0,0.0,0.004978165961802006,-0.013021636754274368,0.049454215914011,0.0,0.0,0.0,0.0,0.0,0.0,0.0,0.0,0.0
1606991262754780859,4253038,1606987661806843116,imu_link,0.0061361114494502544,0.0052002049051225185,0.4304869771003723,0.9025609493255615,0.0,0.0,0.0,0.0,0.0,0.0,0.0,0.0,0.0,51.00053024291992,0.23514093458652496,0.8912030458450317,0.0,0.0,0.0,0.0,0.0,0.0,0.0,0.0,0.0,0.004978165961802006,-0.013021636754274368,0.049454215914011,0.0,0.0,0.0,0.0,0.0,0.0,0.0,0.0,0.0
1606991262754790881,4253039,1606987661806892911,imu_link,0.0061366744339466095,0.005198193248361349,0.4304867684841156,0.9025610685348511,0.0,0.0,0.0,0.0,0.0,0.0,0.0,0.0,0.0,51.0004997253418,0.23490528762340546,0.8911619186401367,0.0,0.0,0.0,0.0,0.0,0.0,0.0,0.0,0.0,0.010961227118968964,-0.016917644068598747,0.050881315022706985,0.0,0.0,0.0,0.0,0.0,0.0,0.0,0.0,0.0
1606991262766411747,4253040,1606987661806965513,imu_link,0.0061366744339466095,0.005198193248361349,0.4304867684841156,0.9025610685348511,0.0,0.0,0.0,0.0,0.0,0.0,0.0,0.0,0.0,51.0004997253418,0.23490528762340546,0.8911619186401367,0.0,0.0,0.0,0.0,0.0,0.0,0.0,0.0,0.0,0.010961227118968964,-0.016917644068598747,0.050881315022706985,0.0,0.0,0.0,0.0,0.0,0.0,0.0,0.0,0.0
1606991262766514106,4253041,1606987661819229871,imu_link,0.006138657685369253,0.0052019949071109295,0.4304831922054291,0.9025627374649048,0.0,0.0,0.0,0.0,0.0,0.0,0.0,0.0,0.0,51.000057220458984,0.23520417511463165,0.8915536999702454,0.0,0.0,0.0,0.0,0.0,0.0,0.0,0.0,0.0,0.01918262243270874,-0.014524325728416443,0.06978418678045273,0.0,0.0,0.0,0.0,0.0,0.0,0.0,0.0,0.0
1606991262766523308,4253042,1606987661819299842,imu_link,0.006138657685369253,0.0052019949071109295,0.4304831922054291,0.9025627374649048,0.0,0.0,0.0,0.0,0.0,0.0,0.0,0.0,0.0,51.000057220458984,0.23520417511463165,0.8915536999702454,0.0,0.0,0.0,0.0,0.0,0.0,0.0,0.0,0.0,0.01918262243270874,-0.014524325728416443,0.06978418678045273,0.0,0.0,0.0,0.0,0.0,0.0,0.0,0.0,0.0
1606991262766534498,4253043,1606987661819419762,imu_link,0.0061370437033474445,0.005202432628720999,0.4304807782173157,0.9025638699531555,0.0,0.0,0.0,0.0,0.0,0.0,0.0,0.0,0.0,50.9997444152832,0.2353314310312271,0.8914077877998352,0.0,0.0,0.0,0.0,0.0,0.0,0.0,0.0,0.0,0.022675922140479088,-0.010065249167382717,0.0863090232014656,0.0,0.0,0.0,0.0,0.0,0.0,0.0,0.0,0.0
1606991262766544989,4253044,1606987661819480860,imu_link,0.0061370437033474445,0.005202432628720999,0.4304807782173157,0.9025638699531555,0.0,0.0,0.0,0.0,0.0,0.0,0.0,0.0,0.0,50.9997444152832,0.2353314310312271,0.8914077877998352,0.0,0.0,0.0,0.0,0.0,0.0,0.0,0.0,0.0,0.022675922140479088,-0.010065249167382717,0.0863090232014656,0.0,0.0,0.0,0.0,0.0,0.0,0.0,0.0,0.0
1606991262775311762,4253045,1606987661819555087,imu_link,0.00613705487921834,0.005205689463764429,0.4304792582988739,0.9025646448135376,0.0,0.0,0.0,0.0,0.0,0.0,0.0,0.0,0.0,50.99955749511719,0.23566924035549164,0.891569197177887,0.0,0.0,0.0,0.0,0.0,0.0,0.0,0.0,0.0,0.017314892262220383,0.007926786318421364,0.06584767997264862,0.0,0.0,0.0,0.0,0.0,0.0,0.0,0.0,0.0
1606991262775344061,4253046,1606987661819620670,imu_link,0.00613705487921834,0.005205689463764429,0.4304792582988739,0.9025646448135376,0.0,0.0,0.0,0.0,0.0,0.0,0.0,0.0,0.0,50.99955749511719,0.23566924035549164,0.891569197177887,0.0,0.0,0.0,0.0,0.0,0.0,0.0,0.0,0.0,0.017314892262220383,0.007926786318421364,0.06584767997264862,0.0,0.0,0.0,0.0,0.0,0.0,0.0,0.0,0.0
1606991262775362439,4253047,1606987661819672828,imu_link,0.0061367047019302845,0.005205451510846615,0.4304800033569336,0.902564287185669,0.0,0.0,0.0,0.0,0.0,0.0,0.0,0.0,0.0,50.99965286254883,0.23566117882728577,0.8915214538574219,0.0,0.0,0.0,0.0,0.0,0.0,0.0,0.0,0.0,0.012709756381809711,0.019157148897647858,0.047627199441194534,0.0,0.0,0.0,0.0,0.0,0.0,0.0,0.0,0.0
1606991262775373986,4253048,1606987661819721852,imu_link,0.0061367047019302845,0.005205451510846615,0.4304800033569336,0.902564287185669,0.0,0.0,0.0,0.0,0.0,0.0,0.0,0.0,0.0,50.99965286254883,0.23566117882728577,0.8915214538574219,0.0,0.0,0.0,0.0,0.0,0.0,0.0,0.0,0.0,0.012709756381809711,0.019157148897647858,0.047627199441194534,0.0,0.0,0.0,0.0,0.0,0.0,0.0,0.0,0.0
1606991262854594032,4253049,1606987661819773234,imu_link,0.006133909337222576,0.005205386783927679,0.4304772615432739,0.902565598487854,0.0,0.0,0.0,0.0,0.0,0.0,0.0,0.0,0.0,50.999298095703125,0.2357950657606125,0.8912283182144165,0.0,0.0,0.0,0.0,0.0,0.0,0.0,0.0,0.0,-0.011637043207883835,0.006580907851457596,0.05518049746751785,0.0,0.0,0.0,0.0,0.0,0.0,0.0,0.0,0.0
1606991262854626009,4253050,1606987661819823164,imu_link,0.006133909337222576,0.005205386783927679,0.4304772615432739,0.902565598487854,0.0,0.0,0.0,0.0,0.0,0.0,0.0,0.0,0.0,50.999298095703125,0.2357950657606125,0.8912283182144165,0.0,0.0,0.0,0.0,0.0,0.0,0.0,0.0,0.0,-0.011637043207883835,0.006580907851457596,0.05518049746751785,0.0,0.0,0.0,0.0,0.0,0.0,0.0,0.0,0.0
1606991262854658444,4253051,1606987661832688563,imu_link,0.006133909337222576,0.005205386783927679,0.4304772615432739,0.902565598487854,0.0,0.0,0.0,0.0,0.0,0.0,0.0,0.0,0.0,50.999298095703125,0.2357950657606125,0.8912283182144165,0.0,0.0,0.0,0.0,0.0,0.0,0.0,0.0,0.0,-0.012881072238087654,-0.005715223960578442,0.05745643004775047,0.0,0.0,0.0,0.0,0.0,0.0,0.0,0.0,0.0
1606991262854669830,4253052,1606987661832779423,imu_link,0.006133909337222576,0.005205386783927679,0.4304772615432739,0.902565598487854,0.0,0.0,0.0,0.0,0.0,0.0,0.0,0.0,0.0,50.999298095703125,0.2357950657606125,0.8912283182144165,0.0,0.0,0.0,0.0,0.0,0.0,0.0,0.0,0.0,-0.012881072238087654,-0.005715223960578442,0.05745643004775047,0.0,0.0,0.0,0.0,0.0,0.0,0.0,0.0,0.0
1606991262854683708,4253053,1606987661832841303,imu_link,0.006134374532848597,0.005203655455261469,0.430478036403656,0.9025652408599854,0.0,0.0,0.0,0.0,0.0,0.0,0.0,0.0,0.0,50.9994010925293,0.2355922907590866,0.8911912441253662,0.0,0.0,0.0,0.0,0.0,0.0,0.0,0.0,0.0,-0.0013635202776640654,-0.015404601581394672,0.05319269001483917,0.0,0.0,0.0,0.0,0.0,0.0,0.0,0.0,0.0
1606991262861655461,4253054,1606987661832893791,imu_link,0.006134374532848597,0.005203655455261469,0.430478036403656,0.9025652408599854,0.0,0.0,0.0,0.0,0.0,0.0,0.0,0.0,0.0,50.9994010925293,0.2355922907590866,0.8911912441253662,0.0,0.0,0.0,0.0,0.0,0.0,0.0,0.0,0.0,-0.0013635202776640654,-0.015404601581394672,0.05319269001483917,0.0,0.0,0.0,0.0,0.0,0.0,0.0,0.0,0.0
1606991262861694859,4253055,1606987661832949066,imu_link,0.006134338211268187,0.005203581415116787,0.43047896027565,0.9025648236274719,0.0,0.0,0.0,0.0,0.0,0.0,0.0,0.0,0.0,50.999515533447266,0.2355855405330658,0.8911840915679932,0.0,0.0,0.0,0.0,0.0,0.0,0.0,0.0,0.0,-0.016416534781455994,-0.018879519775509834,0.04321669787168503,0.0,0.0,0.0,0.0,0.0,0.0,0.0,0.0,0.0
1606991262861713084,4253056,1606987661833004621,imu_link,0.006134338211268187,0.005203581415116787,0.43047896027565,0.9025648236274719,0.0,0.0,0.0,0.0,0.0,0.0,0.0,0.0,0.0,50.999515533447266,0.2355855405330658,0.8911840915679932,0.0,0.0,0.0,0.0,0.0,0.0,0.0,0.0,0.0,-0.016416534781455994,-0.018879519775509834,0.04321669787168503,0.0,0.0,0.0,0.0,0.0,0.0,0.0,0.0,0.0
1606991262861732850,4253057,1606987661833071783,imu_link,0.006136870011687279,0.005203467793762684,0.43047964572906494,0.9025644659996033,0.0,0.0,0.0,0.0,0.0,0.0,0.0,0.0,0.0,50.99959945678711,0.2354482114315033,0.8914405703544617,0.0,0.0,0.0,0.0,0.0,0.0,0.0,0.0,0.0,-0.015850026160478592,-0.012409001588821411,0.022707197815179825,0.0,0.0,0.0,0.0,0.0,0.0,0.0,0.0,0.0
1606991262870762446,4253058,1606987661833130576,imu_link,0.006136870011687279,0.005203467793762684,0.43047964572906494,0.9025644659996033,0.0,0.0,0.0,0.0,0.0,0.0,0.0,0.0,0.0,50.99959945678711,0.2354482114315033,0.8914405703544617,0.0,0.0,0.0,0.0,0.0,0.0,0.0,0.0,0.0,-0.015850026160478592,-0.012409001588821411,0.022707197815179825,0.0,0.0,0.0,0.0,0.0,0.0,0.0,0.0,0.0
1606991262870820114,4253059,1606987661833184294,imu_link,0.006135423202067614,0.005203535780310631,0.4304804801940918,0.9025639891624451,0.0,0.0,0.0,0.0,0.0,0.0,0.0,0.0,0.0,50.99971389770508,0.23552577197551727,0.891294538974762,0.0,0.0,0.0,0.0,0.0,0.0,0.0,0.0,0.0,-0.009829252026975155,0.0067824446596205235,0.02636297233402729,0.0,0.0,0.0,0.0,0.0,0.0,0.0,0.0,0.0
1606991262870835953,4253060,1606987661833241620,imu_link,0.006135423202067614,0.005203535780310631,0.4304804801940918,0.9025639891624451,0.0,0.0,0.0,0.0,0.0,0.0,0.0,0.0,0.0,50.99971389770508,0.23552577197551727,0.891294538974762,0.0,0.0,0.0,0.0,0.0,0.0,0.0,0.0,0.0,-0.009829252026975155,0.0067824446596205235,0.02636297233402729,0.0,0.0,0.0,0.0,0.0,0.0,0.0,0.0,0.0
1606991262870847176,4253061,1606987661833294966,imu_link,0.006133508402854204,0.005203128792345524,0.43048402667045593,0.9025623798370361,0.0,0.0,0.0,0.0,0.0,0.0,0.0,0.0,0.0,51.000160217285156,0.2355746477842331,0.8910773396492004,0.0,0.0,0.0,0.0,0.0,0.0,0.0,0.0,0.0,-0.01216551661491394,0.010437407530844212,0.05515655130147934,0.0,0.0,0.0,0.0,0.0,0.0,0.0,0.0,0.0
1606991262876557582,4253062,1606987661846430446,imu_link,0.006133508402854204,0.005203128792345524,0.43048402667045593,0.9025623798370361,0.0,0.0,0.0,0.0,0.0,0.0,0.0,0.0,0.0,51.000160217285156,0.2355746477842331,0.8910773396492004,0.0,0.0,0.0,0.0,0.0,0.0,0.0,0.0,0.0,-0.01216551661491394,0.010437407530844212,0.05515655130147934,0.0,0.0,0.0,0.0,0.0,0.0,0.0,0.0,0.0
1606991262876593883,4253063,1606987661846520798,imu_link,0.006134348921477795,0.0052053420804440975,0.43048396706581116,0.9025623798370361,0.0,0.0,0.0,0.0,0.0,0.0,0.0,0.0,0.0,51.000152587890625,0.23576216399669647,0.8912734985351562,0.0,0.0,0.0,0.0,0.0,0.0,0.0,0.0,0.0,-0.010101561434566975,-0.0015079508302733302,0.06729140132665634,0.0,0.0,0.0,0.0,0.0,0.0,0.0,0.0,0.0
1606991262876607208,4253064,1606987661846585745,imu_link,0.006134348921477795,0.0052053420804440975,0.43048396706581116,0.9025623798370361,0.0,0.0,0.0,0.0,0.0,0.0,0.0,0.0,0.0,51.000152587890625,0.23576216399669647,0.8912734985351562,0.0,0.0,0.0,0.0,0.0,0.0,0.0,0.0,0.0,-0.010101561434566975,-0.0015079508302733302,0.06729140132665634,0.0,0.0,0.0,0.0,0.0,0.0,0.0,0.0,0.0
1606991262876619450,4253065,1606987661846640078,imu_link,0.006135838106274605,0.00520348222926259,0.43048572540283203,0.9025615453720093,0.0,0.0,0.0,0.0,0.0,0.0,0.0,0.0,0.0,51.00037384033203,0.23549455404281616,0.8913361430168152,0.0,0.0,0.0,0.0,0.0,0.0,0.0,0.0,0.0,-6.682134699076414e-05,-0.016814591363072395,0.049958959221839905,0.0,0.0,0.0,0.0,0.0,0.0,0.0,0.0,0.0
1606991262876639857,4253066,1606987661846695235,imu_link,0.006135838106274605,0.00520348222926259,0.43048572540283203,0.9025615453720093,0.0,0.0,0.0,0.0,0.0,0.0,0.0,0.0,0.0,51.00037384033203,0.23549455404281616,0.8913361430168152,0.0,0.0,0.0,0.0,0.0,0.0,0.0,0.0,0.0,-6.682134699076414e-05,-0.016814591363072395,0.049958959221839905,0.0,0.0,0.0,0.0,0.0,0.0,0.0,0.0,0.0
1606991262957897297,4253067,1606987661846747062,imu_link,0.006137310527265072,0.005201882217079401,0.4304860830307007,0.902561366558075,0.0,0.0,0.0,0.0,0.0,0.0,0.0,0.0,0.0,51.00041961669922,0.23525609076023102,0.8914095759391785,0.0,0.0,0.0,0.0,0.0,0.0,0.0,0.0,0.0,0.00926437508314848,-0.023626208305358887,0.05503632873296738,0.0,0.0,0.0,0.0,0.0,0.0,0.0,0.0,0.0
1606991262957916941,4253068,1606987661846812266,imu_link,0.006137310527265072,0.005201882217079401,0.4304860830307007,0.902561366558075,0.0,0.0,0.0,0.0,0.0,0.0,0.0,0.0,0.0,51.00041961669922,0.23525609076023102,0.8914095759391785,0.0,0.0,0.0,0.0,0.0,0.0,0.0,0.0,0.0,0.00926437508314848,-0.023626208305358887,0.05503632873296738,0.0,0.0,0.0,0.0,0.0,0.0,0.0,0.0,0.0
1606991262957926022,4253069,1606987661846868530,imu_link,0.006141060963273048,0.005205558612942696,0.4304887652397156,0.9025600552558899,0.0,0.0,0.0,0.0,0.0,0.0,0.0,0.0,0.0,51.000762939453125,0.23544864356517792,0.8919795155525208,0.0,0.0,0.0,0.0,0.0,0.0,0.0,0.0,0.0,0.0035222135484218597,-0.008430385030806065,0.04401185363531113,0.0,0.0,0.0,0.0,0.0,0.0,0.0,0.0,0.0
1606991262957939962,4253070,1606987661846921532,imu_link,0.006141060963273048,0.005205558612942696,0.4304887652397156,0.9025600552558899,0.0,0.0,0.0,0.0,0.0,0.0,0.0,0.0,0.0,51.000762939453125,0.23544864356517792,0.8919795155525208,0.0,0.0,0.0,0.0,0.0,0.0,0.0,0.0,0.0,0.0035222135484218597,-0.008430385030806065,0.04401185363531113,0.0,0.0,0.0,0.0,0.0,0.0,0.0,0.0,0.0
1606991262965400890,4253071,1606987661846997598,imu_link,0.006143514066934586,0.0052038636058568954,0.4304887652397156,0.9025600552558899,0.0,0.0,0.0,0.0,0.0,0.0,0.0,0.0,0.0,51.00075912475586,0.23515234887599945,0.8921496272087097,0.0,0.0,0.0,0.0,0.0,0.0,0.0,0.0,0.0,-0.00836730096489191,-0.0012784881982952356,0.04455273225903511,0.0,0.0,0.0,0.0,0.0,0.0,0.0,0.0,0.0
1606991262965457648,4253072,1606987661847053878,imu_link,0.006143514066934586,0.0052038636058568954,0.4304887652397156,0.9025600552558899,0.0,0.0,0.0,0.0,0.0,0.0,0.0,0.0,0.0,51.00075912475586,0.23515234887599945,0.8921496272087097,0.0,0.0,0.0,0.0,0.0,0.0,0.0,0.0,0.0,-0.00836730096489191,-0.0012784881982952356,0.04455273225903511,0.0,0.0,0.0,0.0,0.0,0.0,0.0,0.0,0.0
1606991262965486929,4253073,1606987661859929284,imu_link,0.006144742481410503,0.005204552318900824,0.43049123883247375,0.9025588631629944,0.0,0.0,0.0,0.0,0.0,0.0,0.0,0.0,0.0,51.00107955932617,0.23516054451465607,0.8923113346099854,0.0,0.0,0.0,0.0,0.0,0.0,0.0,0.0,0.0,0.0032021913211792707,-0.0058152880519628525,0.06284741312265396,0.0,0.0,0.0,0.0,0.0,0.0,0.0,0.0,0.0
1606991262965519059,4253074,1606987661860035017,imu_link,0.006144742481410503,0.005204552318900824,0.43049123883247375,0.9025588631629944,0.0,0.0,0.0,0.0,0.0,0.0,0.0,0.0,0.0,51.00107955932617,0.23516054451465607,0.8923113346099854,0.0,0.0,0.0,0.0,0.0,0.0,0.0,0.0,0.0,0.0032021913211792707,-0.0058152880519628525,0.06284741312265396,0.0,0.0,0.0,0.0,0.0,0.0,0.0,0.0,0.0
1606991262965574049,4253075,1606987661860136821,imu_link,0.006143894046545029,0.005205965135246515,0.4304908215999603,0.9025590419769287,0.0,0.0,0.0,0.0,0.0,0.0,0.0,0.0,0.0,51.00102615356445,0.2353489100933075,0.8922932744026184,0.0,0.0,0.0,0.0,0.0,0.0,0.0,0.0,0.0,0.015383455902338028,-0.0059618535451591015,0.0553056076169014,0.0,0.0,0.0,0.0,0.0,0.0,0.0,0.0,0.0
1606991262977942770,4253076,1606987661860202236,imu_link,0.006143894046545029,0.005205965135246515,0.4304908215999603,0.9025590419769287,0.0,0.0,0.0,0.0,0.0,0.0,0.0,0.0,0.0,51.00102615356445,0.2353489100933075,0.8922932744026184,0.0,0.0,0.0,0.0,0.0,0.0,0.0,0.0,0.0,0.015383455902338028,-0.0059618535451591015,0.0553056076169014,0.0,0.0,0.0,0.0,0.0,0.0,0.0,0.0,0.0
1606991262977966358,4253077,1606987661860270847,imu_link,0.006143786478787661,0.005207337439060211,0.43049588799476624,0.9025565981864929,0.0,0.0,0.0,0.0,0.0,0.0,0.0,0.0,0.0,51.00167465209961,0.235491082072258,0.8923511505126953,0.0,0.0,0.0,0.0,0.0,0.0,0.0,0.0,0.0,0.016362277790904045,-0.005923321936279535,0.04628519341349602,0.0,0.0,0.0,0.0,0.0,0.0,0.0,0.0,0.0
1606991262977976661,4253078,1606987661860330292,imu_link,0.006143786478787661,0.005207337439060211,0.43049588799476624,0.9025565981864929,0.0,0.0,0.0,0.0,0.0,0.0,0.0,0.0,0.0,51.00167465209961,0.235491082072258,0.8923511505126953,0.0,0.0,0.0,0.0,0.0,0.0,0.0,0.0,0.0,0.016362277790904045,-0.005923321936279535,0.04628519341349602,0.0,0.0,0.0,0.0,0.0,0.0,0.0,0.0,0.0
1606991262977985509,4253079,1606987661860410093,imu_link,0.006142974831163883,0.005204619839787483,0.4304959177970886,0.9025566577911377,0.0,0.0,0.0,0.0,0.0,0.0,0.0,0.0,0.0,51.00166702270508,0.23525011539459229,0.8921331167221069,0.0,0.0,0.0,0.0,0.0,0.0,0.0,0.0,0.0,-0.0025848194491118193,-0.008213866502046585,0.0635906383395195,0.0,0.0,0.0,0.0,0.0,0.0,0.0,0.0,0.0
1606991262986900559,4253080,1606987661860475785,imu_link,0.006142974831163883,0.005204619839787483,0.4304959177970886,0.9025566577911377,0.0,0.0,0.0,0.0,0.0,0.0,0.0,0.0,0.0,51.00166702270508,0.23525011539459229,0.8921331167221069,0.0,0.0,0.0,0.0,0.0,0.0,0.0,0.0,0.0,-0.0025848194491118193,-0.008213866502046585,0.0635906383395195,0.0,0.0,0.0,0.0,0.0,0.0,0.0,0.0,0.0
1606991262986922344,4253081,1606987661860539613,imu_link,0.006147085223346949,0.005203686188906431,0.4304986298084259,0.9025553464889526,0.0,0.0,0.0,0.0,0.0,0.0,0.0,0.0,0.0,51.002017974853516,0.234948068857193,0.892512857913971,0.0,0.0,0.0,0.0,0.0,0.0,0.0,0.0,0.0,-0.0019916498567909002,0.009325248189270496,0.05659658834338188,0.0,0.0,0.0,0.0,0.0,0.0,0.0,0.0,0.0
1606991262986933836,4253082,1606987661860604860,imu_link,0.006147085223346949,0.005203686188906431,0.4304986298084259,0.9025553464889526,0.0,0.0,0.0,0.0,0.0,0.0,0.0,0.0,0.0,51.002017974853516,0.234948068857193,0.892512857913971,0.0,0.0,0.0,0.0,0.0,0.0,0.0,0.0,0.0,-0.0019916498567909002,0.009325248189270496,0.05659658834338188,0.0,0.0,0.0,0.0,0.0,0.0,0.0,0.0,0.0
1606991262986956100,4253083,1606987661860668363,imu_link,0.0061470153741538525,0.005202815867960453,0.4305001199245453,0.9025546312332153,0.0,0.0,0.0,0.0,0.0,0.0,0.0,0.0,0.0,51.002201080322266,0.23486004769802094,0.8924630284309387,0.0,0.0,0.0,0.0,0.0,0.0,0.0,0.0,0.0,0.007534428033977747,0.01895807683467865,0.03177459537982941,0.0,0.0,0.0,0.0,0.0,0.0,0.0,0.0,0.0
1606991262987002542,4253084,1606987661873912668,imu_link,0.0061470153741538525,0.005202815867960453,0.4305001199245453,0.9025546312332153,0.0,0.0,0.0,0.0,0.0,0.0,0.0,0.0,0.0,51.002201080322266,0.23486004769802094,0.8924630284309387,0.0,0.0,0.0,0.0,0.0,0.0,0.0,0.0,0.0,0.007534428033977747,0.01895807683467865,0.03177459537982941,0.0,0.0,0.0,0.0,0.0,0.0,0.0,0.0,0.0
1606991263091140074,4253085,1606987661874027073,imu_link,0.006145164370536804,0.0052027651108801365,0.43050119280815125,0.9025540947914124,0.0,0.0,0.0,0.0,0.0,0.0,0.0,0.0,0.0,51.00234603881836,0.23494499921798706,0.8922694325447083,0.0,0.0,0.0,0.0,0.0,0.0,0.0,0.0,0.0,0.009643971920013428,0.005839736200869083,0.022125357761979103,0.0,0.0,0.0,0.0,0.0,0.0,0.0,0.0,0.0
1606991263091186876,4253086,1606987661874180059,imu_link,0.006145164370536804,0.0052027651108801365,0.43050119280815125,0.9025540947914124,0.0,0.0,0.0,0.0,0.0,0.0,0.0,0.0,0.0,51.00234603881836,0.23494499921798706,0.8922694325447083,0.0,0.0,0.0,0.0,0.0,0.0,0.0,0.0,0.0,0.009643971920013428,0.005839736200869083,0.022125357761979103,0.0,0.0,0.0,0.0,0.0,0.0,0.0,0.0,0.0
1606991263091206240,4253087,1606987661874262341,imu_link,0.006144057493656874,0.005202192347496748,0.430501252412796,0.9025540947914124,0.0,0.0,0.0,0.0,0.0,0.0,0.0,0.0,0.0,51.002349853515625,0.23494035005569458,0.892126739025116,0.0,0.0,0.0,0.0,0.0,0.0,0.0,0.0,0.0,0.0013437874149531126,-0.005653965286910534,0.04625070095062256,0.0,0.0,0.0,0.0,0.0,0.0,0.0,0.0,0.0
1606991263091218699,4253088,1606987661874362152,imu_link,0.006144057493656874,0.005202192347496748,0.430501252412796,0.9025540947914124,0.0,0.0,0.0,0.0,0.0,0.0,0.0,0.0,0.0,51.002349853515625,0.23494035005569458,0.892126739025116,0.0,0.0,0.0,0.0,0.0,0.0,0.0,0.0,0.0,0.0013437874149531126,-0.005653965286910534,0.04625070095062256,0.0,0.0,0.0,0.0,0.0,0.0,0.0,0.0,0.0
1606991263095128542,4253089,1606987661874448356,imu_link,0.006144165527075529,0.005202782340347767,0.43050163984298706,0.902553915977478,0.0,0.0,0.0,0.0,0.0,0.0,0.0,0.0,0.0,51.00239562988281,0.23499569296836853,0.8921670317649841,0.0,0.0,0.0,0.0,0.0,0.0,0.0,0.0,0.0,-0.014928244054317474,-0.01388214249163866,0.08053722232580185,0.0,0.0,0.0,0.0,0.0,0.0,0.0,0.0,0.0
1606991263095182279,4253090,1606987661874515495,imu_link,0.006144165527075529,0.005202782340347767,0.43050163984298706,0.902553915977478,0.0,0.0,0.0,0.0,0.0,0.0,0.0,0.0,0.0,51.00239562988281,0.23499569296836853,0.8921670317649841,0.0,0.0,0.0,0.0,0.0,0.0,0.0,0.0,0.0,-0.014928244054317474,-0.01388214249163866,0.08053722232580185,0.0,0.0,0.0,0.0,0.0,0.0,0.0,0.0,0.0
1606991263095226622,4253091,1606987661874581788,imu_link,0.006145956926047802,0.005203127861022949,0.4305022656917572,0.9025536179542542,0.0,0.0,0.0,0.0,0.0,0.0,0.0,0.0,0.0,51.00247573852539,0.23494240641593933,0.8923695683479309,0.0,0.0,0.0,0.0,0.0,0.0,0.0,0.0,0.0,0.002862863941118121,-0.010057770647108555,0.07850956171751022,0.0,0.0,0.0,0.0,0.0,0.0,0.0,0.0,0.0
1606991263095265177,4253092,1606987661874647312,imu_link,0.006145956926047802,0.005203127861022949,0.4305022656917572,0.9025536179542542,0.0,0.0,0.0,0.0,0.0,0.0,0.0,0.0,0.0,51.00247573852539,0.23494240641593933,0.8923695683479309,0.0,0.0,0.0,0.0,0.0,0.0,0.0,0.0,0.0,0.002862863941118121,-0.010057770647108555,0.07850956171751022,0.0,0.0,0.0,0.0,0.0,0.0,0.0,0.0,0.0
1606991263095279243,4253093,1606987661874719159,imu_link,0.006146881263703108,0.0052046747878193855,0.4305015802383423,0.902553915977478,0.0,0.0,0.0,0.0,0.0,0.0,0.0,0.0,0.0,51.00238800048828,0.23505747318267822,0.8925413489341736,0.0,0.0,0.0,0.0,0.0,0.0,0.0,0.0,0.0,0.00024459787528030574,-0.004370664246380329,0.07346481084823608,0.0,0.0,0.0,0.0,0.0,0.0,0.0,0.0,0.0
1606991263104025013,4253094,1606987661874788094,imu_link,0.006146881263703108,0.0052046747878193855,0.4305015802383423,0.902553915977478,0.0,0.0,0.0,0.0,0.0,0.0,0.0,0.0,0.0,51.00238800048828,0.23505747318267822,0.8925413489341736,0.0,0.0,0.0,0.0,0.0,0.0,0.0,0.0,0.0,0.00024459787528030574,-0.004370664246380329,0.07346481084823608,0.0,0.0,0.0,0.0,0.0,0.0,0.0,0.0,0.0
1606991263104105379,4253095,1606987661886722610,imu_link,0.006146480794996023,0.0052012368105351925,0.43050163984298706,0.902553915977478,0.0,0.0,0.0,0.0,0.0,0.0,0.0,0.0,0.0,51.00239181518555,0.2347216010093689,0.8923302888870239,0.0,0.0,0.0,0.0,0.0,0.0,0.0,0.0,0.0,-0.0015911126974970102,0.0020310725085437298,0.06344664841890335,0.0,0.0,0.0,0.0,0.0,0.0,0.0,0.0,0.0
1606991263104130771,4253096,1606987661886836858,imu_link,0.006146480794996023,0.0052012368105351925,0.43050163984298706,0.902553915977478,0.0,0.0,0.0,0.0,0.0,0.0,0.0,0.0,0.0,51.00239181518555,0.2347216010093689,0.8923302888870239,0.0,0.0,0.0,0.0,0.0,0.0,0.0,0.0,0.0,-0.0015911126974970102,0.0020310725085437298,0.06344664841890335,0.0,0.0,0.0,0.0,0.0,0.0,0.0,0.0,0.0
1606991263104148889,4253097,1606987661886990213,imu_link,0.006147218402475119,0.0052003515884280205,0.4305042326450348,0.9025526642799377,0.0,0.0,0.0,0.0,0.0,0.0,0.0,0.0,0.0,51.00272750854492,0.2345910519361496,0.8923636078834534,0.0,0.0,0.0,0.0,0.0,0.0,0.0,0.0,0.0,-0.0012616617605090141,0.015439602546393871,0.06009446829557419,0.0,0.0,0.0,0.0,0.0,0.0,0.0,0.0,0.0
1606991263109755614,4253098,1606987661887081640,imu_link,0.006147218402475119,0.0052003515884280205,0.4305042326450348,0.9025526642799377,0.0,0.0,0.0,0.0,0.0,0.0,0.0,0.0,0.0,51.00272750854492,0.2345910519361496,0.8923636078834534,0.0,0.0,0.0,0.0,0.0,0.0,0.0,0.0,0.0,-0.0012616617605090141,0.015439602546393871,0.06009446829557419,0.0,0.0,0.0,0.0,0.0,0.0,0.0,0.0,0.0
1606991263109826049,4253099,1606987661887155055,imu_link,0.006149266380816698,0.005200339946895838,0.43050357699394226,0.9025529623031616,0.0,0.0,0.0,0.0,0.0,0.0,0.0,0.0,0.0,51.00263977050781,0.23448948562145233,0.892574667930603,0.0,0.0,0.0,0.0,0.0,0.0,0.0,0.0,0.0,-0.012510037049651146,0.019128069281578064,0.047892939299345016,0.0,0.0,0.0,0.0,0.0,0.0,0.0,0.0,0.0
1606991263109854819,4253100,1606987661887246867,imu_link,0.006149266380816698,0.005200339946895838,0.43050357699394226,0.9025529623031616,0.0,0.0,0.0,0.0,0.0,0.0,0.0,0.0,0.0,51.00263977050781,0.23448948562145233,0.892574667930603,0.0,0.0,0.0,0.0,0.0,0.0,0.0,0.0,0.0,-0.012510037049651146,0.019128069281578064,0.047892939299345016,0.0,0.0,0.0,0.0,0.0,0.0,0.0,0.0,0.0
1606991263109877099,4253101,1606987661887320500,imu_link,0.006146515719592571,0.0051962751895189285,0.43050235509872437,0.9025536179542542,0.0,0.0,0.0,0.0,0.0,0.0,0.0,0.0,0.0,51.002479553222656,0.23420600593090057,0.8920892477035522,0.0,0.0,0.0,0.0,0.0,0.0,0.0,0.0,0.0,0.006338614504784346,0.012630527839064598,0.04058312252163887,0.0,0.0,0.0,0.0,0.0,0.0,0.0,0.0,0.0
1606991263109899202,4253102,1606987661887395246,imu_link,0.006146515719592571,0.0051962751895189285,0.43050235509872437,0.9025536179542542,0.0,0.0,0.0,0.0,0.0,0.0,0.0,0.0,0.0,51.002479553222656,0.23420600593090057,0.8920892477035522,0.0,0.0,0.0,0.0,0.0,0.0,0.0,0.0,0.0,0.006338614504784346,0.012630527839064598,0.04058312252163887,0.0,0.0,0.0,0.0,0.0,0.0,0.0,0.0,0.0
1606991263193334848,4253103,1606987661887466803,imu_link,0.006147661246359348,0.005197601392865181,0.43050333857536316,0.9025530815124512,0.0,0.0,0.0,0.0,0.0,0.0,0.0,0.0,0.0,51.00260925292969,0.2342856079339981,0.8922734260559082,0.0,0.0,0.0,0.0,0.0,0.0,0.0,0.0,0.0,0.005536148324608803,0.0061607807874679565,0.05457073077559471,0.0,0.0,0.0,0.0,0.0,0.0,0.0,0.0,0.0
1606991263193360281,4253104,1606987661887540232,imu_link,0.006147661246359348,0.005197601392865181,0.43050333857536316,0.9025530815124512,0.0,0.0,0.0,0.0,0.0,0.0,0.0,0.0,0.0,51.00260925292969,0.2342856079339981,0.8922734260559082,0.0,0.0,0.0,0.0,0.0,0.0,0.0,0.0,0.0,0.005536148324608803,0.0061607807874679565,0.05457073077559471,0.0,0.0,0.0,0.0,0.0,0.0,0.0,0.0,0.0
1606991263193372653,4253105,1606987661900233211,imu_link,0.006147093139588833,0.005195423495024443,0.4305020868778229,0.9025536775588989,0.0,0.0,0.0,0.0,0.0,0.0,0.0,0.0,0.0,51.00244903564453,0.2340896725654602,0.8921068906784058,0.0,0.0,0.0,0.0,0.0,0.0,0.0,0.0,0.0,-0.006292896810919046,0.006056181620806456,0.060682687908411026,0.0,0.0,0.0,0.0,0.0,0.0,0.0,0.0,0.0
1606991263193384745,4253106,1606987661900358288,imu_link,0.006147093139588833,0.005195423495024443,0.4305020868778229,0.9025536775588989,0.0,0.0,0.0,0.0,0.0,0.0,0.0,0.0,0.0,51.00244903564453,0.2340896725654602,0.8921068906784058,0.0,0.0,0.0,0.0,0.0,0.0,0.0,0.0,0.0,-0.006292896810919046,0.006056181620806456,0.060682687908411026,0.0,0.0,0.0,0.0,0.0,0.0,0.0,0.0,0.0
1606991263197952933,4253107,1606987661900503878,imu_link,0.006146804895251989,0.005194863770157099,0.4305002689361572,0.9025545716285706,0.0,0.0,0.0,0.0,0.0,0.0,0.0,0.0,0.0,51.00221633911133,0.2340478152036667,0.8920488953590393,0.0,0.0,0.0,0.0,0.0,0.0,0.0,0.0,0.0,0.001690555363893509,0.01214115135371685,0.06888236850500107,0.0,0.0,0.0,0.0,0.0,0.0,0.0,0.0,0.0
1606991263197984336,4253108,1606987661900587156,imu_link,0.006146804895251989,0.005194863770157099,0.4305002689361572,0.9025545716285706,0.0,0.0,0.0,0.0,0.0,0.0,0.0,0.0,0.0,51.00221633911133,0.2340478152036667,0.8920488953590393,0.0,0.0,0.0,0.0,0.0,0.0,0.0,0.0,0.0,0.001690555363893509,0.01214115135371685,0.06888236850500107,0.0,0.0,0.0,0.0,0.0,0.0,0.0,0.0,0.0
1606991263197995268,4253109,1606987661900656686,imu_link,0.006144808605313301,0.0051948074251413345,0.43050244450569153,0.9025535583496094,0.0,0.0,0.0,0.0,0.0,0.0,0.0,0.0,0.0,51.00248718261719,0.23413828015327454,0.8918402791023254,0.0,0.0,0.0,0.0,0.0,0.0,0.0,0.0,0.0,-0.0009412920917384326,0.004680936690419912,0.05976074934005737,0.0,0.0,0.0,0.0,0.0,0.0,0.0,0.0,0.0
1606991263198007557,4253110,1606987661900728443,imu_link,0.006144808605313301,0.0051948074251413345,0.43050244450569153,0.9025535583496094,0.0,0.0,0.0,0.0,0.0,0.0,0.0,0.0,0.0,51.00248718261719,0.23413828015327454,0.8918402791023254,0.0,0.0,0.0,0.0,0.0,0.0,0.0,0.0,0.0,-0.0009412920917384326,0.004680936690419912,0.05976074934005737,0.0,0.0,0.0,0.0,0.0,0.0,0.0,0.0,0.0
1606991263198029482,4253111,1606987661900813514,imu_link,0.0061447895132005215,0.005195072386413813,0.4305005371570587,0.9025545120239258,0.0,0.0,0.0,0.0,0.0,0.0,0.0,0.0,0.0,51.00224685668945,0.23416858911514282,0.8918508887290955,0.0,0.0,0.0,0.0,0.0,0.0,0.0,0.0,0.0,-0.014408519491553307,-0.0012113300617784262,0.05347851663827896,0.0,0.0,0.0,0.0,0.0,0.0,0.0,0.0,0.0
1606991263206746508,4253112,1606987661900885647,imu_link,0.0061447895132005215,0.005195072386413813,0.4305005371570587,0.9025545120239258,0.0,0.0,0.0,0.0,0.0,0.0,0.0,0.0,0.0,51.00224685668945,0.23416858911514282,0.8918508887290955,0.0,0.0,0.0,0.0,0.0,0.0,0.0,0.0,0.0,-0.014408519491553307,-0.0012113300617784262,0.05347851663827896,0.0,0.0,0.0,0.0,0.0,0.0,0.0,0.0,0.0
1606991263206770115,4253113,1606987661901014603,imu_link,0.0061457413248717785,0.005193537101149559,0.4305051565170288,0.9025522470474243,0.0,0.0,0.0,0.0,0.0,0.0,0.0,0.0,0.0,51.00283432006836,0.23395824432373047,0.8918747305870056,0.0,0.0,0.0,0.0,0.0,0.0,0.0,0.0,0.0,-0.024522529914975166,-0.005519135855138302,0.0653352364897728,0.0,0.0,0.0,0.0,0.0,0.0,0.0,0.0,0.0
1606991263206793947,4253114,1606987661901093233,imu_link,0.0061457413248717785,0.005193537101149559,0.4305051565170288,0.9025522470474243,0.0,0.0,0.0,0.0,0.0,0.0,0.0,0.0,0.0,51.00283432006836,0.23395824432373047,0.8918747305870056,0.0,0.0,0.0,0.0,0.0,0.0,0.0,0.0,0.0,-0.024522529914975166,-0.005519135855138302,0.0653352364897728,0.0,0.0,0.0,0.0,0.0,0.0,0.0,0.0,0.0
1606991263206812205,4253115,1606987661901171910,imu_link,0.0061465175822377205,0.005194227676838636,0.43050506711006165,0.9025523066520691,0.0,0.0,0.0,0.0,0.0,0.0,0.0,0.0,0.0,51.00282287597656,0.23399145901203156,0.8919891715049744,0.0,0.0,0.0,0.0,0.0,0.0,0.0,0.0,0.0,-0.013108274899423122,-0.01256505399942398,0.0701146125793457,0.0,0.0,0.0,0.0,0.0,0.0,0.0,0.0,0.0
1606991263211873954,4253116,1606987661914010996,imu_link,0.0061465175822377205,0.005194227676838636,0.43050506711006165,0.9025523066520691,0.0,0.0,0.0,0.0,0.0,0.0,0.0,0.0,0.0,51.00282287597656,0.23399145901203156,0.8919891715049744,0.0,0.0,0.0,0.0,0.0,0.0,0.0,0.0,0.0,-0.013108274899423122,-0.01256505399942398,0.0701146125793457,0.0,0.0,0.0,0.0,0.0,0.0,0.0,0.0,0.0
1606991263211932296,4253117,1606987661914125974,imu_link,0.006149312946945429,0.005193857476115227,0.43050315976142883,0.9025532007217407,0.0,0.0,0.0,0.0,0.0,0.0,0.0,0.0,0.0,51.00257873535156,0.23381713032722473,0.8922595381736755,0.0,0.0,0.0,0.0,0.0,0.0,0.0,0.0,0.0,-0.002437130082398653,-0.009610820561647415,0.0704842358827591,0.0,0.0,0.0,0.0,0.0,0.0,0.0,0.0,0.0
1606991263211954154,4253118,1606987661914274361,imu_link,0.006149312946945429,0.005193857476115227,0.43050315976142883,0.9025532007217407,0.0,0.0,0.0,0.0,0.0,0.0,0.0,0.0,0.0,51.00257873535156,0.23381713032722473,0.8922595381736755,0.0,0.0,0.0,0.0,0.0,0.0,0.0,0.0,0.0,-0.002437130082398653,-0.009610820561647415,0.0704842358827591,0.0,0.0,0.0,0.0,0.0,0.0,0.0,0.0,0.0
1606991263211982823,4253119,1606987661914352871,imu_link,0.0061492458917200565,0.0051919869147241116,0.43050524592399597,0.9025522470474243,0.0,0.0,0.0,0.0,0.0,0.0,0.0,0.0,0.0,51.002838134765625,0.23362495005130768,0.8921608328819275,0.0,0.0,0.0,0.0,0.0,0.0,0.0,0.0,0.0,-0.0021607044618576765,-0.009038888849318027,0.07129862904548645,0.0,0.0,0.0,0.0,0.0,0.0,0.0,0.0,0.0
1606991263211996745,4253120,1606987661914485511,imu_link,0.0061492458917200565,0.0051919869147241116,0.43050524592399597,0.9025522470474243,0.0,0.0,0.0,0.0,0.0,0.0,0.0,0.0,0.0,51.002838134765625,0.23362495005130768,0.8921608328819275,0.0,0.0,0.0,0.0,0.0,0.0,0.0,0.0,0.0,-0.0021607044618576765,-0.009038888849318027,0.07129862904548645,0.0,0.0,0.0,0.0,0.0,0.0,0.0,0.0,0.0
1606991263277585136,4253121,1606987661914562909,imu_link,0.006151651963591576,0.005194195080548525,0.43050235509872437,0.9025536179542542,0.0,0.0,0.0,0.0,0.0,0.0,0.0,0.0,0.0,51.00247573852539,0.23373746871948242,0.8925178647041321,0.0,0.0,0.0,0.0,0.0,0.0,0.0,0.0,0.0,0.00849646795541048,-0.011193409562110901,0.08086220920085907,0.0,0.0,0.0,0.0,0.0,0.0,0.0,0.0,0.0
1606991263277605419,4253122,1606987661914661755,imu_link,0.006151651963591576,0.005194195080548525,0.43050235509872437,0.9025536179542542,0.0,0.0,0.0,0.0,0.0,0.0,0.0,0.0,0.0,51.00247573852539,0.23373746871948242,0.8925178647041321,0.0,0.0,0.0,0.0,0.0,0.0,0.0,0.0,0.0,0.00849646795541048,-0.011193409562110901,0.08086220920085907,0.0,0.0,0.0,0.0,0.0,0.0,0.0,0.0,0.0
1606991263277617451,4253123,1606987661914737865,imu_link,0.006150292698293924,0.005195220932364464,0.4305005371570587,0.902554452419281,0.0,0.0,0.0,0.0,0.0,0.0,0.0,0.0,0.0,51.00225067138672,0.23391243815422058,0.8924273252487183,0.0,0.0,0.0,0.0,0.0,0.0,0.0,0.0,0.0,-0.0012198437470942736,0.007874876260757446,0.07607223093509674,0.0,0.0,0.0,0.0,0.0,0.0,0.0,0.0,0.0
1606991263277632149,4253124,1606987661914810218,imu_link,0.006150292698293924,0.005195220932364464,0.4305005371570587,0.902554452419281,0.0,0.0,0.0,0.0,0.0,0.0,0.0,0.0,0.0,51.00225067138672,0.23391243815422058,0.8924273252487183,0.0,0.0,0.0,0.0,0.0,0.0,0.0,0.0,0.0,-0.0012198437470942736,0.007874876260757446,0.07607223093509674,0.0,0.0,0.0,0.0,0.0,0.0,0.0,0.0,0.0
1606991263282050841,4253125,1606987661914875913,imu_link,0.006149230059236288,0.005194501951336861,0.43050166964530945,0.902553915977478,0.0,0.0,0.0,0.0,0.0,0.0,0.0,0.0,0.0,51.00239181518555,0.23388932645320892,0.8922823071479797,0.0,0.0,0.0,0.0,0.0,0.0,0.0,0.0,0.0,-0.025835875421762466,0.0165109783411026,0.054710619151592255,0.0,0.0,0.0,0.0,0.0,0.0,0.0,0.0,0.0
1606991263282070350,4253126,1606987661914947430,imu_link,0.006149230059236288,0.005194501951336861,0.43050166964530945,0.902553915977478,0.0,0.0,0.0,0.0,0.0,0.0,0.0,0.0,0.0,51.00239181518555,0.23388932645320892,0.8922823071479797,0.0,0.0,0.0,0.0,0.0,0.0,0.0,0.0,0.0,-0.025835875421762466,0.0165109783411026,0.054710619151592255,0.0,0.0,0.0,0.0,0.0,0.0,0.0,0.0,0.0
1606991263282087502,4253127,1606987661927506188,imu_link,0.006149252410978079,0.005196376703679562,0.43050363659858704,0.9025529623031616,0.0,0.0,0.0,0.0,0.0,0.0,0.0,0.0,0.0,51.00264358520508,0.23408018052577972,0.8923776745796204,0.0,0.0,0.0,0.0,0.0,0.0,0.0,0.0,0.0,-0.021416960284113884,0.014823121018707752,0.043492406606674194,0.0,0.0,0.0,0.0,0.0,0.0,0.0,0.0,0.0
1606991263282096861,4253128,1606987661927631856,imu_link,0.006149252410978079,0.005196376703679562,0.43050363659858704,0.9025529623031616,0.0,0.0,0.0,0.0,0.0,0.0,0.0,0.0,0.0,51.00264358520508,0.23408018052577972,0.8923776745796204,0.0,0.0,0.0,0.0,0.0,0.0,0.0,0.0,0.0,-0.021416960284113884,0.014823121018707752,0.043492406606674194,0.0,0.0,0.0,0.0,0.0,0.0,0.0,0.0,0.0
1606991263282111914,4253129,1606987661927786258,imu_link,0.006148844957351685,0.005189773626625538,0.4305035471916199,0.9025530219078064,0.0,0.0,0.0,0.0,0.0,0.0,0.0,0.0,0.0,51.00262451171875,0.23341748118400574,0.8920096158981323,0.0,0.0,0.0,0.0,0.0,0.0,0.0,0.0,0.0,-0.009145068936049938,0.0010599590605124831,0.04687785729765892,0.0,0.0,0.0,0.0,0.0,0.0,0.0,0.0,0.0
1606991263294615661,4253130,1606987661927875687,imu_link,0.006148844957351685,0.005189773626625538,0.4305035471916199,0.9025530219078064,0.0,0.0,0.0,0.0,0.0,0.0,0.0,0.0,0.0,51.00262451171875,0.23341748118400574,0.8920096158981323,0.0,0.0,0.0,0.0,0.0,0.0,0.0,0.0,0.0,-0.009145068936049938,0.0010599590605124831,0.04687785729765892,0.0,0.0,0.0,0.0,0.0,0.0,0.0,0.0,0.0
1606991263294642768,4253131,1606987661927945930,imu_link,0.006148801185190678,0.005190354771912098,0.4305034577846527,0.9025530815124512,0.0,0.0,0.0,0.0,0.0,0.0,0.0,0.0,0.0,51.00261306762695,0.233479842543602,0.8920338153839111,0.0,0.0,0.0,0.0,0.0,0.0,0.0,0.0,0.0,-0.007305521052330732,-0.023513859137892723,0.05879461392760277,0.0,0.0,0.0,0.0,0.0,0.0,0.0,0.0,0.0
1606991263294659739,4253132,1606987661928037599,imu_link,0.006148801185190678,0.005190354771912098,0.4305034577846527,0.9025530815124512,0.0,0.0,0.0,0.0,0.0,0.0,0.0,0.0,0.0,51.00261306762695,0.233479842543602,0.8920338153839111,0.0,0.0,0.0,0.0,0.0,0.0,0.0,0.0,0.0,-0.007305521052330732,-0.023513859137892723,0.05879461392760277,0.0,0.0,0.0,0.0,0.0,0.0,0.0,0.0,0.0
1606991263294673781,4253133,1606987661928112779,imu_link,0.006151851732283831,0.005190968047827482,0.43051210045814514,0.9025489687919617,0.0,0.0,0.0,0.0,0.0,0.0,0.0,0.0,0.0,51.00371170043945,0.23338423669338226,0.8923817873001099,0.0,0.0,0.0,0.0,0.0,0.0,0.0,0.0,0.0,-0.005819073878228664,-0.0074223922565579414,0.06573229283094406,0.0,0.0,0.0,0.0,0.0,0.0,0.0,0.0,0.0
1606991263330176964,4253134,1606987661928211028,imu_link,0.006151851732283831,0.005190968047827482,0.43051210045814514,0.9025489687919617,0.0,0.0,0.0,0.0,0.0,0.0,0.0,0.0,0.0,51.00371170043945,0.23338423669338226,0.8923817873001099,0.0,0.0,0.0,0.0,0.0,0.0,0.0,0.0,0.0,-0.005819073878228664,-0.0074223922565579414,0.06573229283094406,0.0,0.0,0.0,0.0,0.0,0.0,0.0,0.0,0.0
1606991263330216547,4253135,1606987661928308525,imu_link,0.006151818670332432,0.00519019877538085,0.43051230907440186,0.9025487899780273,0.0,0.0,0.0,0.0,0.0,0.0,0.0,0.0,0.0,51.00373840332031,0.23330606520175934,0.8923405408859253,0.0,0.0,0.0,0.0,0.0,0.0,0.0,0.0,0.0,-0.003817094024270773,0.006055079400539398,0.0712742879986763,0.0,0.0,0.0,0.0,0.0,0.0,0.0,0.0,0.0
1606991263330232026,4253136,1606987661928383992,imu_link,0.006151818670332432,0.00519019877538085,0.43051230907440186,0.9025487899780273,0.0,0.0,0.0,0.0,0.0,0.0,0.0,0.0,0.0,51.00373840332031,0.23330606520175934,0.8923405408859253,0.0,0.0,0.0,0.0,0.0,0.0,0.0,0.0,0.0,-0.003817094024270773,0.006055079400539398,0.0712742879986763,0.0,0.0,0.0,0.0,0.0,0.0,0.0,0.0,0.0
1606991263330251398,4253137,1606987661928458120,imu_link,0.006150522269308567,0.005188352894037962,0.4305212199687958,0.9025446176528931,0.0,0.0,0.0,0.0,0.0,0.0,0.0,0.0,0.0,51.00486755371094,0.23317037522792816,0.8921176195144653,0.0,0.0,0.0,0.0,0.0,0.0,0.0,0.0,0.0,-0.00989572238177061,0.001773686846718192,0.07419289648532867,0.0,0.0,0.0,0.0,0.0,0.0,0.0,0.0,0.0
1606991263417057075,4253138,1606987661940430996,imu_link,0.006150522269308567,0.005188352894037962,0.4305212199687958,0.9025446176528931,0.0,0.0,0.0,0.0,0.0,0.0,0.0,0.0,0.0,51.00486755371094,0.23317037522792816,0.8921176195144653,0.0,0.0,0.0,0.0,0.0,0.0,0.0,0.0,0.0,-0.00989572238177061,0.001773686846718192,0.07419289648532867,0.0,0.0,0.0,0.0,0.0,0.0,0.0,0.0,0.0
1606991263417086750,4253139,1606987661940578628,imu_link,0.006151102017611265,0.005189306102693081,0.4305191934108734,0.9025455713272095,0.0,0.0,0.0,0.0,0.0,0.0,0.0,0.0,0.0,51.00461196899414,0.23324233293533325,0.8922240734100342,0.0,0.0,0.0,0.0,0.0,0.0,0.0,0.0,0.0,-0.016802990809082985,0.013696522451937199,0.04777920991182327,0.0,0.0,0.0,0.0,0.0,0.0,0.0,0.0,0.0
1606991263417097619,4253140,1606987661940716712,imu_link,0.006151102017611265,0.005189306102693081,0.4305191934108734,0.9025455713272095,0.0,0.0,0.0,0.0,0.0,0.0,0.0,0.0,0.0,51.00461196899414,0.23324233293533325,0.8922240734100342,0.0,0.0,0.0,0.0,0.0,0.0,0.0,0.0,0.0,-0.016802990809082985,0.013696522451937199,0.04777920991182327,0.0,0.0,0.0,0.0,0.0,0.0,0.0,0.0,0.0
1606991263417109366,4253141,1606987661940812830,imu_link,0.006149060092866421,0.005186578258872032,0.43051907420158386,0.902545690536499,0.0,0.0,0.0,0.0,0.0,0.0,0.0,0.0,0.0,51.00458908081055,0.23306109011173248,0.8918782472610474,0.0,0.0,0.0,0.0,0.0,0.0,0.0,0.0,0.0,-0.021251527592539787,0.024085987359285355,0.04751557111740112,0.0,0.0,0.0,0.0,0.0,0.0,0.0,0.0,0.0
1606991263417137378,4253142,1606987661940922123,imu_link,0.006149060092866421,0.005186578258872032,0.43051907420158386,0.902545690536499,0.0,0.0,0.0,0.0,0.0,0.0,0.0,0.0,0.0,51.00458908081055,0.23306109011173248,0.8918782472610474,0.0,0.0,0.0,0.0,0.0,0.0,0.0,0.0,0.0,-0.021251527592539787,0.024085987359285355,0.04751557111740112,0.0,0.0,0.0,0.0,0.0,0.0,0.0,0.0,0.0
1606991263425267625,4253143,1606987661941030368,imu_link,0.006148879416286945,0.005186581052839756,0.4305197596549988,0.9025453329086304,0.0,0.0,0.0,0.0,0.0,0.0,0.0,0.0,0.0,51.00468063354492,0.23306956887245178,0.8918599486351013,0.0,0.0,0.0,0.0,0.0,0.0,0.0,0.0,0.0,-0.020463846623897552,0.013876035809516907,0.05150912329554558,0.0,0.0,0.0,0.0,0.0,0.0,0.0,0.0,0.0
1606991263425292983,4253144,1606987661941114784,imu_link,0.006148879416286945,0.005186581052839756,0.4305197596549988,0.9025453329086304,0.0,0.0,0.0,0.0,0.0,0.0,0.0,0.0,0.0,51.00468063354492,0.23306956887245178,0.8918599486351013,0.0,0.0,0.0,0.0,0.0,0.0,0.0,0.0,0.0,-0.020463846623897552,0.013876035809516907,0.05150912329554558,0.0,0.0,0.0,0.0,0.0,0.0,0.0,0.0,0.0
1606991263425304375,4253145,1606987661941192418,imu_link,0.006149651017040014,0.005180632695555687,0.43052002787590027,0.9025452733039856,0.0,0.0,0.0,0.0,0.0,0.0,0.0,0.0,0.0,51.004703521728516,0.23241612315177917,0.8916462659835815,0.0,0.0,0.0,0.0,0.0,0.0,0.0,0.0,0.0,-0.0057571823708713055,9.294826304540038e-05,0.04683337360620499,0.0,0.0,0.0,0.0,0.0,0.0,0.0,0.0,0.0
1606991263425315713,4253146,1606987661941273205,imu_link,0.006149651017040014,0.005180632695555687,0.43052002787590027,0.9025452733039856,0.0,0.0,0.0,0.0,0.0,0.0,0.0,0.0,0.0,51.004703521728516,0.23241612315177917,0.8916462659835815,0.0,0.0,0.0,0.0,0.0,0.0,0.0,0.0,0.0,-0.0057571823708713055,9.294826304540038e-05,0.04683337360620499,0.0,0.0,0.0,0.0,0.0,0.0,0.0,0.0,0.0
1606991263438048400,4253147,1606987661941352469,imu_link,0.006150669418275356,0.005181418731808662,0.43051984906196594,0.9025453329086304,0.0,0.0,0.0,0.0,0.0,0.0,0.0,0.0,0.0,51.00468063354492,0.2324473261833191,0.8917903900146484,0.0,0.0,0.0,0.0,0.0,0.0,0.0,0.0,0.0,-0.002594581339508295,-0.0013561486266553402,0.05830574780702591,0.0,0.0,0.0,0.0,0.0,0.0,0.0,0.0,0.0
1606991263438073336,4253148,1606987661954073158,imu_link,0.006150669418275356,0.005181418731808662,0.43051984906196594,0.9025453329086304,0.0,0.0,0.0,0.0,0.0,0.0,0.0,0.0,0.0,51.00468063354492,0.2324473261833191,0.8917903900146484,0.0,0.0,0.0,0.0,0.0,0.0,0.0,0.0,0.0,-0.002594581339508295,-0.0013561486266553402,0.05830574780702591,0.0,0.0,0.0,0.0,0.0,0.0,0.0,0.0,0.0
1606991263438084663,4253149,1606987661954220359,imu_link,0.0061512114480137825,0.005181293934583664,0.43051576614379883,0.902547299861908,0.0,0.0,0.0,0.0,0.0,0.0,0.0,0.0,0.0,51.0041618347168,0.2324117124080658,0.8918390870094299,0.0,0.0,0.0,0.0,0.0,0.0,0.0,0.0,0.0,-0.0108173917979002,0.007723524700850248,0.07662614434957504,0.0,0.0,0.0,0.0,0.0,0.0,0.0,0.0,0.0
1606991263438092620,4253150,1606987661954367810,imu_link,0.0061512114480137825,0.005181293934583664,0.43051576614379883,0.902547299861908,0.0,0.0,0.0,0.0,0.0,0.0,0.0,0.0,0.0,51.0041618347168,0.2324117124080658,0.8918390870094299,0.0,0.0,0.0,0.0,0.0,0.0,0.0,0.0,0.0,-0.0108173917979002,0.007723524700850248,0.07662614434957504,0.0,0.0,0.0,0.0,0.0,0.0,0.0,0.0,0.0
1606991263438111327,4253151,1606987661954458174,imu_link,0.006151731591671705,0.005182814784348011,0.43051522970199585,0.9025474190711975,0.0,0.0,0.0,0.0,0.0,0.0,0.0,0.0,0.0,51.00410842895508,0.23254381120204926,0.8919679522514343,0.0,0.0,0.0,0.0,0.0,0.0,0.0,0.0,0.0,0.01249020453542471,0.016184566542506218,0.08925158530473709,0.0,0.0,0.0,0.0,0.0,0.0,0.0,0.0,0.0
1606991263449352324,4253152,1606987661954537739,imu_link,0.006151731591671705,0.005182814784348011,0.43051522970199585,0.9025474190711975,0.0,0.0,0.0,0.0,0.0,0.0,0.0,0.0,0.0,51.00410842895508,0.23254381120204926,0.8919679522514343,0.0,0.0,0.0,0.0,0.0,0.0,0.0,0.0,0.0,0.01249020453542471,0.016184566542506218,0.08925158530473709,0.0,0.0,0.0,0.0,0.0,0.0,0.0,0.0,0.0
1606991263449375721,4253153,1606987661954621487,imu_link,0.006147962529212236,0.0051824734546244144,0.43051207065582275,0.9025490880012512,0.0,0.0,0.0,0.0,0.0,0.0,0.0,0.0,0.0,51.00368881225586,0.23269765079021454,0.8915603160858154,0.0,0.0,0.0,0.0,0.0,0.0,0.0,0.0,0.0,0.024289526045322418,0.020104046911001205,0.07723037153482437,0.0,0.0,0.0,0.0,0.0,0.0,0.0,0.0,0.0
1606991263449399751,4253154,1606987661954724541,imu_link,0.006147962529212236,0.0051824734546244144,0.43051207065582275,0.9025490880012512,0.0,0.0,0.0,0.0,0.0,0.0,0.0,0.0,0.0,51.00368881225586,0.23269765079021454,0.8915603160858154,0.0,0.0,0.0,0.0,0.0,0.0,0.0,0.0,0.0,0.024289526045322418,0.020104046911001205,0.07723037153482437,0.0,0.0,0.0,0.0,0.0,0.0,0.0,0.0,0.0
1606991263449407995,4253155,1606987661954806696,imu_link,0.006147460080683231,0.005185385700315237,0.4305121600627899,0.9025490283966064,0.0,0.0,0.0,0.0,0.0,0.0,0.0,0.0,0.0,51.00370788574219,0.23302355408668518,0.8916521072387695,0.0,0.0,0.0,0.0,0.0,0.0,0.0,0.0,0.0,0.003900499315932393,0.011792771518230438,0.0633886456489563,0.0,0.0,0.0,0.0,0.0,0.0,0.0,0.0,0.0
1606991263570611304,4253156,1606987661955002489,imu_link,0.006147460080683231,0.005185385700315237,0.4305121600627899,0.9025490283966064,0.0,0.0,0.0,0.0,0.0,0.0,0.0,0.0,0.0,51.00370788574219,0.23302355408668518,0.8916521072387695,0.0,0.0,0.0,0.0,0.0,0.0,0.0,0.0,0.0,0.003900499315932393,0.011792771518230438,0.0633886456489563,0.0,0.0,0.0,0.0,0.0,0.0,0.0,0.0,0.0
1606991263570684947,4253157,1606987661955091435,imu_link,0.006145690102130175,0.0051849475130438805,0.4305095374584198,0.9025502800941467,0.0,0.0,0.0,0.0,0.0,0.0,0.0,0.0,0.0,51.00337600708008,0.23306810855865479,0.8914467096328735,0.0,0.0,0.0,0.0,0.0,0.0,0.0,0.0,0.0,0.004323489498347044,-0.004907587077468634,0.06057903543114662,0.0,0.0,0.0,0.0,0.0,0.0,0.0,0.0,0.0
1606991263570713354,4253158,1606987661955172793,imu_link,0.006145690102130175,0.0051849475130438805,0.4305095374584198,0.9025502800941467,0.0,0.0,0.0,0.0,0.0,0.0,0.0,0.0,0.0,51.00337600708008,0.23306810855865479,0.8914467096328735,0.0,0.0,0.0,0.0,0.0,0.0,0.0,0.0,0.0,0.004323489498347044,-0.004907587077468634,0.06057903543114662,0.0,0.0,0.0,0.0,0.0,0.0,0.0,0.0,0.0
1606991263570750396,4253159,1606987661967637941,imu_link,0.006145131774246693,0.0051841712556779385,0.4305075407028198,0.9025511145591736,0.0,0.0,0.0,0.0,0.0,0.0,0.0,0.0,0.0,51.00312805175781,0.23301728069782257,0.8913503289222717,0.0,0.0,0.0,0.0,0.0,0.0,0.0,0.0,0.0,0.011959320865571499,-0.0041429512202739716,0.062060337513685226,0.0,0.0,0.0,0.0,0.0,0.0,0.0,0.0,0.0
1606991263570776163,4253160,1606987661967782230,imu_link,0.006145131774246693,0.0051841712556779385,0.4305075407028198,0.9025511145591736,0.0,0.0,0.0,0.0,0.0,0.0,0.0,0.0,0.0,51.00312805175781,0.23301728069782257,0.8913503289222717,0.0,0.0,0.0,0.0,0.0,0.0,0.0,0.0,0.0,0.011959320865571499,-0.0041429512202739716,0.062060337513685226,0.0,0.0,0.0,0.0,0.0,0.0,0.0,0.0,0.0
1606991263578336548,4253161,1606987661967894435,imu_link,0.006147091276943684,0.0051873549818992615,0.4305049479007721,0.9025524258613586,0.0,0.0,0.0,0.0,0.0,0.0,0.0,0.0,0.0,51.0027961730957,0.23325249552726746,0.8917093873023987,0.0,0.0,0.0,0.0,0.0,0.0,0.0,0.0,0.0,0.01321020070463419,0.0001355198328383267,0.06249967962503433,0.0,0.0,0.0,0.0,0.0,0.0,0.0,0.0,0.0
1606991263578375218,4253162,1606987661967991665,imu_link,0.006147091276943684,0.0051873549818992615,0.4305049479007721,0.9025524258613586,0.0,0.0,0.0,0.0,0.0,0.0,0.0,0.0,0.0,51.0027961730957,0.23325249552726746,0.8917093873023987,0.0,0.0,0.0,0.0,0.0,0.0,0.0,0.0,0.0,0.01321020070463419,0.0001355198328383267,0.06249967962503433,0.0,0.0,0.0,0.0,0.0,0.0,0.0,0.0,0.0
1606991263578388737,4253163,1606987661968084129,imu_link,0.00614961190149188,0.005185551010072231,0.4305046796798706,0.9025524854660034,0.0,0.0,0.0,0.0,0.0,0.0,0.0,0.0,0.0,51.00276565551758,0.23294182121753693,0.891880989074707,0.0,0.0,0.0,0.0,0.0,0.0,0.0,0.0,0.0,-0.0009980504401028156,-0.0018835033988580108,0.07363556325435638,0.0,0.0,0.0,0.0,0.0,0.0,0.0,0.0,0.0
1606991263578415884,4253164,1606987661968167843,imu_link,0.00614961190149188,0.005185551010072231,0.4305046796798706,0.9025524854660034,0.0,0.0,0.0,0.0,0.0,0.0,0.0,0.0,0.0,51.00276565551758,0.23294182121753693,0.891880989074707,0.0,0.0,0.0,0.0,0.0,0.0,0.0,0.0,0.0,-0.0009980504401028156,-0.0018835033988580108,0.07363556325435638,0.0,0.0,0.0,0.0,0.0,0.0,0.0,0.0,0.0
1606991263587077967,4253165,1606987661968269192,imu_link,0.006149938330054283,0.005183417350053787,0.43049782514572144,0.9025557637214661,0.0,0.0,0.0,0.0,0.0,0.0,0.0,0.0,0.0,51.00189208984375,0.2327118217945099,0.8918076753616333,0.0,0.0,0.0,0.0,0.0,0.0,0.0,0.0,0.0,-0.009236888960003853,0.00015182641800493002,0.07764503359794617,0.0,0.0,0.0,0.0,0.0,0.0,0.0,0.0,0.0
1606991263587172105,4253166,1606987661968352555,imu_link,0.006149938330054283,0.005183417350053787,0.43049782514572144,0.9025557637214661,0.0,0.0,0.0,0.0,0.0,0.0,0.0,0.0,0.0,51.00189208984375,0.2327118217945099,0.8918076753616333,0.0,0.0,0.0,0.0,0.0,0.0,0.0,0.0,0.0,-0.009236888960003853,0.00015182641800493002,0.07764503359794617,0.0,0.0,0.0,0.0,0.0,0.0,0.0,0.0,0.0
1606991263587203770,4253167,1606987661968435447,imu_link,0.006149874534457922,0.005183842033147812,0.4304990768432617,0.9025552272796631,0.0,0.0,0.0,0.0,0.0,0.0,0.0,0.0,0.0,51.002044677734375,0.23275767266750336,0.8918222784996033,0.0,0.0,0.0,0.0,0.0,0.0,0.0,0.0,0.0,0.00768243707716465,-0.00034398131538182497,0.06329815834760666,0.0,0.0,0.0,0.0,0.0,0.0,0.0,0.0,0.0
1606991263587228607,4253168,1606987661968517051,imu_link,0.006149874534457922,0.005183842033147812,0.4304990768432617,0.9025552272796631,0.0,0.0,0.0,0.0,0.0,0.0,0.0,0.0,0.0,51.002044677734375,0.23275767266750336,0.8918222784996033,0.0,0.0,0.0,0.0,0.0,0.0,0.0,0.0,0.0,0.00768243707716465,-0.00034398131538182497,0.06329815834760666,0.0,0.0,0.0,0.0,0.0,0.0,0.0,0.0,0.0
1606991263587306050,4253169,1606987661968605646,imu_link,0.006150137633085251,0.005187359172850847,0.43049266934394836,0.9025582075119019,0.0,0.0,0.0,0.0,0.0,0.0,0.0,0.0,0.0,51.00123977661133,0.23311474919319153,0.8920214176177979,0.0,0.0,0.0,0.0,0.0,0.0,0.0,0.0,0.0,0.004831770434975624,-0.008940823376178741,0.061434656381607056,0.0,0.0,0.0,0.0,0.0,0.0,0.0,0.0,0.0
1606991263594263092,4253170,1606987661981339506,imu_link,0.006150137633085251,0.005187359172850847,0.43049266934394836,0.9025582075119019,0.0,0.0,0.0,0.0,0.0,0.0,0.0,0.0,0.0,51.00123977661133,0.23311474919319153,0.8920214176177979,0.0,0.0,0.0,0.0,0.0,0.0,0.0,0.0,0.0,0.004831770434975624,-0.008940823376178741,0.061434656381607056,0.0,0.0,0.0,0.0,0.0,0.0,0.0,0.0,0.0
1606991263594321807,4253171,1606987661981460897,imu_link,0.006150529254227877,0.005187300033867359,0.4304933249950409,0.902557909488678,0.0,0.0,0.0,0.0,0.0,0.0,0.0,0.0,0.0,51.00132751464844,0.2330886721611023,0.8920592069625854,0.0,0.0,0.0,0.0,0.0,0.0,0.0,0.0,0.0,-0.02621173858642578,-0.016513947397470474,0.0711950734257698,0.0,0.0,0.0,0.0,0.0,0.0,0.0,0.0,0.0
1606991263594347960,4253172,1606987661981550950,imu_link,0.006150529254227877,0.005187300033867359,0.4304933249950409,0.902557909488678,0.0,0.0,0.0,0.0,0.0,0.0,0.0,0.0,0.0,51.00132751464844,0.2330886721611023,0.8920592069625854,0.0,0.0,0.0,0.0,0.0,0.0,0.0,0.0,0.0,-0.02621173858642578,-0.016513947397470474,0.0711950734257698,0.0,0.0,0.0,0.0,0.0,0.0,0.0,0.0,0.0
1606991263594380948,4253173,1606987661981632293,imu_link,0.006155453622341156,0.005186156835407019,0.43049776554107666,0.9025557637214661,0.0,0.0,0.0,0.0,0.0,0.0,0.0,0.0,0.0,51.001888275146484,0.23272307217121124,0.8925133347511292,0.0,0.0,0.0,0.0,0.0,0.0,0.0,0.0,0.0,-0.020960383117198944,-0.017667189240455627,0.037168826907873154,0.0,0.0,0.0,0.0,0.0,0.0,0.0,0.0,0.0
1606991263659032432,4253174,1606987661981730992,imu_link,0.006155453622341156,0.005186156835407019,0.43049776554107666,0.9025557637214661,0.0,0.0,0.0,0.0,0.0,0.0,0.0,0.0,0.0,51.001888275146484,0.23272307217121124,0.8925133347511292,0.0,0.0,0.0,0.0,0.0,0.0,0.0,0.0,0.0,-0.020960383117198944,-0.017667189240455627,0.037168826907873154,0.0,0.0,0.0,0.0,0.0,0.0,0.0,0.0,0.0
1606991263659065459,4253175,1606987661981812866,imu_link,0.0061551425606012344,0.0051860264502465725,0.4304962158203125,0.9025565385818481,0.0,0.0,0.0,0.0,0.0,0.0,0.0,0.0,0.0,51.00168991088867,0.23272648453712463,0.8924742341041565,0.0,0.0,0.0,0.0,0.0,0.0,0.0,0.0,0.0,-0.007630511652678251,0.0006527889054268599,0.028049135580658913,0.0,0.0,0.0,0.0,0.0,0.0,0.0,0.0,0.0
1606991263659080403,4253176,1606987661981954133,imu_link,0.0061551425606012344,0.0051860264502465725,0.4304962158203125,0.9025565385818481,0.0,0.0,0.0,0.0,0.0,0.0,0.0,0.0,0.0,51.00168991088867,0.23272648453712463,0.8924742341041565,0.0,0.0,0.0,0.0,0.0,0.0,0.0,0.0,0.0,-0.007630511652678251,0.0006527889054268599,0.028049135580658913,0.0,0.0,0.0,0.0,0.0,0.0,0.0,0.0,0.0
1606991263659095774,4253177,1606987661982040368,imu_link,0.006152871996164322,0.00518536614254117,0.43050286173820496,0.902553379535675,0.0,0.0,0.0,0.0,0.0,0.0,0.0,0.0,0.0,51.002532958984375,0.23276366293430328,0.8922085165977478,0.0,0.0,0.0,0.0,0.0,0.0,0.0,0.0,0.0,-0.014635387808084488,0.0025957413017749786,0.04943465441465378,0.0,0.0,0.0,0.0,0.0,0.0,0.0,0.0,0.0
1606991263659106085,4253178,1606987661982165322,imu_link,0.006152871996164322,0.00518536614254117,0.43050286173820496,0.902553379535675,0.0,0.0,0.0,0.0,0.0,0.0,0.0,0.0,0.0,51.002532958984375,0.23276366293430328,0.8922085165977478,0.0,0.0,0.0,0.0,0.0,0.0,0.0,0.0,0.0,-0.014635387808084488,0.0025957413017749786,0.04943465441465378,0.0,0.0,0.0,0.0,0.0,0.0,0.0,0.0,0.0
1606991263663268407,4253179,1606987661982248610,imu_link,0.006154563743621111,0.005186545662581921,0.4305034279823303,0.9025530815124512,0.0,0.0,0.0,0.0,0.0,0.0,0.0,0.0,0.0,51.00260543823242,0.232801616191864,0.8924417495727539,0.0,0.0,0.0,0.0,0.0,0.0,0.0,0.0,0.0,-0.016466088593006134,-0.018844198435544968,0.024079209193587303,0.0,0.0,0.0,0.0,0.0,0.0,0.0,0.0,0.0
1606991263663307858,4253180,1606987661982370893,imu_link,0.006154563743621111,0.005186545662581921,0.4305034279823303,0.9025530815124512,0.0,0.0,0.0,0.0,0.0,0.0,0.0,0.0,0.0,51.00260543823242,0.232801616191864,0.8924417495727539,0.0,0.0,0.0,0.0,0.0,0.0,0.0,0.0,0.0,-0.016466088593006134,-0.018844198435544968,0.024079209193587303,0.0,0.0,0.0,0.0,0.0,0.0,0.0,0.0,0.0
1606991263663325153,4253181,1606987661994909000,imu_link,0.006160418968647718,0.005185156594961882,0.43050017952919006,0.9025545716285706,0.0,0.0,0.0,0.0,0.0,0.0,0.0,0.0,0.0,51.00218963623047,0.23237228393554688,0.8929782509803772,0.0,0.0,0.0,0.0,0.0,0.0,0.0,0.0,0.0,-0.028070157393813133,-0.009630491957068443,0.005191527772694826,0.0,0.0,0.0,0.0,0.0,0.0,0.0,0.0,0.0
1606991263663339975,4253182,1606987661995084010,imu_link,0.006160418968647718,0.005185156594961882,0.43050017952919006,0.9025545716285706,0.0,0.0,0.0,0.0,0.0,0.0,0.0,0.0,0.0,51.00218963623047,0.23237228393554688,0.8929782509803772,0.0,0.0,0.0,0.0,0.0,0.0,0.0,0.0,0.0,-0.028070157393813133,-0.009630491957068443,0.005191527772694826,0.0,0.0,0.0,0.0,0.0,0.0,0.0,0.0,0.0
1606991263674473058,4253183,1606987661995186251,imu_link,0.0061613875441253185,0.0051837218925356865,0.43050065636634827,0.9025543928146362,0.0,0.0,0.0,0.0,0.0,0.0,0.0,0.0,0.0,51.00225067138672,0.23217569291591644,0.8930075764656067,0.0,0.0,0.0,0.0,0.0,0.0,0.0,0.0,0.0,-0.018046312034130096,-0.0024277488701045513,0.038017433136701584,0.0,0.0,0.0,0.0,0.0,0.0,0.0,0.0,0.0
1606991263674501438,4253184,1606987661995277488,imu_link,0.0061613875441253185,0.0051837218925356865,0.43050065636634827,0.9025543928146362,0.0,0.0,0.0,0.0,0.0,0.0,0.0,0.0,0.0,51.00225067138672,0.23217569291591644,0.8930075764656067,0.0,0.0,0.0,0.0,0.0,0.0,0.0,0.0,0.0,-0.018046312034130096,-0.0024277488701045513,0.038017433136701584,0.0,0.0,0.0,0.0,0.0,0.0,0.0,0.0,0.0
1606991263674596547,4253185,1606987661995383869,imu_link,0.006162882782518864,0.005184718407690525,0.43049946427345276,0.9025549292564392,0.0,0.0,0.0,0.0,0.0,0.0,0.0,0.0,0.0,51.00210189819336,0.23220613598823547,0.8932111263275146,0.0,0.0,0.0,0.0,0.0,0.0,0.0,0.0,0.0,-0.01179190818220377,-0.005003872327506542,0.05194259062409401,0.0,0.0,0.0,0.0,0.0,0.0,0.0,0.0,0.0
1606991263674613203,4253186,1606987661995483068,imu_link,0.006162882782518864,0.005184718407690525,0.43049946427345276,0.9025549292564392,0.0,0.0,0.0,0.0,0.0,0.0,0.0,0.0,0.0,51.00210189819336,0.23220613598823547,0.8932111263275146,0.0,0.0,0.0,0.0,0.0,0.0,0.0,0.0,0.0,-0.01179190818220377,-0.005003872327506542,0.05194259062409401,0.0,0.0,0.0,0.0,0.0,0.0,0.0,0.0,0.0
1606991263674631405,4253187,1606987661995568601,imu_link,0.006161882542073727,0.0051831575110554695,0.430499792098999,0.9025548100471497,0.0,0.0,0.0,0.0,0.0,0.0,0.0,0.0,0.0,51.00214385986328,0.23209373652935028,0.8930307626724243,0.0,0.0,0.0,0.0,0.0,0.0,0.0,0.0,0.0,-0.01762368530035019,0.00805558729916811,0.042839355766773224,0.0,0.0,0.0,0.0,0.0,0.0,0.0,0.0,0.0
1606991263694728710,4253188,1606987661995647649,imu_link,0.006161882542073727,0.0051831575110554695,0.430499792098999,0.9025548100471497,0.0,0.0,0.0,0.0,0.0,0.0,0.0,0.0,0.0,51.00214385986328,0.23209373652935028,0.8930307626724243,0.0,0.0,0.0,0.0,0.0,0.0,0.0,0.0,0.0,-0.01762368530035019,0.00805558729916811,0.042839355766773224,0.0,0.0,0.0,0.0,0.0,0.0,0.0,0.0,0.0
1606991263694755766,4253189,1606987661995770398,imu_link,0.006161486729979515,0.005180384498089552,0.4305078089237213,0.9025510549545288,0.0,0.0,0.0,0.0,0.0,0.0,0.0,0.0,0.0,51.00315475463867,0.23181860148906708,0.8928550481796265,0.0,0.0,0.0,0.0,0.0,0.0,0.0,0.0,0.0,-0.011547956615686417,0.01657748408615589,0.05714980885386467,0.0,0.0,0.0,0.0,0.0,0.0,0.0,0.0,0.0
1606991263694768482,4253190,1606987661995852604,imu_link,0.006161486729979515,0.005180384498089552,0.4305078089237213,0.9025510549545288,0.0,0.0,0.0,0.0,0.0,0.0,0.0,0.0,0.0,51.00315475463867,0.23181860148906708,0.8928550481796265,0.0,0.0,0.0,0.0,0.0,0.0,0.0,0.0,0.0,-0.011547956615686417,0.01657748408615589,0.05714980885386467,0.0,0.0,0.0,0.0,0.0,0.0,0.0,0.0,0.0
1606991263694784464,4253191,1606987661995983151,imu_link,0.006163056008517742,0.005183011293411255,0.43050694465637207,0.9025514125823975,0.0,0.0,0.0,0.0,0.0,0.0,0.0,0.0,0.0,51.003047943115234,0.23201367259025574,0.8931466937065125,0.0,0.0,0.0,0.0,0.0,0.0,0.0,0.0,0.0,-0.0057493275962769985,0.012133561074733734,0.06378168612718582,0.0,0.0,0.0,0.0,0.0,0.0,0.0,0.0,0.0
1606991263775837604,4253192,1606987662007840793,imu_link,0.006163056008517742,0.005183011293411255,0.43050694465637207,0.9025514125823975,0.0,0.0,0.0,0.0,0.0,0.0,0.0,0.0,0.0,51.003047943115234,0.23201367259025574,0.8931466937065125,0.0,0.0,0.0,0.0,0.0,0.0,0.0,0.0,0.0,-0.0057493275962769985,0.012133561074733734,0.06378168612718582,0.0,0.0,0.0,0.0,0.0,0.0,0.0,0.0,0.0
1606991263775868698,4253193,1606987662008002081,imu_link,0.006161056458950043,0.0051820543594658375,0.43051213026046753,0.9025488495826721,0.0,0.0,0.0,0.0,0.0,0.0,0.0,0.0,0.0,51.00371170043945,0.2320081740617752,0.8928940892219543,0.0,0.0,0.0,0.0,0.0,0.0,0.0,0.0,0.0,0.00816971156746149,0.004036374390125275,0.061723820865154266,0.0,0.0,0.0,0.0,0.0,0.0,0.0,0.0,0.0
1606991263775878294,4253194,1606987662008155401,imu_link,0.006161056458950043,0.0051820543594658375,0.43051213026046753,0.9025488495826721,0.0,0.0,0.0,0.0,0.0,0.0,0.0,0.0,0.0,51.00371170043945,0.2320081740617752,0.8928940892219543,0.0,0.0,0.0,0.0,0.0,0.0,0.0,0.0,0.0,0.00816971156746149,0.004036374390125275,0.061723820865154266,0.0,0.0,0.0,0.0,0.0,0.0,0.0,0.0,0.0
1606991263775885375,4253195,1606987662008239912,imu_link,0.0061609032563865185,0.00518236355856061,0.43051081895828247,0.9025495648384094,0.0,0.0,0.0,0.0,0.0,0.0,0.0,0.0,0.0,51.0035400390625,0.23204904794692993,0.8928931355476379,0.0,0.0,0.0,0.0,0.0,0.0,0.0,0.0,0.0,-0.014393496327102184,-0.011041710153222084,0.0702274814248085,0.0,0.0,0.0,0.0,0.0,0.0,0.0,0.0,0.0
1606991263775891758,4253196,1606987662008393707,imu_link,0.0061609032563865185,0.00518236355856061,0.43051081895828247,0.9025495648384094,0.0,0.0,0.0,0.0,0.0,0.0,0.0,0.0,0.0,51.0035400390625,0.23204904794692993,0.8928931355476379,0.0,0.0,0.0,0.0,0.0,0.0,0.0,0.0,0.0,-0.014393496327102184,-0.011041710153222084,0.0702274814248085,0.0,0.0,0.0,0.0,0.0,0.0,0.0,0.0,0.0
1606991263801741513,4253197,1606987662008507741,imu_link,0.0061629037372767925,0.005182252265512943,0.43050989508628845,0.9025499820709229,0.0,0.0,0.0,0.0,0.0,0.0,0.0,0.0,0.0,51.00342559814453,0.23193973302841187,0.8930943012237549,0.0,0.0,0.0,0.0,0.0,0.0,0.0,0.0,0.0,-0.022427471354603767,-0.014835681766271591,0.07389385253190994,0.0,0.0,0.0,0.0,0.0,0.0,0.0,0.0,0.0
1606991263801790982,4253198,1606987662008590598,imu_link,0.0061629037372767925,0.005182252265512943,0.43050989508628845,0.9025499820709229,0.0,0.0,0.0,0.0,0.0,0.0,0.0,0.0,0.0,51.00342559814453,0.23193973302841187,0.8930943012237549,0.0,0.0,0.0,0.0,0.0,0.0,0.0,0.0,0.0,-0.022427471354603767,-0.014835681766271591,0.07389385253190994,0.0,0.0,0.0,0.0,0.0,0.0,0.0,0.0,0.0
1606991263801803602,4253199,1606987662008714440,imu_link,0.006159523036330938,0.005186106543987989,0.4305086135864258,0.9025505781173706,0.0,0.0,0.0,0.0,0.0,0.0,0.0,0.0,0.0,51.003265380859375,0.2325064092874527,0.8929345607757568,0.0,0.0,0.0,0.0,0.0,0.0,0.0,0.0,0.0,-0.0071009560488164425,0.008171670138835907,0.05272619426250458,0.0,0.0,0.0,0.0,0.0,0.0,0.0,0.0,0.0
1606991263801815985,4253200,1606987662008794395,imu_link,0.006159523036330938,0.005186106543987989,0.4305086135864258,0.9025505781173706,0.0,0.0,0.0,0.0,0.0,0.0,0.0,0.0,0.0,51.003265380859375,0.2325064092874527,0.8929345607757568,0.0,0.0,0.0,0.0,0.0,0.0,0.0,0.0,0.0,-0.0071009560488164425,0.008171670138835907,0.05272619426250458,0.0,0.0,0.0,0.0,0.0,0.0,0.0,0.0,0.0
1606991263812877649,4253201,1606987662008944517,imu_link,0.006158075761049986,0.005183533765375614,0.4305068254470825,0.9025514721870422,0.0,0.0,0.0,0.0,0.0,0.0,0.0,0.0,0.0,51.00303649902344,0.23231348395347595,0.8926573991775513,0.0,0.0,0.0,0.0,0.0,0.0,0.0,0.0,0.0,-0.014165656641125679,0.013156180270016193,0.0518588125705719,0.0,0.0,0.0,0.0,0.0,0.0,0.0,0.0,0.0
1606991263812901970,4253202,1606987662021476575,imu_link,0.006158075761049986,0.005183533765375614,0.4305068254470825,0.9025514721870422,0.0,0.0,0.0,0.0,0.0,0.0,0.0,0.0,0.0,51.00303649902344,0.23231348395347595,0.8926573991775513,0.0,0.0,0.0,0.0,0.0,0.0,0.0,0.0,0.0,-0.014165656641125679,0.013156180270016193,0.0518588125705719,0.0,0.0,0.0,0.0,0.0,0.0,0.0,0.0,0.0
1606991263812915960,4253203,1606987662021522738,imu_link,0.0061597577296197414,0.0051829819567501545,0.43050676584243774,0.902551531791687,0.0,0.0,0.0,0.0,0.0,0.0,0.0,0.0,0.0,51.003021240234375,0.23217356204986572,0.8928040862083435,0.0,0.0,0.0,0.0,0.0,0.0,0.0,0.0,0.0,-0.011448533274233341,0.013629003427922726,0.05642352253198624,0.0,0.0,0.0,0.0,0.0,0.0,0.0,0.0,0.0
1606991263812926765,4253204,1606987662021559380,imu_link,0.0061597577296197414,0.0051829819567501545,0.43050676584243774,0.902551531791687,0.0,0.0,0.0,0.0,0.0,0.0,0.0,0.0,0.0,51.003021240234375,0.23217356204986572,0.8928040862083435,0.0,0.0,0.0,0.0,0.0,0.0,0.0,0.0,0.0,-0.011448533274233341,0.013629003427922726,0.05642352253198624,0.0,0.0,0.0,0.0,0.0,0.0,0.0,0.0,0.0
1606991263818190056,4253205,1606987662021592259,imu_link,0.006157376803457737,0.005181032698601484,0.4305048882961273,0.9025524258613586,0.0,0.0,0.0,0.0,0.0,0.0,0.0,0.0,0.0,51.00278091430664,0.23209123313426971,0.8924611210823059,0.0,0.0,0.0,0.0,0.0,0.0,0.0,0.0,0.0,-0.007488532457500696,0.010966300964355469,0.07093308866024017,0.0,0.0,0.0,0.0,0.0,0.0,0.0,0.0,0.0
1606991263818227912,4253206,1606987662021623799,imu_link,0.006157376803457737,0.005181032698601484,0.4305048882961273,0.9025524258613586,0.0,0.0,0.0,0.0,0.0,0.0,0.0,0.0,0.0,51.00278091430664,0.23209123313426971,0.8924611210823059,0.0,0.0,0.0,0.0,0.0,0.0,0.0,0.0,0.0,-0.007488532457500696,0.010966300964355469,0.07093308866024017,0.0,0.0,0.0,0.0,0.0,0.0,0.0,0.0,0.0
1606991263818249297,4253207,1606987662021655724,imu_link,0.006157038267701864,0.005181255284696817,0.43050417304039,0.9025527834892273,0.0,0.0,0.0,0.0,0.0,0.0,0.0,0.0,0.0,51.002689361572266,0.2321317046880722,0.8924368619918823,0.0,0.0,0.0,0.0,0.0,0.0,0.0,0.0,0.0,-0.0077771954238414764,0.0037397146224975586,0.0686008557677269,0.0,0.0,0.0,0.0,0.0,0.0,0.0,0.0,0.0
1606991263818273377,4253208,1606987662021692912,imu_link,0.006157038267701864,0.005181255284696817,0.43050417304039,0.9025527834892273,0.0,0.0,0.0,0.0,0.0,0.0,0.0,0.0,0.0,51.002689361572266,0.2321317046880722,0.8924368619918823,0.0,0.0,0.0,0.0,0.0,0.0,0.0,0.0,0.0,-0.0077771954238414764,0.0037397146224975586,0.0686008557677269,0.0,0.0,0.0,0.0,0.0,0.0,0.0,0.0,0.0
1606991263818315832,4253209,1606987662021726680,imu_link,0.0061575728468596935,0.005179389379918575,0.4305030405521393,0.9025533199310303,0.0,0.0,0.0,0.0,0.0,0.0,0.0,0.0,0.0,51.00254821777344,0.23191343247890472,0.8923999071121216,0.0,0.0,0.0,0.0,0.0,0.0,0.0,0.0,0.0,-0.020218361169099808,0.0006310900789685547,0.053022466599941254,0.0,0.0,0.0,0.0,0.0,0.0,0.0,0.0,0.0
1606991263875500518,4253210,1606987662021764284,imu_link,0.0061575728468596935,0.005179389379918575,0.4305030405521393,0.9025533199310303,0.0,0.0,0.0,0.0,0.0,0.0,0.0,0.0,0.0,51.00254821777344,0.23191343247890472,0.8923999071121216,0.0,0.0,0.0,0.0,0.0,0.0,0.0,0.0,0.0,-0.020218361169099808,0.0006310900789685547,0.053022466599941254,0.0,0.0,0.0,0.0,0.0,0.0,0.0,0.0,0.0
1606991263875529423,4253211,1606987662021796044,imu_link,0.006155571434646845,0.005177801940590143,0.43050330877304077,0.9025532007217407,0.0,0.0,0.0,0.0,0.0,0.0,0.0,0.0,0.0,51.00257873535156,0.23184774816036224,0.8921146988868713,0.0,0.0,0.0,0.0,0.0,0.0,0.0,0.0,0.0,-0.01568252593278885,-0.01343648973852396,0.05709607154130936,0.0,0.0,0.0,0.0,0.0,0.0,0.0,0.0,0.0
1606991263875538997,4253212,1606987662021826866,imu_link,0.006155571434646845,0.005177801940590143,0.43050330877304077,0.9025532007217407,0.0,0.0,0.0,0.0,0.0,0.0,0.0,0.0,0.0,51.00257873535156,0.23184774816036224,0.8921146988868713,0.0,0.0,0.0,0.0,0.0,0.0,0.0,0.0,0.0,-0.01568252593278885,-0.01343648973852396,0.05709607154130936,0.0,0.0,0.0,0.0,0.0,0.0,0.0,0.0,0.0
1606991263875554132,4253213,1606987662035099762,imu_link,0.006158416625112295,0.005177721381187439,0.43049681186676025,0.902556300163269,0.0,0.0,0.0,0.0,0.0,0.0,0.0,0.0,0.0,51.00175476074219,0.2317054569721222,0.892403244972229,0.0,0.0,0.0,0.0,0.0,0.0,0.0,0.0,0.0,-0.0012323246337473392,-0.008294699713587761,0.04736487567424774,0.0,0.0,0.0,0.0,0.0,0.0,0.0,0.0,0.0
1606991263881867118,4253214,1606987662035180663,imu_link,0.006158416625112295,0.005177721381187439,0.43049681186676025,0.902556300163269,0.0,0.0,0.0,0.0,0.0,0.0,0.0,0.0,0.0,51.00175476074219,0.2317054569721222,0.892403244972229,0.0,0.0,0.0,0.0,0.0,0.0,0.0,0.0,0.0,-0.0012323246337473392,-0.008294699713587761,0.04736487567424774,0.0,0.0,0.0,0.0,0.0,0.0,0.0,0.0,0.0
1606991263881912498,4253215,1606987662035246713,imu_link,0.006159843411296606,0.005179250612854958,0.4304966330528259,0.9025563597679138,0.0,0.0,0.0,0.0,0.0,0.0,0.0,0.0,0.0,51.001731872558594,0.23179341852664948,0.8926262855529785,0.0,0.0,0.0,0.0,0.0,0.0,0.0,0.0,0.0,-0.011957521550357342,-0.0020903360564261675,0.04481078311800957,0.0,0.0,0.0,0.0,0.0,0.0,0.0,0.0,0.0
1606991263881926977,4253216,1606987662035297156,imu_link,0.006159843411296606,0.005179250612854958,0.4304966330528259,0.9025563597679138,0.0,0.0,0.0,0.0,0.0,0.0,0.0,0.0,0.0,51.001731872558594,0.23179341852664948,0.8926262855529785,0.0,0.0,0.0,0.0,0.0,0.0,0.0,0.0,0.0,-0.011957521550357342,-0.0020903360564261675,0.04481078311800957,0.0,0.0,0.0,0.0,0.0,0.0,0.0,0.0,0.0
1606991263881943785,4253217,1606987662035344525,imu_link,0.006160876713693142,0.005177782382816076,0.4304920434951782,0.902558445930481,0.0,0.0,0.0,0.0,0.0,0.0,0.0,0.0,0.0,51.001155853271484,0.23159511387348175,0.892659604549408,0.0,0.0,0.0,0.0,0.0,0.0,0.0,0.0,0.0,-0.013298717327415943,-0.02036241628229618,0.04549355059862137,0.0,0.0,0.0,0.0,0.0,0.0,0.0,0.0,0.0
1606991263881960304,4253218,1606987662035394868,imu_link,0.006160876713693142,0.005177782382816076,0.4304920434951782,0.902558445930481,0.0,0.0,0.0,0.0,0.0,0.0,0.0,0.0,0.0,51.001155853271484,0.23159511387348175,0.892659604549408,0.0,0.0,0.0,0.0,0.0,0.0,0.0,0.0,0.0,-0.013298717327415943,-0.02036241628229618,0.04549355059862137,0.0,0.0,0.0,0.0,0.0,0.0,0.0,0.0,0.0
1606991263938439937,4253219,1606987662035457813,imu_link,0.006160566583275795,0.005176584701985121,0.43049317598342896,0.9025580286979675,0.0,0.0,0.0,0.0,0.0,0.0,0.0,0.0,0.0,51.00128936767578,0.23148547112941742,0.8925685882568359,0.0,0.0,0.0,0.0,0.0,0.0,0.0,0.0,0.0,0.007680876646190882,-0.026273321360349655,0.03941350057721138,0.0,0.0,0.0,0.0,0.0,0.0,0.0,0.0,0.0
1606991263938502690,4253220,1606987662035509341,imu_link,0.006160566583275795,0.005176584701985121,0.43049317598342896,0.9025580286979675,0.0,0.0,0.0,0.0,0.0,0.0,0.0,0.0,0.0,51.00128936767578,0.23148547112941742,0.8925685882568359,0.0,0.0,0.0,0.0,0.0,0.0,0.0,0.0,0.0,0.007680876646190882,-0.026273321360349655,0.03941350057721138,0.0,0.0,0.0,0.0,0.0,0.0,0.0,0.0,0.0
1606991263938524054,4253221,1606987662035559486,imu_link,0.006163568701595068,0.005181256216019392,0.4304952919483185,0.9025569558143616,0.0,0.0,0.0,0.0,0.0,0.0,0.0,0.0,0.0,51.00156784057617,0.23181836307048798,0.8931101560592651,0.0,0.0,0.0,0.0,0.0,0.0,0.0,0.0,0.0,0.0036837239749729633,-0.005589732900261879,0.05405077338218689,0.0,0.0,0.0,0.0,0.0,0.0,0.0,0.0,0.0
1606991263938534384,4253222,1606987662035609860,imu_link,0.006163568701595068,0.005181256216019392,0.4304952919483185,0.9025569558143616,0.0,0.0,0.0,0.0,0.0,0.0,0.0,0.0,0.0,51.00156784057617,0.23181836307048798,0.8931101560592651,0.0,0.0,0.0,0.0,0.0,0.0,0.0,0.0,0.0,0.0036837239749729633,-0.005589732900261879,0.05405077338218689,0.0,0.0,0.0,0.0,0.0,0.0,0.0,0.0,0.0
1606991263945432261,4253223,1606987662035663340,imu_link,0.006161562632769346,0.005180475302040577,0.430494487285614,0.9025573134422302,0.0,0.0,0.0,0.0,0.0,0.0,0.0,0.0,0.0,51.00146484375,0.23183733224868774,0.892863929271698,0.0,0.0,0.0,0.0,0.0,0.0,0.0,0.0,0.0,-0.0027488276828080416,0.008265240117907524,0.054603297263383865,0.0,0.0,0.0,0.0,0.0,0.0,0.0,0.0,0.0
1606991263945461847,4253224,1606987662048901493,imu_link,0.006161562632769346,0.005180475302040577,0.430494487285614,0.9025573134422302,0.0,0.0,0.0,0.0,0.0,0.0,0.0,0.0,0.0,51.00146484375,0.23183733224868774,0.892863929271698,0.0,0.0,0.0,0.0,0.0,0.0,0.0,0.0,0.0,-0.0027488276828080416,0.008265240117907524,0.054603297263383865,0.0,0.0,0.0,0.0,0.0,0.0,0.0,0.0,0.0
1606991263945494588,4253225,1606987662048989354,imu_link,0.006160316988825798,0.005179361905902624,0.43049585819244385,0.9025567173957825,0.0,0.0,0.0,0.0,0.0,0.0,0.0,0.0,0.0,51.00163269042969,0.23178234696388245,0.8926804661750793,0.0,0.0,0.0,0.0,0.0,0.0,0.0,0.0,0.0,0.0009841442806646228,0.012713076546788216,0.056183937937021255,0.0,0.0,0.0,0.0,0.0,0.0,0.0,0.0,0.0
1606991263945508604,4253226,1606987662049049378,imu_link,0.006160316988825798,0.005179361905902624,0.43049585819244385,0.9025567173957825,0.0,0.0,0.0,0.0,0.0,0.0,0.0,0.0,0.0,51.00163269042969,0.23178234696388245,0.8926804661750793,0.0,0.0,0.0,0.0,0.0,0.0,0.0,0.0,0.0,0.0009841442806646228,0.012713076546788216,0.056183937937021255,0.0,0.0,0.0,0.0,0.0,0.0,0.0,0.0,0.0
1606991263945534112,4253227,1606987662049099537,imu_link,0.006161716300994158,0.005180122330784798,0.4304957985877991,0.9025567173957825,0.0,0.0,0.0,0.0,0.0,0.0,0.0,0.0,0.0,51.00163269042969,0.23179200291633606,0.8928626775741577,0.0,0.0,0.0,0.0,0.0,0.0,0.0,0.0,0.0,-0.002550165867432952,0.010876156389713287,0.052196089178323746,0.0,0.0,0.0,0.0,0.0,0.0,0.0,0.0,0.0
1606991264002508354,4253228,1606987662049146970,imu_link,0.006161716300994158,0.005180122330784798,0.4304957985877991,0.9025567173957825,0.0,0.0,0.0,0.0,0.0,0.0,0.0,0.0,0.0,51.00163269042969,0.23179200291633606,0.8928626775741577,0.0,0.0,0.0,0.0,0.0,0.0,0.0,0.0,0.0,-0.002550165867432952,0.010876156389713287,0.052196089178323746,0.0,0.0,0.0,0.0,0.0,0.0,0.0,0.0,0.0
1606991264002522017,4253229,1606987662049195585,imu_link,0.006159748882055283,0.005177678540349007,0.4304983913898468,0.902555525302887,0.0,0.0,0.0,0.0,0.0,0.0,0.0,0.0,0.0,51.001956939697266,0.2316337674856186,0.8925393223762512,0.0,0.0,0.0,0.0,0.0,0.0,0.0,0.0,0.0,-0.005431144963949919,0.0024219315964728594,0.051386259496212006,0.0,0.0,0.0,0.0,0.0,0.0,0.0,0.0,0.0
1606991264002527928,4253230,1606987662049253837,imu_link,0.006159748882055283,0.005177678540349007,0.4304983913898468,0.902555525302887,0.0,0.0,0.0,0.0,0.0,0.0,0.0,0.0,0.0,51.001956939697266,0.2316337674856186,0.8925393223762512,0.0,0.0,0.0,0.0,0.0,0.0,0.0,0.0,0.0,-0.005431144963949919,0.0024219315964728594,0.051386259496212006,0.0,0.0,0.0,0.0,0.0,0.0,0.0,0.0,0.0
1606991264002536808,4253231,1606987662049306373,imu_link,0.0061592403799295425,0.005177160259336233,0.4304984211921692,0.902555525302887,0.0,0.0,0.0,0.0,0.0,0.0,0.0,0.0,0.0,51.001956939697266,0.2316051870584488,0.8924611210823059,0.0,0.0,0.0,0.0,0.0,0.0,0.0,0.0,0.0,-0.004270257893949747,-0.00585469463840127,0.05906538665294647,0.0,0.0,0.0,0.0,0.0,0.0,0.0,0.0,0.0
1606991264034178463,4253232,1606987662049356486,imu_link,0.0061592403799295425,0.005177160259336233,0.4304984211921692,0.902555525302887,0.0,0.0,0.0,0.0,0.0,0.0,0.0,0.0,0.0,51.001956939697266,0.2316051870584488,0.8924611210823059,0.0,0.0,0.0,0.0,0.0,0.0,0.0,0.0,0.0,-0.004270257893949747,-0.00585469463840127,0.05906538665294647,0.0,0.0,0.0,0.0,0.0,0.0,0.0,0.0,0.0
1606991264034194423,4253233,1606987662049410007,imu_link,0.006160452030599117,0.0051794457249343395,0.4305003881454468,0.9025545120239258,0.0,0.0,0.0,0.0,0.0,0.0,0.0,0.0,0.0,51.00221633911133,0.23177984356880188,0.8926998376846313,0.0,0.0,0.0,0.0,0.0,0.0,0.0,0.0,0.0,0.0004393450217321515,-0.009664593264460564,0.05095355212688446,0.0,0.0,0.0,0.0,0.0,0.0,0.0,0.0,0.0
1606991264034208274,4253234,1606987662049521361,imu_link,0.006160452030599117,0.0051794457249343395,0.4305003881454468,0.9025545120239258,0.0,0.0,0.0,0.0,0.0,0.0,0.0,0.0,0.0,51.00221633911133,0.23177984356880188,0.8926998376846313,0.0,0.0,0.0,0.0,0.0,0.0,0.0,0.0,0.0,0.0004393450217321515,-0.009664593264460564,0.05095355212688446,0.0,0.0,0.0,0.0,0.0,0.0,0.0,0.0,0.0
1606991264034214190,4253235,1606987662062261103,imu_link,0.006160019896924496,0.005178633611649275,0.43049952387809753,0.902554988861084,0.0,0.0,0.0,0.0,0.0,0.0,0.0,0.0,0.0,51.002098083496094,0.231718048453331,0.8926148414611816,0.0,0.0,0.0,0.0,0.0,0.0,0.0,0.0,0.0,-0.005465146154165268,-0.005431767553091049,0.06754182279109955,0.0,0.0,0.0,0.0,0.0,0.0,0.0,0.0,0.0
1606991264034221215,4253236,1606987662062365152,imu_link,0.006160019896924496,0.005178633611649275,0.43049952387809753,0.902554988861084,0.0,0.0,0.0,0.0,0.0,0.0,0.0,0.0,0.0,51.002098083496094,0.231718048453331,0.8926148414611816,0.0,0.0,0.0,0.0,0.0,0.0,0.0,0.0,0.0,-0.005465146154165268,-0.005431767553091049,0.06754182279109955,0.0,0.0,0.0,0.0,0.0,0.0,0.0,0.0,0.0
1606991264041900382,4253237,1606987662062467857,imu_link,0.006163695827126503,0.0051780990324914455,0.4304986596107483,0.9025553464889526,0.0,0.0,0.0,0.0,0.0,0.0,0.0,0.0,0.0,51.001991271972656,0.23148225247859955,0.8929684162139893,0.0,0.0,0.0,0.0,0.0,0.0,0.0,0.0,0.0,-0.0032989270985126495,0.005208155140280724,0.05191228166222572,0.0,0.0,0.0,0.0,0.0,0.0,0.0,0.0,0.0
1606991264041937183,4253238,1606987662062534027,imu_link,0.006163695827126503,0.0051780990324914455,0.4304986596107483,0.9025553464889526,0.0,0.0,0.0,0.0,0.0,0.0,0.0,0.0,0.0,51.001991271972656,0.23148225247859955,0.8929684162139893,0.0,0.0,0.0,0.0,0.0,0.0,0.0,0.0,0.0,-0.0032989270985126495,0.005208155140280724,0.05191228166222572,0.0,0.0,0.0,0.0,0.0,0.0,0.0,0.0,0.0
1606991264041948371,4253239,1606987662062606270,imu_link,0.006162999663501978,0.0051774196326732635,0.4304966926574707,0.902556300163269,0.0,0.0,0.0,0.0,0.0,0.0,0.0,0.0,0.0,51.00174331665039,0.23144827783107758,0.8928623199462891,0.0,0.0,0.0,0.0,0.0,0.0,0.0,0.0,0.0,-0.0026105495635420084,0.0005751926219090819,0.04706663265824318,0.0,0.0,0.0,0.0,0.0,0.0,0.0,0.0,0.0
1606991264041977179,4253240,1606987662062689270,imu_link,0.006162999663501978,0.0051774196326732635,0.4304966926574707,0.902556300163269,0.0,0.0,0.0,0.0,0.0,0.0,0.0,0.0,0.0,51.00174331665039,0.23144827783107758,0.8928623199462891,0.0,0.0,0.0,0.0,0.0,0.0,0.0,0.0,0.0,-0.0026105495635420084,0.0005751926219090819,0.04706663265824318,0.0,0.0,0.0,0.0,0.0,0.0,0.0,0.0,0.0
1606991264048474618,4253241,1606987662062755371,imu_link,0.006162402685731649,0.005177067127078772,0.4304991066455841,0.9025551676750183,0.0,0.0,0.0,0.0,0.0,0.0,0.0,0.0,0.0,51.002044677734375,0.23143889009952545,0.8927838206291199,0.0,0.0,0.0,0.0,0.0,0.0,0.0,0.0,0.0,-0.015025247819721699,-0.0020559141412377357,0.053591951727867126,0.0,0.0,0.0,0.0,0.0,0.0,0.0,0.0,0.0
1606991264048510112,4253242,1606987662062821532,imu_link,0.006162402685731649,0.005177067127078772,0.4304991066455841,0.9025551676750183,0.0,0.0,0.0,0.0,0.0,0.0,0.0,0.0,0.0,51.002044677734375,0.23143889009952545,0.8927838206291199,0.0,0.0,0.0,0.0,0.0,0.0,0.0,0.0,0.0,-0.015025247819721699,-0.0020559141412377357,0.053591951727867126,0.0,0.0,0.0,0.0,0.0,0.0,0.0,0.0,0.0
1606991264048522875,4253243,1606987662062886234,imu_link,0.006162301637232304,0.005177367012947798,0.43049970269203186,0.9025548696517944,0.0,0.0,0.0,0.0,0.0,0.0,0.0,0.0,0.0,51.00212097167969,0.23147429525852203,0.8927884101867676,0.0,0.0,0.0,0.0,0.0,0.0,0.0,0.0,0.0,-0.02053217962384224,-0.006722868885844946,0.05908288434147835,0.0,0.0,0.0,0.0,0.0,0.0,0.0,0.0,0.0
1606991264048540200,4253244,1606987662062978187,imu_link,0.006162301637232304,0.005177367012947798,0.43049970269203186,0.9025548696517944,0.0,0.0,0.0,0.0,0.0,0.0,0.0,0.0,0.0,51.00212097167969,0.23147429525852203,0.8927884101867676,0.0,0.0,0.0,0.0,0.0,0.0,0.0,0.0,0.0,-0.02053217962384224,-0.006722868885844946,0.05908288434147835,0.0,0.0,0.0,0.0,0.0,0.0,0.0,0.0,0.0
1606991264048553395,4253245,1606987662063046480,imu_link,0.006164202466607094,0.0051757474429905415,0.4305052161216736,0.9025522470474243,0.0,0.0,0.0,0.0,0.0,0.0,0.0,0.0,0.0,51.0028190612793,0.23120754957199097,0.8929063677787781,0.0,0.0,0.0,0.0,0.0,0.0,0.0,0.0,0.0,-0.010543602518737316,-0.015939276665449142,0.07994338124990463,0.0,0.0,0.0,0.0,0.0,0.0,0.0,0.0,0.0
1606991264120488712,4253246,1606987662075242253,imu_link,0.006164202466607094,0.0051757474429905415,0.4305052161216736,0.9025522470474243,0.0,0.0,0.0,0.0,0.0,0.0,0.0,0.0,0.0,51.0028190612793,0.23120754957199097,0.8929063677787781,0.0,0.0,0.0,0.0,0.0,0.0,0.0,0.0,0.0,-0.010543602518737316,-0.015939276665449142,0.07994338124990463,0.0,0.0,0.0,0.0,0.0,0.0,0.0,0.0,0.0
1606991264120514541,4253247,1606987662075356738,imu_link,0.006162813864648342,0.005174887832254171,0.43050438165664673,0.9025526642799377,0.0,0.0,0.0,0.0,0.0,0.0,0.0,0.0,0.0,51.00271224975586,0.23118798434734344,0.8927201628684998,0.0,0.0,0.0,0.0,0.0,0.0,0.0,0.0,0.0,0.0077189006842672825,0.0030920382123440504,0.05598139762878418,0.0,0.0,0.0,0.0,0.0,0.0,0.0,0.0,0.0
1606991264120531904,4253248,1606987662075435541,imu_link,0.006162813864648342,0.005174887832254171,0.43050438165664673,0.9025526642799377,0.0,0.0,0.0,0.0,0.0,0.0,0.0,0.0,0.0,51.00271224975586,0.23118798434734344,0.8927201628684998,0.0,0.0,0.0,0.0,0.0,0.0,0.0,0.0,0.0,0.0077189006842672825,0.0030920382123440504,0.05598139762878418,0.0,0.0,0.0,0.0,0.0,0.0,0.0,0.0,0.0
1606991264120552700,4253249,1606987662075508269,imu_link,0.00616211025044322,0.005178217310458422,0.4305083751678467,0.9025507569313049,0.0,0.0,0.0,0.0,0.0,0.0,0.0,0.0,0.0,51.00322341918945,0.23156312108039856,0.8928127288818359,0.0,0.0,0.0,0.0,0.0,0.0,0.0,0.0,0.0,0.0034202481620013714,0.006242568604648113,0.044035423547029495,0.0,0.0,0.0,0.0,0.0,0.0,0.0,0.0,0.0
1606991264126665966,4253250,1606987662075587921,imu_link,0.00616211025044322,0.005178217310458422,0.4305083751678467,0.9025507569313049,0.0,0.0,0.0,0.0,0.0,0.0,0.0,0.0,0.0,51.00322341918945,0.23156312108039856,0.8928127288818359,0.0,0.0,0.0,0.0,0.0,0.0,0.0,0.0,0.0,0.0034202481620013714,0.006242568604648113,0.044035423547029495,0.0,0.0,0.0,0.0,0.0,0.0,0.0,0.0,0.0
1606991264126715160,4253251,1606987662075666696,imu_link,0.0061618853360414505,0.005175895057618618,0.43050897121429443,0.902550458908081,0.0,0.0,0.0,0.0,0.0,0.0,0.0,0.0,0.0,51.0032958984375,0.23133344948291779,0.8926750421524048,0.0,0.0,0.0,0.0,0.0,0.0,0.0,0.0,0.0,-0.008720270358026028,-0.0005337988841347396,0.062206510454416275,0.0,0.0,0.0,0.0,0.0,0.0,0.0,0.0,0.0
1606991264126742016,4253252,1606987662075734088,imu_link,0.0061618853360414505,0.005175895057618618,0.43050897121429443,0.902550458908081,0.0,0.0,0.0,0.0,0.0,0.0,0.0,0.0,0.0,51.0032958984375,0.23133344948291779,0.8926750421524048,0.0,0.0,0.0,0.0,0.0,0.0,0.0,0.0,0.0,-0.008720270358026028,-0.0005337988841347396,0.062206510454416275,0.0,0.0,0.0,0.0,0.0,0.0,0.0,0.0,0.0
1606991264126758632,4253253,1606987662075796580,imu_link,0.006162592209875584,0.005174750927835703,0.4305106997489929,0.9025496244430542,0.0,0.0,0.0,0.0,0.0,0.0,0.0,0.0,0.0,51.003517150878906,0.23117852210998535,0.8926921486854553,0.0,0.0,0.0,0.0,0.0,0.0,0.0,0.0,0.0,-0.002903709653764963,0.0006930949748493731,0.059114858508110046,0.0,0.0,0.0,0.0,0.0,0.0,0.0,0.0,0.0
1606991264126768179,4253254,1606987662075895906,imu_link,0.006162592209875584,0.005174750927835703,0.4305106997489929,0.9025496244430542,0.0,0.0,0.0,0.0,0.0,0.0,0.0,0.0,0.0,51.003517150878906,0.23117852210998535,0.8926921486854553,0.0,0.0,0.0,0.0,0.0,0.0,0.0,0.0,0.0,-0.002903709653764963,0.0006930949748493731,0.059114858508110046,0.0,0.0,0.0,0.0,0.0,0.0,0.0,0.0,0.0
1606991264136685558,4253255,1606987662075961438,imu_link,0.006162838079035282,0.005176200997084379,0.43050965666770935,0.9025501012802124,0.0,0.0,0.0,0.0,0.0,0.0,0.0,0.0,0.0,51.00338363647461,0.23131738603115082,0.892788827419281,0.0,0.0,0.0,0.0,0.0,0.0,0.0,0.0,0.0,-0.014249453321099281,0.007159292232245207,0.04258488863706589,0.0,0.0,0.0,0.0,0.0,0.0,0.0,0.0,0.0
1606991264136735324,4253256,1606987662089105832,imu_link,0.006162838079035282,0.005176200997084379,0.43050965666770935,0.9025501012802124,0.0,0.0,0.0,0.0,0.0,0.0,0.0,0.0,0.0,51.00338363647461,0.23131738603115082,0.892788827419281,0.0,0.0,0.0,0.0,0.0,0.0,0.0,0.0,0.0,-0.014249453321099281,0.007159292232245207,0.04258488863706589,0.0,0.0,0.0,0.0,0.0,0.0,0.0,0.0,0.0
1606991264136756526,4253257,1606987662089218665,imu_link,0.006162496283650398,0.005172810982912779,0.43051376938819885,0.9025481939315796,0.0,0.0,0.0,0.0,0.0,0.0,0.0,0.0,0.0,51.00390625,0.2309795618057251,0.8925872445106506,0.0,0.0,0.0,0.0,0.0,0.0,0.0,0.0,0.0,-0.013677037321031094,0.002543119480833411,0.04838201403617859,0.0,0.0,0.0,0.0,0.0,0.0,0.0,0.0,0.0
1606991264136781123,4253258,1606987662089297776,imu_link,0.006162496283650398,0.005172810982912779,0.43051376938819885,0.9025481939315796,0.0,0.0,0.0,0.0,0.0,0.0,0.0,0.0,0.0,51.00390625,0.2309795618057251,0.8925872445106506,0.0,0.0,0.0,0.0,0.0,0.0,0.0,0.0,0.0,-0.013677037321031094,0.002543119480833411,0.04838201403617859,0.0,0.0,0.0,0.0,0.0,0.0,0.0,0.0,0.0
1606991264173626053,4253259,1606987662089371066,imu_link,0.006162620149552822,0.005172000266611576,0.43051472306251526,0.9025477170944214,0.0,0.0,0.0,0.0,0.0,0.0,0.0,0.0,0.0,51.004024505615234,0.23088863492012024,0.8925604224205017,0.0,0.0,0.0,0.0,0.0,0.0,0.0,0.0,0.0,0.0005150290671736002,0.006643599830567837,0.05922860652208328,0.0,0.0,0.0,0.0,0.0,0.0,0.0,0.0,0.0
1606991264173693456,4253260,1606987662089451263,imu_link,0.006162620149552822,0.005172000266611576,0.43051472306251526,0.9025477170944214,0.0,0.0,0.0,0.0,0.0,0.0,0.0,0.0,0.0,51.004024505615234,0.23088863492012024,0.8925604224205017,0.0,0.0,0.0,0.0,0.0,0.0,0.0,0.0,0.0,0.0005150290671736002,0.006643599830567837,0.05922860652208328,0.0,0.0,0.0,0.0,0.0,0.0,0.0,0.0,0.0
1606991264173721827,4253261,1606987662089522360,imu_link,0.0061599272303283215,0.005172213073819876,0.43051594495773315,0.9025471806526184,0.0,0.0,0.0,0.0,0.0,0.0,0.0,0.0,0.0,51.00417709350586,0.23104234039783478,0.8922926783561707,0.0,0.0,0.0,0.0,0.0,0.0,0.0,0.0,0.0,-0.004492106381803751,0.021490445360541344,0.060834258794784546,0.0,0.0,0.0,0.0,0.0,0.0,0.0,0.0,0.0
1606991264173742203,4253262,1606987662089640762,imu_link,0.0061599272303283215,0.005172213073819876,0.43051594495773315,0.9025471806526184,0.0,0.0,0.0,0.0,0.0,0.0,0.0,0.0,0.0,51.00417709350586,0.23104234039783478,0.8922926783561707,0.0,0.0,0.0,0.0,0.0,0.0,0.0,0.0,0.0,-0.004492106381803751,0.021490445360541344,0.060834258794784546,0.0,0.0,0.0,0.0,0.0,0.0,0.0,0.0,0.0
1606991264173766026,4253263,1606987662089707785,imu_link,0.00615945877507329,0.0051727392710745335,0.4305168092250824,0.9025467038154602,0.0,0.0,0.0,0.0,0.0,0.0,0.0,0.0,0.0,51.0042839050293,0.23111894726753235,0.8922703862190247,0.0,0.0,0.0,0.0,0.0,0.0,0.0,0.0,0.0,-0.004493004642426968,0.015941962599754333,0.05131211131811142,0.0,0.0,0.0,0.0,0.0,0.0,0.0,0.0,0.0
1606991264220443855,4253264,1606987662089813437,imu_link,0.00615945877507329,0.0051727392710745335,0.4305168092250824,0.9025467038154602,0.0,0.0,0.0,0.0,0.0,0.0,0.0,0.0,0.0,51.0042839050293,0.23111894726753235,0.8922703862190247,0.0,0.0,0.0,0.0,0.0,0.0,0.0,0.0,0.0,-0.004493004642426968,0.015941962599754333,0.05131211131811142,0.0,0.0,0.0,0.0,0.0,0.0,0.0,0.0,0.0
1606991264220463778,4253265,1606987662089879703,imu_link,0.00615686597302556,0.005170739255845547,0.43051856756210327,0.9025459289550781,0.0,0.0,0.0,0.0,0.0,0.0,0.0,0.0,0.0,51.00450897216797,0.23103831708431244,0.8919040560722351,0.0,0.0,0.0,0.0,0.0,0.0,0.0,0.0,0.0,-0.005492610856890678,0.010067413561046124,0.035996757447719574,0.0,0.0,0.0,0.0,0.0,0.0,0.0,0.0,0.0
1606991264220475119,4253266,1606987662089944200,imu_link,0.00615686597302556,0.005170739255845547,0.43051856756210327,0.9025459289550781,0.0,0.0,0.0,0.0,0.0,0.0,0.0,0.0,0.0,51.00450897216797,0.23103831708431244,0.8919040560722351,0.0,0.0,0.0,0.0,0.0,0.0,0.0,0.0,0.0,-0.005492610856890678,0.010067413561046124,0.035996757447719574,0.0,0.0,0.0,0.0,0.0,0.0,0.0,0.0,0.0
1606991264220505569,4253267,1606987662102453640,imu_link,0.00615857494994998,0.005170679185539484,0.43051791191101074,0.902546226978302,0.0,0.0,0.0,0.0,0.0,0.0,0.0,0.0,0.0,51.00442886352539,0.23094843327999115,0.892077624797821,0.0,0.0,0.0,0.0,0.0,0.0,0.0,0.0,0.0,-0.02039693482220173,0.005514837801456451,0.04824953153729439,0.0,0.0,0.0,0.0,0.0,0.0,0.0,0.0,0.0
1606991264227751257,4253268,1606987662102545866,imu_link,0.00615857494994998,0.005170679185539484,0.43051791191101074,0.902546226978302,0.0,0.0,0.0,0.0,0.0,0.0,0.0,0.0,0.0,51.00442886352539,0.23094843327999115,0.892077624797821,0.0,0.0,0.0,0.0,0.0,0.0,0.0,0.0,0.0,-0.02039693482220173,0.005514837801456451,0.04824953153729439,0.0,0.0,0.0,0.0,0.0,0.0,0.0,0.0,0.0
1606991264227763756,4253269,1606987662102621357,imu_link,0.006157939787954092,0.0051675820723176,0.43051791191101074,0.9025462865829468,0.0,0.0,0.0,0.0,0.0,0.0,0.0,0.0,0.0,51.004425048828125,0.23065949976444244,0.8918591141700745,0.0,0.0,0.0,0.0,0.0,0.0,0.0,0.0,0.0,-0.033407799899578094,0.0011030156165361404,0.06518632173538208,0.0,0.0,0.0,0.0,0.0,0.0,0.0,0.0,0.0
1606991264227791723,4253270,1606987662102686327,imu_link,0.006157939787954092,0.0051675820723176,0.43051791191101074,0.9025462865829468,0.0,0.0,0.0,0.0,0.0,0.0,0.0,0.0,0.0,51.004425048828125,0.23065949976444244,0.8918591141700745,0.0,0.0,0.0,0.0,0.0,0.0,0.0,0.0,0.0,-0.033407799899578094,0.0011030156165361404,0.06518632173538208,0.0,0.0,0.0,0.0,0.0,0.0,0.0,0.0,0.0
1606991264227802939,4253271,1606987662102782995,imu_link,0.006156774237751961,0.005171853117644787,0.43051791191101074,0.902546226978302,0.0,0.0,0.0,0.0,0.0,0.0,0.0,0.0,0.0,51.004432678222656,0.23115874826908112,0.8919492959976196,0.0,0.0,0.0,0.0,0.0,0.0,0.0,0.0,0.0,-0.03658417984843254,0.004295912571251392,0.057570379227399826,0.0,0.0,0.0,0.0,0.0,0.0,0.0,0.0,0.0
1606991264227816741,4253272,1606987662102848739,imu_link,0.006156774237751961,0.005171853117644787,0.43051791191101074,0.902546226978302,0.0,0.0,0.0,0.0,0.0,0.0,0.0,0.0,0.0,51.004432678222656,0.23115874826908112,0.8919492959976196,0.0,0.0,0.0,0.0,0.0,0.0,0.0,0.0,0.0,-0.03658417984843254,0.004295912571251392,0.057570379227399826,0.0,0.0,0.0,0.0,0.0,0.0,0.0,0.0,0.0
1606991264233954266,4253273,1606987662102985115,imu_link,0.006158812437206507,0.0051667047664523125,0.430518239736557,0.9025461077690125,0.0,0.0,0.0,0.0,0.0,0.0,0.0,0.0,0.0,51.00446319580078,0.23052537441253662,0.8919061422348022,0.0,0.0,0.0,0.0,0.0,0.0,0.0,0.0,0.0,-0.019536472856998444,0.007624576333910227,0.04380042105913162,0.0,0.0,0.0,0.0,0.0,0.0,0.0,0.0,0.0
1606991264233971546,4253274,1606987662103056856,imu_link,0.006158812437206507,0.0051667047664523125,0.430518239736557,0.9025461077690125,0.0,0.0,0.0,0.0,0.0,0.0,0.0,0.0,0.0,51.00446319580078,0.23052537441253662,0.8919061422348022,0.0,0.0,0.0,0.0,0.0,0.0,0.0,0.0,0.0,-0.019536472856998444,0.007624576333910227,0.04380042105913162,0.0,0.0,0.0,0.0,0.0,0.0,0.0,0.0,0.0
1606991264233983216,4253275,1606987662103161258,imu_link,0.006160205230116844,0.005167153663933277,0.43051794171333313,0.902546226978302,0.0,0.0,0.0,0.0,0.0,0.0,0.0,0.0,0.0,51.00442886352539,0.2305033653974533,0.8920722603797913,0.0,0.0,0.0,0.0,0.0,0.0,0.0,0.0,0.0,0.0039018236566334963,0.005810008849948645,0.046729035675525665,0.0,0.0,0.0,0.0,0.0,0.0,0.0,0.0,0.0
1606991264233998985,4253276,1606987662103227187,imu_link,0.006160205230116844,0.005167153663933277,0.43051794171333313,0.902546226978302,0.0,0.0,0.0,0.0,0.0,0.0,0.0,0.0,0.0,51.00442886352539,0.2305033653974533,0.8920722603797913,0.0,0.0,0.0,0.0,0.0,0.0,0.0,0.0,0.0,0.0039018236566334963,0.005810008849948645,0.046729035675525665,0.0,0.0,0.0,0.0,0.0,0.0,0.0,0.0,0.0
1606991264243180633,4253277,1606987662103352417,imu_link,0.0061595505103468895,0.005164031405001879,0.43051356077194214,0.9025483131408691,0.0,0.0,0.0,0.0,0.0,0.0,0.0,0.0,0.0,51.003868103027344,0.2302170842885971,0.8918493390083313,0.0,0.0,0.0,0.0,0.0,0.0,0.0,0.0,0.0,0.009591045789420605,0.010168926790356636,0.05287704989314079,0.0,0.0,0.0,0.0,0.0,0.0,0.0,0.0,0.0
1606991264243212299,4253278,1606987662116273476,imu_link,0.0061595505103468895,0.005164031405001879,0.43051356077194214,0.9025483131408691,0.0,0.0,0.0,0.0,0.0,0.0,0.0,0.0,0.0,51.003868103027344,0.2302170842885971,0.8918493390083313,0.0,0.0,0.0,0.0,0.0,0.0,0.0,0.0,0.0,0.009591045789420605,0.010168926790356636,0.05287704989314079,0.0,0.0,0.0,0.0,0.0,0.0,0.0,0.0,0.0
1606991264243235700,4253279,1606987662116364290,imu_link,0.006160648074001074,0.0051634227856993675,0.4305131733417511,0.9025485515594482,0.0,0.0,0.0,0.0,0.0,0.0,0.0,0.0,0.0,51.003814697265625,0.23010042309761047,0.8919326663017273,0.0,0.0,0.0,0.0,0.0,0.0,0.0,0.0,0.0,-0.009389812126755714,0.008845270611345768,0.03621959313750267,0.0,0.0,0.0,0.0,0.0,0.0,0.0,0.0,0.0
1606991264243250934,4253280,1606987662116446532,imu_link,0.006160648074001074,0.0051634227856993675,0.4305131733417511,0.9025485515594482,0.0,0.0,0.0,0.0,0.0,0.0,0.0,0.0,0.0,51.003814697265625,0.23010042309761047,0.8919326663017273,0.0,0.0,0.0,0.0,0.0,0.0,0.0,0.0,0.0,-0.009389812126755714,0.008845270611345768,0.03621959313750267,0.0,0.0,0.0,0.0,0.0,0.0,0.0,0.0,0.0
1606991264293094100,4253281,1606987662116510701,imu_link,0.006160289980471134,0.005161254666745663,0.43050622940063477,0.9025517702102661,0.0,0.0,0.0,0.0,0.0,0.0,0.0,0.0,0.0,51.00293731689453,0.22990062832832336,0.8917869925498962,0.0,0.0,0.0,0.0,0.0,0.0,0.0,0.0,0.0,-0.021894589066505432,-0.0062088994309306145,0.03451431542634964,0.0,0.0,0.0,0.0,0.0,0.0,0.0,0.0,0.0
1606991264293125976,4253282,1606987662116610359,imu_link,0.006160289980471134,0.005161254666745663,0.43050622940063477,0.9025517702102661,0.0,0.0,0.0,0.0,0.0,0.0,0.0,0.0,0.0,51.00293731689453,0.22990062832832336,0.8917869925498962,0.0,0.0,0.0,0.0,0.0,0.0,0.0,0.0,0.0,-0.021894589066505432,-0.0062088994309306145,0.03451431542634964,0.0,0.0,0.0,0.0,0.0,0.0,0.0,0.0,0.0
1606991264293152432,4253283,1606987662116690308,imu_link,0.006158056668937206,0.00516267865896225,0.43050771951675415,0.9025511741638184,0.0,0.0,0.0,0.0,0.0,0.0,0.0,0.0,0.0,51.00312423706055,0.23015666007995605,0.8916265368461609,0.0,0.0,0.0,0.0,0.0,0.0,0.0,0.0,0.0,-0.009948136284947395,-0.003427221905440092,0.06606385111808777,0.0,0.0,0.0,0.0,0.0,0.0,0.0,0.0,0.0
1606991264293174595,4253284,1606987662116759188,imu_link,0.006158056668937206,0.00516267865896225,0.43050771951675415,0.9025511741638184,0.0,0.0,0.0,0.0,0.0,0.0,0.0,0.0,0.0,51.00312423706055,0.23015666007995605,0.8916265368461609,0.0,0.0,0.0,0.0,0.0,0.0,0.0,0.0,0.0,-0.009948136284947395,-0.003427221905440092,0.06606385111808777,0.0,0.0,0.0,0.0,0.0,0.0,0.0,0.0,0.0
1606991264293192557,4253285,1606987662116823104,imu_link,0.006160395219922066,0.005161477252840996,0.43050864338874817,0.9025506973266602,0.0,0.0,0.0,0.0,0.0,0.0,0.0,0.0,0.0,51.003238677978516,0.22991615533828735,0.8918094038963318,0.0,0.0,0.0,0.0,0.0,0.0,0.0,0.0,0.0,-0.0009218774503096938,0.016703838482499123,0.07266174256801605,0.0,0.0,0.0,0.0,0.0,0.0,0.0,0.0,0.0
1606991264302107454,4253286,1606987662116927233,imu_link,0.006160395219922066,0.005161477252840996,0.43050864338874817,0.9025506973266602,0.0,0.0,0.0,0.0,0.0,0.0,0.0,0.0,0.0,51.003238677978516,0.22991615533828735,0.8918094038963318,0.0,0.0,0.0,0.0,0.0,0.0,0.0,0.0,0.0,-0.0009218774503096938,0.016703838482499123,0.07266174256801605,0.0,0.0,0.0,0.0,0.0,0.0,0.0,0.0,0.0
1606991264302148993,4253287,1606987662116992364,imu_link,0.006159046199172735,0.005161919165402651,0.43050795793533325,0.9025510549545288,0.0,0.0,0.0,0.0,0.0,0.0,0.0,0.0,0.0,51.00315475463867,0.23002907633781433,0.8916915655136108,0.0,0.0,0.0,0.0,0.0,0.0,0.0,0.0,0.0,-0.00017649871006142348,0.0184350423514843,0.05979493260383606,0.0,0.0,0.0,0.0,0.0,0.0,0.0,0.0,0.0
1606991264302179631,4253288,1606987662117117341,imu_link,0.006159046199172735,0.005161919165402651,0.43050795793533325,0.9025510549545288,0.0,0.0,0.0,0.0,0.0,0.0,0.0,0.0,0.0,51.00315475463867,0.23002907633781433,0.8916915655136108,0.0,0.0,0.0,0.0,0.0,0.0,0.0,0.0,0.0,-0.00017649871006142348,0.0184350423514843,0.05979493260383606,0.0,0.0,0.0,0.0,0.0,0.0,0.0,0.0,0.0
1606991264302209355,4253289,1606987662129382840,imu_link,0.006155848037451506,0.005161596927791834,0.43050941824913025,0.9025503993034363,0.0,0.0,0.0,0.0,0.0,0.0,0.0,0.0,0.0,51.003334045410156,0.23015210032463074,0.891345202922821,0.0,0.0,0.0,0.0,0.0,0.0,0.0,0.0,0.0,0.003826163476333022,0.002924247644841671,0.042700957506895065,0.0,0.0,0.0,0.0,0.0,0.0,0.0,0.0,0.0
1606991264311904494,4253290,1606987662129508098,imu_link,0.006155848037451506,0.005161596927791834,0.43050941824913025,0.9025503993034363,0.0,0.0,0.0,0.0,0.0,0.0,0.0,0.0,0.0,51.003334045410156,0.23015210032463074,0.891345202922821,0.0,0.0,0.0,0.0,0.0,0.0,0.0,0.0,0.0,0.003826163476333022,0.002924247644841671,0.042700957506895065,0.0,0.0,0.0,0.0,0.0,0.0,0.0,0.0,0.0
1606991264311944441,4253291,1606987662129595376,imu_link,0.006155368406325579,0.0051609426736831665,0.43050944805145264,0.9025503993034363,0.0,0.0,0.0,0.0,0.0,0.0,0.0,0.0,0.0,51.003334045410156,0.23010806739330292,0.8912633061408997,0.0,0.0,0.0,0.0,0.0,0.0,0.0,0.0,0.0,0.008407127112150192,-0.0004759758594445884,0.03838765248656273,0.0,0.0,0.0,0.0,0.0,0.0,0.0,0.0,0.0
1606991264311997493,4253292,1606987662129677286,imu_link,0.006155368406325579,0.0051609426736831665,0.43050944805145264,0.9025503993034363,0.0,0.0,0.0,0.0,0.0,0.0,0.0,0.0,0.0,51.003334045410156,0.23010806739330292,0.8912633061408997,0.0,0.0,0.0,0.0,0.0,0.0,0.0,0.0,0.0,0.008407127112150192,-0.0004759758594445884,0.03838765248656273,0.0,0.0,0.0,0.0,0.0,0.0,0.0,0.0,0.0
1606991264312014583,4253293,1606987662129796125,imu_link,0.006154194474220276,0.005161405075341463,0.430497944355011,0.9025558829307556,0.0,0.0,0.0,0.0,0.0,0.0,0.0,0.0,0.0,51.00188064575195,0.23022517561912537,0.8911616802215576,0.0,0.0,0.0,0.0,0.0,0.0,0.0,0.0,0.0,-0.0005183190223760903,0.011944367550313473,0.05097763612866402,0.0,0.0,0.0,0.0,0.0,0.0,0.0,0.0,0.0
1606991264312032504,4253294,1606987662129887319,imu_link,0.006154194474220276,0.005161405075341463,0.430497944355011,0.9025558829307556,0.0,0.0,0.0,0.0,0.0,0.0,0.0,0.0,0.0,51.00188064575195,0.23022517561912537,0.8911616802215576,0.0,0.0,0.0,0.0,0.0,0.0,0.0,0.0,0.0,-0.0005183190223760903,0.011944367550313473,0.05097763612866402,0.0,0.0,0.0,0.0,0.0,0.0,0.0,0.0,0.0
1606991264320957232,4253295,1606987662129963499,imu_link,0.006155138369649649,0.00516109075397253,0.43049854040145874,0.9025554656982422,0.0,0.0,0.0,0.0,0.0,0.0,0.0,0.0,0.0,51.00196075439453,0.2301454246044159,0.891244113445282,0.0,0.0,0.0,0.0,0.0,0.0,0.0,0.0,0.0,-0.012654763646423817,0.015088793821632862,0.05457017570734024,0.0,0.0,0.0,0.0,0.0,0.0,0.0,0.0,0.0
1606991264320979982,4253296,1606987662130036536,imu_link,0.006155138369649649,0.00516109075397253,0.43049854040145874,0.9025554656982422,0.0,0.0,0.0,0.0,0.0,0.0,0.0,0.0,0.0,51.00196075439453,0.2301454246044159,0.891244113445282,0.0,0.0,0.0,0.0,0.0,0.0,0.0,0.0,0.0,-0.012654763646423817,0.015088793821632862,0.05457017570734024,0.0,0.0,0.0,0.0,0.0,0.0,0.0,0.0,0.0
1606991264320993674,4253297,1606987662130109374,imu_link,0.006153537426143885,0.005157859995961189,0.43048498034477234,0.9025620818138123,0.0,0.0,0.0,0.0,0.0,0.0,0.0,0.0,0.0,51.0002326965332,0.22990375757217407,0.8909156322479248,0.0,0.0,0.0,0.0,0.0,0.0,0.0,0.0,0.0,-0.013215194456279278,0.015517153777182102,0.055568624287843704,0.0,0.0,0.0,0.0,0.0,0.0,0.0,0.0,0.0
1606991264321010071,4253298,1606987662130180104,imu_link,0.006153537426143885,0.005157859995961189,0.43048498034477234,0.9025620818138123,0.0,0.0,0.0,0.0,0.0,0.0,0.0,0.0,0.0,51.0002326965332,0.22990375757217407,0.8909156322479248,0.0,0.0,0.0,0.0,0.0,0.0,0.0,0.0,0.0,-0.013215194456279278,0.015517153777182102,0.055568624287843704,0.0,0.0,0.0,0.0,0.0,0.0,0.0,0.0,0.0
1606991264414340414,4253299,1606987662142631337,imu_link,0.0061520482413470745,0.005158457905054092,0.43048372864723206,0.90256267786026,0.0,0.0,0.0,0.0,0.0,0.0,0.0,0.0,0.0,51.00006866455078,0.2300402820110321,0.8907907605171204,0.0,0.0,0.0,0.0,0.0,0.0,0.0,0.0,0.0,-0.0030982631724327803,0.006819881498813629,0.047127872705459595,0.0,0.0,0.0,0.0,0.0,0.0,0.0,0.0,0.0
1606991264414391769,4253300,1606987662142733631,imu_link,0.0061520482413470745,0.005158457905054092,0.43048372864723206,0.90256267786026,0.0,0.0,0.0,0.0,0.0,0.0,0.0,0.0,0.0,51.00006866455078,0.2300402820110321,0.8907907605171204,0.0,0.0,0.0,0.0,0.0,0.0,0.0,0.0,0.0,-0.0030982631724327803,0.006819881498813629,0.047127872705459595,0.0,0.0,0.0,0.0,0.0,0.0,0.0,0.0,0.0
1606991264414410747,4253301,1606987662142817270,imu_link,0.006149484310299158,0.005157675128430128,0.43048161268234253,0.9025636911392212,0.0,0.0,0.0,0.0,0.0,0.0,0.0,0.0,0.0,50.99980545043945,0.23008787631988525,0.890486478805542,0.0,0.0,0.0,0.0,0.0,0.0,0.0,0.0,0.0,0.005428034346550703,-0.0052911448292434216,0.04959944263100624,0.0,0.0,0.0,0.0,0.0,0.0,0.0,0.0,0.0
1606991264414422624,4253302,1606987662142889281,imu_link,0.006149484310299158,0.005157675128430128,0.43048161268234253,0.9025636911392212,0.0,0.0,0.0,0.0,0.0,0.0,0.0,0.0,0.0,50.99980545043945,0.23008787631988525,0.890486478805542,0.0,0.0,0.0,0.0,0.0,0.0,0.0,0.0,0.0,0.005428034346550703,-0.0052911448292434216,0.04959944263100624,0.0,0.0,0.0,0.0,0.0,0.0,0.0,0.0,0.0
1606991264414498122,4253303,1606987662143024455,imu_link,0.006148687098175287,0.005159514956176281,0.4304823875427246,0.9025633335113525,0.0,0.0,0.0,0.0,0.0,0.0,0.0,0.0,0.0,50.999900817871094,0.23031674325466156,0.8904949426651001,0.0,0.0,0.0,0.0,0.0,0.0,0.0,0.0,0.0,0.012640740722417831,-0.014559976756572723,0.06571906805038452,0.0,0.0,0.0,0.0,0.0,0.0,0.0,0.0,0.0
1606991264424175787,4253304,1606987662143101389,imu_link,0.006148687098175287,0.005159514956176281,0.4304823875427246,0.9025633335113525,0.0,0.0,0.0,0.0,0.0,0.0,0.0,0.0,0.0,50.999900817871094,0.23031674325466156,0.8904949426651001,0.0,0.0,0.0,0.0,0.0,0.0,0.0,0.0,0.0,0.012640740722417831,-0.014559976756572723,0.06571906805038452,0.0,0.0,0.0,0.0,0.0,0.0,0.0,0.0,0.0
1606991264424215044,4253305,1606987662143234613,imu_link,0.00615068431943655,0.005162292625755072,0.43047815561294556,0.9025653004646301,0.0,0.0,0.0,0.0,0.0,0.0,0.0,0.0,0.0,50.999366760253906,0.2305096685886383,0.8908374905586243,0.0,0.0,0.0,0.0,0.0,0.0,0.0,0.0,0.0,0.01500855851918459,-0.011472512036561966,0.07547622174024582,0.0,0.0,0.0,0.0,0.0,0.0,0.0,0.0,0.0
1606991264424235168,4253306,1606987662143309734,imu_link,0.00615068431943655,0.005162292625755072,0.43047815561294556,0.9025653004646301,0.0,0.0,0.0,0.0,0.0,0.0,0.0,0.0,0.0,50.999366760253906,0.2305096685886383,0.8908374905586243,0.0,0.0,0.0,0.0,0.0,0.0,0.0,0.0,0.0,0.01500855851918459,-0.011472512036561966,0.07547622174024582,0.0,0.0,0.0,0.0,0.0,0.0,0.0,0.0,0.0
1606991264424258525,4253307,1606987662143418871,imu_link,0.0061531648971140385,0.005163293797522783,0.4304773211479187,0.9025656580924988,0.0,0.0,0.0,0.0,0.0,0.0,0.0,0.0,0.0,50.999263763427734,0.23049160838127136,0.8911432027816772,0.0,0.0,0.0,0.0,0.0,0.0,0.0,0.0,0.0,-0.008019138127565384,0.0014073967467993498,0.06551369279623032,0.0,0.0,0.0,0.0,0.0,0.0,0.0,0.0,0.0
1606991264430722913,4253308,1606987662143491443,imu_link,0.0061531648971140385,0.005163293797522783,0.4304773211479187,0.9025656580924988,0.0,0.0,0.0,0.0,0.0,0.0,0.0,0.0,0.0,50.999263763427734,0.23049160838127136,0.8911432027816772,0.0,0.0,0.0,0.0,0.0,0.0,0.0,0.0,0.0,-0.008019138127565384,0.0014073967467993498,0.06551369279623032,0.0,0.0,0.0,0.0,0.0,0.0,0.0,0.0,0.0
1606991264430754787,4253309,1606987662143597653,imu_link,0.00615302100777626,0.005163042340427637,0.43047618865966797,0.9025661945343018,0.0,0.0,0.0,0.0,0.0,0.0,0.0,0.0,0.0,50.999122619628906,0.2304738312959671,0.891115665435791,0.0,0.0,0.0,0.0,0.0,0.0,0.0,0.0,0.0,-0.02639654278755188,-0.0014355650637298822,0.07125255465507507,0.0,0.0,0.0,0.0,0.0,0.0,0.0,0.0,0.0
1606991264430785528,4253310,1606987662156570437,imu_link,0.00615302100777626,0.005163042340427637,0.43047618865966797,0.9025661945343018,0.0,0.0,0.0,0.0,0.0,0.0,0.0,0.0,0.0,50.999122619628906,0.2304738312959671,0.891115665435791,0.0,0.0,0.0,0.0,0.0,0.0,0.0,0.0,0.0,-0.02639654278755188,-0.0014355650637298822,0.07125255465507507,0.0,0.0,0.0,0.0,0.0,0.0,0.0,0.0,0.0
